File: Experiments/TUBS/tga_isotherm/tga_isotherm_n2_iso300_piece_3mg_r2.txt
index	ts	t	weight	tr
[#]	[°C]	[s]	[mg]	[°C]
900	1.21941e+02	9.00000e+02	2.97607e+00	9.00000e+01
937	1.80880e+02	9.37000e+02	2.97060e+00	3.00000e+02
968	2.27953e+02	9.68000e+02	2.95610e+00	3.00000e+02
999	2.53151e+02	9.99000e+02	2.92956e+00	3.00000e+02
1030	2.69846e+02	1.03000e+03	2.90626e+00	3.00000e+02
1061	2.80747e+02	1.06100e+03	2.88529e+00	3.00000e+02
1092	2.88116e+02	1.09200e+03	2.86499e+00	3.00000e+02
1123	2.93184e+02	1.12300e+03	2.84462e+00	3.00000e+02
1154	2.96651e+02	1.15400e+03	2.82449e+00	3.00000e+02
1185	2.98884e+02	1.18500e+03	2.80566e+00	3.00000e+02
1216	3.00392e+02	1.21600e+03	2.78890e+00	3.00000e+02
1247	3.01355e+02	1.24700e+03	2.77418e+00	3.00000e+02
1278	3.01983e+02	1.27800e+03	2.76118e+00	3.00000e+02
1309	3.02419e+02	1.30900e+03	2.74965e+00	3.00000e+02
1340	3.02682e+02	1.34000e+03	2.73921e+00	3.00000e+02
1371	3.02884e+02	1.37100e+03	2.72926e+00	3.00000e+02
1402	3.03005e+02	1.40200e+03	2.71987e+00	3.00000e+02
1433	3.03069e+02	1.43300e+03	2.71110e+00	3.00000e+02
1464	3.03124e+02	1.46400e+03	2.70246e+00	3.00000e+02
1495	3.03152e+02	1.49500e+03	2.69432e+00	3.00000e+02
1526	3.03181e+02	1.52600e+03	2.68650e+00	3.00000e+02
1557	3.03190e+02	1.55700e+03	2.67861e+00	3.00000e+02
1588	3.03187e+02	1.58800e+03	2.67084e+00	3.00000e+02
1619	3.03203e+02	1.61900e+03	2.66360e+00	3.00000e+02
1650	3.03191e+02	1.65000e+03	2.65650e+00	3.00000e+02
1681	3.03187e+02	1.68100e+03	2.64926e+00	3.00000e+02
1712	3.03191e+02	1.71200e+03	2.64213e+00	3.00000e+02
1743	3.03196e+02	1.74300e+03	2.63528e+00	3.00000e+02
1774	3.03186e+02	1.77400e+03	2.62871e+00	3.00000e+02
1805	3.03178e+02	1.80500e+03	2.62197e+00	3.00000e+02
1836	3.03178e+02	1.83600e+03	2.61564e+00	3.00000e+02
1867	3.03186e+02	1.86700e+03	2.60923e+00	3.00000e+02
1898	3.03180e+02	1.89800e+03	2.60288e+00	3.00000e+02
1929	3.03183e+02	1.92900e+03	2.59685e+00	3.00000e+02
1960	3.03181e+02	1.96000e+03	2.59047e+00	3.00000e+02
1991	3.03173e+02	1.99100e+03	2.58461e+00	3.00000e+02
2022	3.03175e+02	2.02200e+03	2.57867e+00	3.00000e+02
2053	3.03175e+02	2.05300e+03	2.57267e+00	3.00000e+02
2084	3.03166e+02	2.08400e+03	2.56693e+00	3.00000e+02
2115	3.03151e+02	2.11500e+03	2.56135e+00	3.00000e+02
2146	3.03169e+02	2.14600e+03	2.55546e+00	3.00000e+02
2177	3.03169e+02	2.17700e+03	2.54983e+00	3.00000e+02
2208	3.03174e+02	2.20800e+03	2.54435e+00	3.00000e+02
2239	3.03176e+02	2.23900e+03	2.53880e+00	3.00000e+02
2270	3.03181e+02	2.27000e+03	2.53334e+00	3.00000e+02
2301	3.03170e+02	2.30100e+03	2.52801e+00	3.00000e+02
2332	3.03169e+02	2.33200e+03	2.52275e+00	3.00000e+02
2363	3.03163e+02	2.36300e+03	2.51732e+00	3.00000e+02
2394	3.03169e+02	2.39400e+03	2.51201e+00	3.00000e+02
2425	3.03160e+02	2.42500e+03	2.50711e+00	3.00000e+02
2456	3.03162e+02	2.45600e+03	2.50200e+00	3.00000e+02
2487	3.03166e+02	2.48700e+03	2.49680e+00	3.00000e+02
2518	3.03160e+02	2.51800e+03	2.49164e+00	3.00000e+02
2549	3.03164e+02	2.54900e+03	2.48679e+00	3.00000e+02
2580	3.03164e+02	2.58000e+03	2.48196e+00	3.00000e+02
2611	3.03160e+02	2.61100e+03	2.47683e+00	3.00000e+02
2642	3.03170e+02	2.64200e+03	2.47199e+00	3.00000e+02
2673	3.03159e+02	2.67300e+03	2.46732e+00	3.00000e+02
2704	3.03151e+02	2.70400e+03	2.46241e+00	3.00000e+02
2735	3.03166e+02	2.73500e+03	2.45761e+00	3.00000e+02
2766	3.03157e+02	2.76600e+03	2.45298e+00	3.00000e+02
2797	3.03171e+02	2.79700e+03	2.44847e+00	3.00000e+02
2828	3.03156e+02	2.82800e+03	2.44360e+00	3.00000e+02
2859	3.03155e+02	2.85900e+03	2.43892e+00	3.00000e+02
2890	3.03170e+02	2.89000e+03	2.43439e+00	3.00000e+02
2921	3.03159e+02	2.92100e+03	2.42980e+00	3.00000e+02
2952	3.03146e+02	2.95200e+03	2.42523e+00	3.00000e+02
2983	3.03154e+02	2.98300e+03	2.42090e+00	3.00000e+02
3014	3.03154e+02	3.01400e+03	2.41645e+00	3.00000e+02
3045	3.03170e+02	3.04500e+03	2.41188e+00	3.00000e+02
3076	3.03152e+02	3.07600e+03	2.40758e+00	3.00000e+02
3107	3.03171e+02	3.10700e+03	2.40318e+00	3.00000e+02
3138	3.03164e+02	3.13800e+03	2.39876e+00	3.00000e+02
3169	3.03161e+02	3.16900e+03	2.39450e+00	3.00000e+02
3200	3.03167e+02	3.20000e+03	2.39013e+00	3.00000e+02
3231	3.03162e+02	3.23100e+03	2.38595e+00	3.00000e+02
3262	3.03168e+02	3.26200e+03	2.38169e+00	3.00000e+02
3293	3.03172e+02	3.29300e+03	2.37750e+00	3.00000e+02
3324	3.03163e+02	3.32400e+03	2.37331e+00	3.00000e+02
3355	3.03163e+02	3.35500e+03	2.36896e+00	3.00000e+02
3386	3.03170e+02	3.38600e+03	2.36490e+00	3.00000e+02
3417	3.03174e+02	3.41700e+03	2.36103e+00	3.00000e+02
3448	3.03168e+02	3.44800e+03	2.35677e+00	3.00000e+02
3479	3.03175e+02	3.47900e+03	2.35262e+00	3.00000e+02
3510	3.03175e+02	3.51000e+03	2.34862e+00	3.00000e+02
3541	3.03164e+02	3.54100e+03	2.34446e+00	3.00000e+02
3572	3.03161e+02	3.57200e+03	2.34041e+00	3.00000e+02
3603	3.03168e+02	3.60300e+03	2.33656e+00	3.00000e+02
3634	3.03151e+02	3.63400e+03	2.33261e+00	3.00000e+02
3665	3.03163e+02	3.66500e+03	2.32870e+00	3.00000e+02
3696	3.03167e+02	3.69600e+03	2.32470e+00	3.00000e+02
3727	3.03161e+02	3.72700e+03	2.32081e+00	3.00000e+02
3758	3.03161e+02	3.75800e+03	2.31695e+00	3.00000e+02
3789	3.03160e+02	3.78900e+03	2.31310e+00	3.00000e+02
3820	3.03162e+02	3.82000e+03	2.30909e+00	3.00000e+02
3851	3.03162e+02	3.85100e+03	2.30542e+00	3.00000e+02
3882	3.03172e+02	3.88200e+03	2.30157e+00	3.00000e+02
3913	3.03171e+02	3.91300e+03	2.29765e+00	3.00000e+02
3944	3.03179e+02	3.94400e+03	2.29406e+00	3.00000e+02
3975	3.03167e+02	3.97500e+03	2.29026e+00	3.00000e+02
4006	3.03166e+02	4.00600e+03	2.28639e+00	3.00000e+02
4037	3.03157e+02	4.03700e+03	2.28255e+00	3.00000e+02
4068	3.03158e+02	4.06800e+03	2.27902e+00	3.00000e+02
4099	3.03157e+02	4.09900e+03	2.27527e+00	3.00000e+02
4130	3.03156e+02	4.13000e+03	2.27188e+00	3.00000e+02
4161	3.03145e+02	4.16100e+03	2.26798e+00	3.00000e+02
4192	3.03157e+02	4.19200e+03	2.26457e+00	3.00000e+02
4223	3.03155e+02	4.22300e+03	2.26065e+00	3.00000e+02
4254	3.03153e+02	4.25400e+03	2.25703e+00	3.00000e+02
4285	3.03158e+02	4.28500e+03	2.25334e+00	3.00000e+02
4316	3.03163e+02	4.31600e+03	2.24991e+00	3.00000e+02
4347	3.03159e+02	4.34700e+03	2.24626e+00	3.00000e+02
4378	3.03150e+02	4.37800e+03	2.24271e+00	3.00000e+02
4409	3.03166e+02	4.40900e+03	2.23909e+00	3.00000e+02
4440	3.03154e+02	4.44000e+03	2.23575e+00	3.00000e+02
4471	3.03161e+02	4.47100e+03	2.23218e+00	3.00000e+02
4502	3.03152e+02	4.50200e+03	2.22864e+00	3.00000e+02
4533	3.03160e+02	4.53300e+03	2.22520e+00	3.00000e+02
4564	3.03174e+02	4.56400e+03	2.22178e+00	3.00000e+02
4595	3.03164e+02	4.59500e+03	2.21823e+00	3.00000e+02
4626	3.03155e+02	4.62600e+03	2.21497e+00	3.00000e+02
4657	3.03152e+02	4.65700e+03	2.21126e+00	3.00000e+02
4688	3.03152e+02	4.68800e+03	2.20772e+00	3.00000e+02
4719	3.03152e+02	4.71900e+03	2.20430e+00	3.00000e+02
4750	3.03147e+02	4.75000e+03	2.20115e+00	3.00000e+02
4781	3.03152e+02	4.78100e+03	2.19759e+00	3.00000e+02
4812	3.03153e+02	4.81200e+03	2.19437e+00	3.00000e+02
4843	3.03147e+02	4.84300e+03	2.19090e+00	3.00000e+02
4874	3.03149e+02	4.87400e+03	2.18759e+00	3.00000e+02
4905	3.03151e+02	4.90500e+03	2.18430e+00	3.00000e+02
4936	3.03153e+02	4.93600e+03	2.18106e+00	3.00000e+02
4967	3.03158e+02	4.96700e+03	2.17784e+00	3.00000e+02
4998	3.03156e+02	4.99800e+03	2.17443e+00	3.00000e+02
5029	3.03153e+02	5.02900e+03	2.17113e+00	3.00000e+02
5060	3.03162e+02	5.06000e+03	2.16786e+00	3.00000e+02
5091	3.03155e+02	5.09100e+03	2.16460e+00	3.00000e+02
5122	3.03151e+02	5.12200e+03	2.16132e+00	3.00000e+02
5153	3.03149e+02	5.15300e+03	2.15821e+00	3.00000e+02
5184	3.03155e+02	5.18400e+03	2.15481e+00	3.00000e+02
5215	3.03148e+02	5.21500e+03	2.15155e+00	3.00000e+02
5246	3.03164e+02	5.24600e+03	2.14842e+00	3.00000e+02
5277	3.03156e+02	5.27700e+03	2.14517e+00	3.00000e+02
5308	3.03156e+02	5.30800e+03	2.14197e+00	3.00000e+02
5339	3.03156e+02	5.33900e+03	2.13892e+00	3.00000e+02
5370	3.03158e+02	5.37000e+03	2.13553e+00	3.00000e+02
5401	3.03158e+02	5.40100e+03	2.13237e+00	3.00000e+02
5432	3.03149e+02	5.43200e+03	2.12915e+00	3.00000e+02
5463	3.03162e+02	5.46300e+03	2.12599e+00	3.00000e+02
5494	3.03164e+02	5.49400e+03	2.12307e+00	3.00000e+02
5525	3.03159e+02	5.52500e+03	2.11979e+00	3.00000e+02
5556	3.03167e+02	5.55600e+03	2.11654e+00	3.00000e+02
5587	3.03159e+02	5.58700e+03	2.11342e+00	3.00000e+02
5618	3.03153e+02	5.61800e+03	2.11045e+00	3.00000e+02
5649	3.03157e+02	5.64900e+03	2.10723e+00	3.00000e+02
5680	3.03157e+02	5.68000e+03	2.10415e+00	3.00000e+02
5711	3.03147e+02	5.71100e+03	2.10122e+00	3.00000e+02
5742	3.03152e+02	5.74200e+03	2.09847e+00	3.00000e+02
5773	3.03156e+02	5.77300e+03	2.09533e+00	3.00000e+02
5804	3.03150e+02	5.80400e+03	2.09169e+00	3.00000e+02
5835	3.03153e+02	5.83500e+03	2.08885e+00	3.00000e+02
5866	3.03154e+02	5.86600e+03	2.08583e+00	3.00000e+02
5897	3.03163e+02	5.89700e+03	2.08311e+00	3.00000e+02
5928	3.03143e+02	5.92800e+03	2.07979e+00	3.00000e+02
5959	3.03156e+02	5.95900e+03	2.07688e+00	3.00000e+02
5990	3.03144e+02	5.99000e+03	2.07404e+00	3.00000e+02
6021	3.03146e+02	6.02100e+03	2.07118e+00	3.00000e+02
6052	3.03152e+02	6.05200e+03	2.06811e+00	3.00000e+02
6083	3.03149e+02	6.08300e+03	2.06479e+00	3.00000e+02
6114	3.03141e+02	6.11400e+03	2.06199e+00	3.00000e+02
6145	3.03153e+02	6.14500e+03	2.05914e+00	3.00000e+02
6176	3.03154e+02	6.17600e+03	2.05628e+00	3.00000e+02
6207	3.03150e+02	6.20700e+03	2.05323e+00	3.00000e+02
6238	3.03156e+02	6.23800e+03	2.05041e+00	3.00000e+02
6269	3.03153e+02	6.26900e+03	2.04727e+00	3.00000e+02
6300	3.03157e+02	6.30000e+03	2.04451e+00	3.00000e+02
6331	3.03155e+02	6.33100e+03	2.04153e+00	3.00000e+02
6362	3.03158e+02	6.36200e+03	2.03850e+00	3.00000e+02
6393	3.03153e+02	6.39300e+03	2.03562e+00	3.00000e+02
6424	3.03168e+02	6.42400e+03	2.03293e+00	3.00000e+02
6455	3.03165e+02	6.45500e+03	2.02992e+00	3.00000e+02
6486	3.03149e+02	6.48600e+03	2.02730e+00	3.00000e+02
6517	3.03161e+02	6.51700e+03	2.02435e+00	3.00000e+02
6548	3.03154e+02	6.54800e+03	2.02161e+00	3.00000e+02
6579	3.03150e+02	6.57900e+03	2.01870e+00	3.00000e+02
6610	3.03154e+02	6.61000e+03	2.01562e+00	3.00000e+02
6641	3.03140e+02	6.64100e+03	2.01282e+00	3.00000e+02
6672	3.03147e+02	6.67200e+03	2.01033e+00	3.00000e+02
6703	3.03155e+02	6.70300e+03	2.00732e+00	3.00000e+02
6734	3.03165e+02	6.73400e+03	2.00526e+00	3.00000e+02
6765	3.03152e+02	6.76500e+03	2.00175e+00	3.00000e+02
6796	3.03142e+02	6.79600e+03	1.99841e+00	3.00000e+02
6827	3.03137e+02	6.82700e+03	1.99589e+00	3.00000e+02
6858	3.03143e+02	6.85800e+03	1.99311e+00	3.00000e+02
6889	3.03156e+02	6.88900e+03	1.99061e+00	3.00000e+02
6920	3.03154e+02	6.92000e+03	1.98783e+00	3.00000e+02
6951	3.03152e+02	6.95100e+03	1.98502e+00	3.00000e+02
6982	3.03152e+02	6.98200e+03	1.98229e+00	3.00000e+02
7013	3.03147e+02	7.01300e+03	1.97953e+00	3.00000e+02
7044	3.03150e+02	7.04400e+03	1.97671e+00	3.00000e+02
7075	3.03148e+02	7.07500e+03	1.97422e+00	3.00000e+02
7106	3.03147e+02	7.10600e+03	1.97146e+00	3.00000e+02
7137	3.03152e+02	7.13700e+03	1.96861e+00	3.00000e+02
7168	3.03149e+02	7.16800e+03	1.96598e+00	3.00000e+02
7199	3.03159e+02	7.19900e+03	1.96367e+00	3.00000e+02
7230	3.03156e+02	7.23000e+03	1.96066e+00	3.00000e+02
7261	3.03161e+02	7.26100e+03	1.95778e+00	3.00000e+02
7292	3.03155e+02	7.29200e+03	1.95505e+00	3.00000e+02
7323	3.03153e+02	7.32300e+03	1.95248e+00	3.00000e+02
7354	3.03148e+02	7.35400e+03	1.94985e+00	3.00000e+02
7385	3.03141e+02	7.38500e+03	1.94725e+00	3.00000e+02
7416	3.03143e+02	7.41600e+03	1.94476e+00	3.00000e+02
7447	3.03154e+02	7.44700e+03	1.94206e+00	3.00000e+02
7478	3.03136e+02	7.47800e+03	1.93942e+00	3.00000e+02
7509	3.03151e+02	7.50900e+03	1.93678e+00	3.00000e+02
7540	3.03147e+02	7.54000e+03	1.93409e+00	3.00000e+02
7571	3.03151e+02	7.57100e+03	1.93163e+00	3.00000e+02
7602	3.03145e+02	7.60200e+03	1.92913e+00	3.00000e+02
7633	3.03147e+02	7.63300e+03	1.92654e+00	3.00000e+02
7664	3.03147e+02	7.66400e+03	1.92400e+00	3.00000e+02
7695	3.03152e+02	7.69500e+03	1.92143e+00	3.00000e+02
7726	3.03156e+02	7.72600e+03	1.91895e+00	3.00000e+02
7757	3.03149e+02	7.75700e+03	1.91626e+00	3.00000e+02
7788	3.03136e+02	7.78800e+03	1.91403e+00	3.00000e+02
7819	3.03156e+02	7.81900e+03	1.91130e+00	3.00000e+02
7850	3.03145e+02	7.85000e+03	1.90868e+00	3.00000e+02
7881	3.03153e+02	7.88100e+03	1.90624e+00	3.00000e+02
7912	3.03141e+02	7.91200e+03	1.90359e+00	3.00000e+02
7943	3.03158e+02	7.94300e+03	1.90107e+00	3.00000e+02
7974	3.03153e+02	7.97400e+03	1.89872e+00	3.00000e+02
8005	3.03142e+02	8.00500e+03	1.89615e+00	3.00000e+02
8036	3.03142e+02	8.03600e+03	1.89374e+00	3.00000e+02
8067	3.03151e+02	8.06700e+03	1.89101e+00	3.00000e+02
8098	3.03139e+02	8.09800e+03	1.88867e+00	3.00000e+02
8129	3.03151e+02	8.12900e+03	1.88638e+00	3.00000e+02
8160	3.03156e+02	8.16000e+03	1.88387e+00	3.00000e+02
8191	3.03158e+02	8.19100e+03	1.88134e+00	3.00000e+02
8222	3.03155e+02	8.22200e+03	1.87884e+00	3.00000e+02
8253	3.03147e+02	8.25300e+03	1.87664e+00	3.00000e+02
8284	3.03147e+02	8.28400e+03	1.87403e+00	3.00000e+02
8315	3.03149e+02	8.31500e+03	1.87140e+00	3.00000e+02
8346	3.03157e+02	8.34600e+03	1.86909e+00	3.00000e+02
8377	3.03137e+02	8.37700e+03	1.86660e+00	3.00000e+02
8408	3.03145e+02	8.40800e+03	1.86429e+00	3.00000e+02
8439	3.03142e+02	8.43900e+03	1.86169e+00	3.00000e+02
8470	3.03143e+02	8.47000e+03	1.85934e+00	3.00000e+02
8501	3.03158e+02	8.50100e+03	1.85705e+00	3.00000e+02
8532	3.03140e+02	8.53200e+03	1.85449e+00	3.00000e+02
8563	3.03134e+02	8.56300e+03	1.85225e+00	3.00000e+02
8594	3.03145e+02	8.59400e+03	1.84989e+00	3.00000e+02
8625	3.03158e+02	8.62500e+03	1.84743e+00	3.00000e+02
8656	3.03142e+02	8.65600e+03	1.84514e+00	3.00000e+02
8687	3.03136e+02	8.68700e+03	1.84285e+00	3.00000e+02
8718	3.03131e+02	8.71800e+03	1.84060e+00	3.00000e+02
8749	3.03137e+02	8.74900e+03	1.83807e+00	3.00000e+02
8780	3.03149e+02	8.78000e+03	1.83553e+00	3.00000e+02
8811	3.03139e+02	8.81100e+03	1.83325e+00	3.00000e+02
8842	3.03143e+02	8.84200e+03	1.83088e+00	3.00000e+02
8873	3.03140e+02	8.87300e+03	1.82874e+00	3.00000e+02
8904	3.03139e+02	8.90400e+03	1.82626e+00	3.00000e+02
8935	3.03155e+02	8.93500e+03	1.82378e+00	3.00000e+02
8966	3.03156e+02	8.96600e+03	1.82165e+00	3.00000e+02
8997	3.03149e+02	8.99700e+03	1.81936e+00	3.00000e+02
9028	3.03157e+02	9.02800e+03	1.81709e+00	3.00000e+02
9059	3.03158e+02	9.05900e+03	1.81455e+00	3.00000e+02
9090	3.03153e+02	9.09000e+03	1.81228e+00	3.00000e+02
9121	3.03158e+02	9.12100e+03	1.81015e+00	3.00000e+02
9152	3.03157e+02	9.15200e+03	1.80766e+00	3.00000e+02
9183	3.03155e+02	9.18300e+03	1.80537e+00	3.00000e+02
9214	3.03147e+02	9.21400e+03	1.80311e+00	3.00000e+02
9245	3.03149e+02	9.24500e+03	1.80068e+00	3.00000e+02
9276	3.03151e+02	9.27600e+03	1.79858e+00	3.00000e+02
9307	3.03148e+02	9.30700e+03	1.79628e+00	3.00000e+02
9338	3.03165e+02	9.33800e+03	1.79396e+00	3.00000e+02
9369	3.03163e+02	9.36900e+03	1.79184e+00	3.00000e+02
9400	3.03159e+02	9.40000e+03	1.78971e+00	3.00000e+02
9431	3.03148e+02	9.43100e+03	1.78728e+00	3.00000e+02
9462	3.03151e+02	9.46200e+03	1.78522e+00	3.00000e+02
9493	3.03145e+02	9.49300e+03	1.78289e+00	3.00000e+02
9524	3.03151e+02	9.52400e+03	1.78070e+00	3.00000e+02
9555	3.03152e+02	9.55500e+03	1.77859e+00	3.00000e+02
9586	3.03153e+02	9.58600e+03	1.77622e+00	3.00000e+02
9617	3.03150e+02	9.61700e+03	1.77411e+00	3.00000e+02
9648	3.03160e+02	9.64800e+03	1.77184e+00	3.00000e+02
9679	3.03146e+02	9.67900e+03	1.76959e+00	3.00000e+02
9710	3.03155e+02	9.71000e+03	1.76745e+00	3.00000e+02
9741	3.03153e+02	9.74100e+03	1.76530e+00	3.00000e+02
9772	3.03152e+02	9.77200e+03	1.76322e+00	3.00000e+02
9803	3.03159e+02	9.80300e+03	1.76082e+00	3.00000e+02
9834	3.03155e+02	9.83400e+03	1.75859e+00	3.00000e+02
9865	3.03138e+02	9.86500e+03	1.75658e+00	3.00000e+02
9896	3.03149e+02	9.89600e+03	1.75451e+00	3.00000e+02
9927	3.03167e+02	9.92700e+03	1.75226e+00	3.00000e+02
9958	3.03153e+02	9.95800e+03	1.74993e+00	3.00000e+02
9989	3.03148e+02	9.98900e+03	1.74799e+00	3.00000e+02
10020	3.03159e+02	1.00200e+04	1.74577e+00	3.00000e+02
10051	3.03162e+02	1.00510e+04	1.74361e+00	3.00000e+02
10082	3.03159e+02	1.00820e+04	1.74141e+00	3.00000e+02
10113	3.03169e+02	1.01130e+04	1.73935e+00	3.00000e+02
10144	3.03159e+02	1.01440e+04	1.73730e+00	3.00000e+02
10175	3.03175e+02	1.01750e+04	1.73518e+00	3.00000e+02
10206	3.03159e+02	1.02060e+04	1.73307e+00	3.00000e+02
10237	3.03164e+02	1.02370e+04	1.73091e+00	3.00000e+02
10268	3.03156e+02	1.02680e+04	1.72898e+00	3.00000e+02
10299	3.03147e+02	1.02990e+04	1.72681e+00	3.00000e+02
10330	3.03146e+02	1.03300e+04	1.72471e+00	3.00000e+02
10361	3.03146e+02	1.03610e+04	1.72263e+00	3.00000e+02
10392	3.03153e+02	1.03920e+04	1.72078e+00	3.00000e+02
10423	3.03150e+02	1.04230e+04	1.71832e+00	3.00000e+02
10454	3.03139e+02	1.04540e+04	1.71655e+00	3.00000e+02
10485	3.03142e+02	1.04850e+04	1.71415e+00	3.00000e+02
10516	3.03151e+02	1.05160e+04	1.71213e+00	3.00000e+02
10547	3.03136e+02	1.05470e+04	1.71016e+00	3.00000e+02
10578	3.03141e+02	1.05780e+04	1.70805e+00	3.00000e+02
10609	3.03149e+02	1.06090e+04	1.70587e+00	3.00000e+02
10640	3.03141e+02	1.06400e+04	1.70387e+00	3.00000e+02
10671	3.03150e+02	1.06710e+04	1.70192e+00	3.00000e+02
10702	3.03136e+02	1.07020e+04	1.69962e+00	3.00000e+02
10733	3.03150e+02	1.07330e+04	1.69767e+00	3.00000e+02
10764	3.03154e+02	1.07640e+04	1.69566e+00	3.00000e+02
10795	3.03157e+02	1.07950e+04	1.69374e+00	3.00000e+02
10826	3.03149e+02	1.08260e+04	1.69143e+00	3.00000e+02
10857	3.03156e+02	1.08570e+04	1.68964e+00	3.00000e+02
10888	3.03151e+02	1.08880e+04	1.68760e+00	3.00000e+02
10919	3.03146e+02	1.09190e+04	1.68569e+00	3.00000e+02
10950	3.03155e+02	1.09500e+04	1.68361e+00	3.00000e+02
10981	3.03154e+02	1.09810e+04	1.68179e+00	3.00000e+02
11012	3.03153e+02	1.10120e+04	1.67975e+00	3.00000e+02
11043	3.03154e+02	1.10430e+04	1.67758e+00	3.00000e+02
11074	3.03162e+02	1.10740e+04	1.67573e+00	3.00000e+02
11105	3.03167e+02	1.11050e+04	1.67383e+00	3.00000e+02
11136	3.03164e+02	1.11360e+04	1.67181e+00	3.00000e+02
11167	3.03159e+02	1.11670e+04	1.67000e+00	3.00000e+02
11198	3.03150e+02	1.11980e+04	1.66787e+00	3.00000e+02
11229	3.03152e+02	1.12290e+04	1.66593e+00	3.00000e+02
11260	3.03164e+02	1.12600e+04	1.66401e+00	3.00000e+02
11291	3.03159e+02	1.12910e+04	1.66207e+00	3.00000e+02
11322	3.03157e+02	1.13220e+04	1.66014e+00	3.00000e+02
11353	3.03153e+02	1.13530e+04	1.65803e+00	3.00000e+02
11384	3.03162e+02	1.13840e+04	1.65613e+00	3.00000e+02
11415	3.03146e+02	1.14150e+04	1.65434e+00	3.00000e+02
11446	3.03146e+02	1.14460e+04	1.65247e+00	3.00000e+02
11477	3.03155e+02	1.14770e+04	1.65029e+00	3.00000e+02
11508	3.03154e+02	1.15080e+04	1.64840e+00	3.00000e+02
11539	3.03158e+02	1.15390e+04	1.64656e+00	3.00000e+02
11570	3.03154e+02	1.15700e+04	1.64450e+00	3.00000e+02
11601	3.03162e+02	1.16010e+04	1.64254e+00	3.00000e+02
11632	3.03146e+02	1.16320e+04	1.64075e+00	3.00000e+02
11663	3.03153e+02	1.16630e+04	1.63876e+00	3.00000e+02
11694	3.03149e+02	1.16940e+04	1.63684e+00	3.00000e+02
11725	3.03144e+02	1.17250e+04	1.63510e+00	3.00000e+02
11756	3.03167e+02	1.17560e+04	1.63321e+00	3.00000e+02
11787	3.03156e+02	1.17870e+04	1.63113e+00	3.00000e+02
11818	3.03147e+02	1.18180e+04	1.62948e+00	3.00000e+02
11849	3.03157e+02	1.18490e+04	1.62757e+00	3.00000e+02
11880	3.03153e+02	1.18800e+04	1.62549e+00	3.00000e+02
11911	3.03152e+02	1.19110e+04	1.62382e+00	3.00000e+02
11942	3.03157e+02	1.19420e+04	1.62178e+00	3.00000e+02
11973	3.03147e+02	1.19730e+04	1.61971e+00	3.00000e+02
12004	3.03149e+02	1.20040e+04	1.61804e+00	3.00000e+02
12035	3.03149e+02	1.20350e+04	1.61619e+00	3.00000e+02
12066	3.03158e+02	1.20660e+04	1.61435e+00	3.00000e+02
12097	3.03147e+02	1.20970e+04	1.61264e+00	3.00000e+02
12128	3.03156e+02	1.21280e+04	1.61047e+00	3.00000e+02
12159	3.03157e+02	1.21590e+04	1.60856e+00	3.00000e+02
12190	3.03166e+02	1.21900e+04	1.60676e+00	3.00000e+02
12221	3.03158e+02	1.22210e+04	1.60530e+00	3.00000e+02
12252	3.03147e+02	1.22520e+04	1.60315e+00	3.00000e+02
12283	3.03164e+02	1.22830e+04	1.60131e+00	3.00000e+02
12314	3.03152e+02	1.23140e+04	1.59952e+00	3.00000e+02
12345	3.03149e+02	1.23450e+04	1.59783e+00	3.00000e+02
12376	3.03148e+02	1.23760e+04	1.59590e+00	3.00000e+02
12407	3.03147e+02	1.24070e+04	1.59423e+00	3.00000e+02
12438	3.03142e+02	1.24380e+04	1.59229e+00	3.00000e+02
12469	3.03151e+02	1.24690e+04	1.59051e+00	3.00000e+02
12500	3.03158e+02	1.25000e+04	1.58859e+00	3.00000e+02
12531	3.03155e+02	1.25310e+04	1.58676e+00	3.00000e+02
12562	3.03152e+02	1.25620e+04	1.58506e+00	3.00000e+02
12593	3.03156e+02	1.25930e+04	1.58324e+00	3.00000e+02
12624	3.03154e+02	1.26240e+04	1.58137e+00	3.00000e+02
12655	3.03156e+02	1.26550e+04	1.57967e+00	3.00000e+02
12686	3.03163e+02	1.26860e+04	1.57771e+00	3.00000e+02
12717	3.03170e+02	1.27170e+04	1.57593e+00	3.00000e+02
12748	3.03157e+02	1.27480e+04	1.57403e+00	3.00000e+02
12779	3.03156e+02	1.27790e+04	1.57233e+00	3.00000e+02
12810	3.03169e+02	1.28100e+04	1.57058e+00	3.00000e+02
12841	3.03152e+02	1.28410e+04	1.56880e+00	3.00000e+02
12872	3.03148e+02	1.28720e+04	1.56714e+00	3.00000e+02
12903	3.03155e+02	1.29030e+04	1.56531e+00	3.00000e+02
12934	3.03155e+02	1.29340e+04	1.56364e+00	3.00000e+02
12965	3.03169e+02	1.29650e+04	1.56180e+00	3.00000e+02
12996	3.03165e+02	1.29960e+04	1.55996e+00	3.00000e+02
13027	3.03158e+02	1.30270e+04	1.55836e+00	3.00000e+02
13058	3.03157e+02	1.30580e+04	1.55658e+00	3.00000e+02
13089	3.03157e+02	1.30890e+04	1.55473e+00	3.00000e+02
13120	3.03152e+02	1.31200e+04	1.55307e+00	3.00000e+02
13151	3.03161e+02	1.31510e+04	1.55148e+00	3.00000e+02
13182	3.03163e+02	1.31820e+04	1.54982e+00	3.00000e+02
13213	3.03168e+02	1.32130e+04	1.54810e+00	3.00000e+02
13244	3.03165e+02	1.32440e+04	1.54642e+00	3.00000e+02
13275	3.03163e+02	1.32750e+04	1.54475e+00	3.00000e+02
13306	3.03166e+02	1.33060e+04	1.54299e+00	3.00000e+02
13337	3.03153e+02	1.33370e+04	1.54141e+00	3.00000e+02
13368	3.03162e+02	1.33680e+04	1.53952e+00	3.00000e+02
13399	3.03152e+02	1.33990e+04	1.53805e+00	3.00000e+02
13430	3.03173e+02	1.34300e+04	1.53621e+00	3.00000e+02
13461	3.03179e+02	1.34610e+04	1.53460e+00	3.00000e+02
13492	3.03164e+02	1.34920e+04	1.53286e+00	3.00000e+02
13523	3.03160e+02	1.35230e+04	1.53115e+00	3.00000e+02
13554	3.03163e+02	1.35540e+04	1.52952e+00	3.00000e+02
13585	3.03156e+02	1.35850e+04	1.52775e+00	3.00000e+02
13616	3.03165e+02	1.36160e+04	1.52627e+00	3.00000e+02
13647	3.03163e+02	1.36470e+04	1.52464e+00	3.00000e+02
13678	3.03159e+02	1.36780e+04	1.52278e+00	3.00000e+02
13709	3.03156e+02	1.37090e+04	1.52126e+00	3.00000e+02
13740	3.03160e+02	1.37400e+04	1.51906e+00	3.00000e+02
13771	3.03160e+02	1.37710e+04	1.51764e+00	3.00000e+02
13802	3.03161e+02	1.38020e+04	1.51613e+00	3.00000e+02
13833	3.03171e+02	1.38330e+04	1.51423e+00	3.00000e+02
13864	3.03170e+02	1.38640e+04	1.51273e+00	3.00000e+02
13895	3.03170e+02	1.38950e+04	1.51121e+00	3.00000e+02
13926	3.03157e+02	1.39260e+04	1.50952e+00	3.00000e+02
13957	3.03160e+02	1.39570e+04	1.50784e+00	3.00000e+02
13988	3.03150e+02	1.39880e+04	1.50621e+00	3.00000e+02
14019	3.03166e+02	1.40190e+04	1.50470e+00	3.00000e+02
14050	3.03164e+02	1.40500e+04	1.50316e+00	3.00000e+02
14081	3.03160e+02	1.40810e+04	1.50147e+00	3.00000e+02
14112	3.03164e+02	1.41120e+04	1.49994e+00	3.00000e+02
14143	3.03152e+02	1.41430e+04	1.49830e+00	3.00000e+02
14174	3.03153e+02	1.41740e+04	1.49659e+00	3.00000e+02
14205	3.03166e+02	1.42050e+04	1.49482e+00	3.00000e+02
14236	3.03161e+02	1.42360e+04	1.49311e+00	3.00000e+02
14267	3.03152e+02	1.42670e+04	1.49139e+00	3.00000e+02
14298	3.03166e+02	1.42980e+04	1.48994e+00	3.00000e+02
14329	3.03156e+02	1.43290e+04	1.48827e+00	3.00000e+02
14360	3.03154e+02	1.43600e+04	1.48684e+00	3.00000e+02
14391	3.03166e+02	1.43910e+04	1.48532e+00	3.00000e+02
14422	3.03154e+02	1.44220e+04	1.48376e+00	3.00000e+02
14453	3.03161e+02	1.44530e+04	1.48201e+00	3.00000e+02
14484	3.03156e+02	1.44840e+04	1.48068e+00	3.00000e+02
14515	3.03155e+02	1.45150e+04	1.47887e+00	3.00000e+02
14546	3.03162e+02	1.45460e+04	1.47726e+00	3.00000e+02
14577	3.03158e+02	1.45770e+04	1.47575e+00	3.00000e+02
14608	3.03154e+02	1.46080e+04	1.47418e+00	3.00000e+02
14639	3.03159e+02	1.46390e+04	1.47276e+00	3.00000e+02
14670	3.03155e+02	1.46700e+04	1.47101e+00	3.00000e+02
14701	3.03160e+02	1.47010e+04	1.46937e+00	3.00000e+02
14732	3.03154e+02	1.47320e+04	1.46790e+00	3.00000e+02
14763	3.03156e+02	1.47630e+04	1.46636e+00	3.00000e+02
14794	3.03154e+02	1.47940e+04	1.46458e+00	3.00000e+02
14825	3.03157e+02	1.48250e+04	1.46315e+00	3.00000e+02
14856	3.03161e+02	1.48560e+04	1.46158e+00	3.00000e+02
14887	3.03150e+02	1.48870e+04	1.46011e+00	3.00000e+02
14918	3.03158e+02	1.49180e+04	1.45866e+00	3.00000e+02
14949	3.03144e+02	1.49490e+04	1.45696e+00	3.00000e+02
14980	3.03155e+02	1.49800e+04	1.45547e+00	3.00000e+02
15011	3.03158e+02	1.50110e+04	1.45392e+00	3.00000e+02
15042	3.03159e+02	1.50420e+04	1.45248e+00	3.00000e+02
15073	3.03163e+02	1.50730e+04	1.45103e+00	3.00000e+02
15104	3.03172e+02	1.51040e+04	1.44949e+00	3.00000e+02
15135	3.03159e+02	1.51350e+04	1.44811e+00	3.00000e+02
15166	3.03150e+02	1.51660e+04	1.44655e+00	3.00000e+02
15197	3.03162e+02	1.51970e+04	1.44500e+00	3.00000e+02
15228	3.03150e+02	1.52280e+04	1.44339e+00	3.00000e+02
15259	3.03145e+02	1.52590e+04	1.44179e+00	3.00000e+02
15290	3.03149e+02	1.52900e+04	1.44012e+00	3.00000e+02
15321	3.03147e+02	1.53210e+04	1.43861e+00	3.00000e+02
15352	3.03153e+02	1.53520e+04	1.43717e+00	3.00000e+02
15383	3.03155e+02	1.53830e+04	1.43564e+00	3.00000e+02
15414	3.03154e+02	1.54140e+04	1.43424e+00	3.00000e+02
15445	3.03149e+02	1.54450e+04	1.43282e+00	3.00000e+02
15476	3.03155e+02	1.54760e+04	1.43124e+00	3.00000e+02
15507	3.03143e+02	1.55070e+04	1.42968e+00	3.00000e+02
15538	3.03148e+02	1.55380e+04	1.42823e+00	3.00000e+02
15569	3.03159e+02	1.55690e+04	1.42677e+00	3.00000e+02
15600	3.03147e+02	1.56000e+04	1.42529e+00	3.00000e+02
15631	3.03154e+02	1.56310e+04	1.42381e+00	3.00000e+02
15662	3.03142e+02	1.56620e+04	1.42227e+00	3.00000e+02
15693	3.03154e+02	1.56930e+04	1.42098e+00	3.00000e+02
15724	3.03151e+02	1.57240e+04	1.41935e+00	3.00000e+02
15755	3.03154e+02	1.57550e+04	1.41790e+00	3.00000e+02
15786	3.03157e+02	1.57860e+04	1.41646e+00	3.00000e+02
15817	3.03146e+02	1.58170e+04	1.41489e+00	3.00000e+02
15848	3.03150e+02	1.58480e+04	1.41349e+00	3.00000e+02
15879	3.03163e+02	1.58790e+04	1.41181e+00	3.00000e+02
15910	3.03154e+02	1.59100e+04	1.41055e+00	3.00000e+02
15941	3.03148e+02	1.59410e+04	1.40911e+00	3.00000e+02
15972	3.03146e+02	1.59720e+04	1.40769e+00	3.00000e+02
16003	3.03152e+02	1.60030e+04	1.40601e+00	3.00000e+02
16034	3.03154e+02	1.60340e+04	1.40483e+00	3.00000e+02
16065	3.03146e+02	1.60650e+04	1.40342e+00	3.00000e+02
16096	3.03152e+02	1.60960e+04	1.40194e+00	3.00000e+02
16127	3.03154e+02	1.61270e+04	1.40041e+00	3.00000e+02
16158	3.03152e+02	1.61580e+04	1.39892e+00	3.00000e+02
16189	3.03157e+02	1.61890e+04	1.39737e+00	3.00000e+02
16220	3.03162e+02	1.62200e+04	1.39616e+00	3.00000e+02
16251	3.03169e+02	1.62510e+04	1.39465e+00	3.00000e+02
16282	3.03179e+02	1.62820e+04	1.39296e+00	3.00000e+02
16313	3.03173e+02	1.63130e+04	1.39186e+00	3.00000e+02
16344	3.03174e+02	1.63440e+04	1.39041e+00	3.00000e+02
16375	3.03172e+02	1.63750e+04	1.38885e+00	3.00000e+02
16406	3.03186e+02	1.64060e+04	1.38739e+00	3.00000e+02
16437	3.03181e+02	1.64370e+04	1.38604e+00	3.00000e+02
16468	3.03179e+02	1.64680e+04	1.38453e+00	3.00000e+02
16499	3.03167e+02	1.64990e+04	1.38305e+00	3.00000e+02
16530	3.03168e+02	1.65300e+04	1.38194e+00	3.00000e+02
16561	3.03158e+02	1.65610e+04	1.38060e+00	3.00000e+02
16592	3.03151e+02	1.65920e+04	1.37888e+00	3.00000e+02
16623	3.03153e+02	1.66230e+04	1.37759e+00	3.00000e+02
16654	3.03152e+02	1.66540e+04	1.37636e+00	3.00000e+02
16685	3.03159e+02	1.66850e+04	1.37484e+00	3.00000e+02
16716	3.03154e+02	1.67160e+04	1.37343e+00	3.00000e+02
16747	3.03153e+02	1.67470e+04	1.37214e+00	3.00000e+02
16778	3.03150e+02	1.67780e+04	1.37053e+00	3.00000e+02
16809	3.03159e+02	1.68090e+04	1.36938e+00	3.00000e+02
16840	3.03171e+02	1.68400e+04	1.36783e+00	3.00000e+02
16871	3.03181e+02	1.68710e+04	1.36660e+00	3.00000e+02
16902	3.03162e+02	1.69020e+04	1.36509e+00	3.00000e+02
16933	3.03167e+02	1.69330e+04	1.36370e+00	3.00000e+02
16964	3.03161e+02	1.69640e+04	1.36241e+00	3.00000e+02
16995	3.03156e+02	1.69950e+04	1.36093e+00	3.00000e+02
17026	3.03160e+02	1.70260e+04	1.35965e+00	3.00000e+02
17057	3.03162e+02	1.70570e+04	1.35825e+00	3.00000e+02
17088	3.03155e+02	1.70880e+04	1.35683e+00	3.00000e+02
17119	3.03155e+02	1.71190e+04	1.35551e+00	3.00000e+02
17150	3.03164e+02	1.71500e+04	1.35432e+00	3.00000e+02
17181	3.03157e+02	1.71810e+04	1.35264e+00	3.00000e+02
17212	3.03157e+02	1.72120e+04	1.35158e+00	3.00000e+02
17243	3.03156e+02	1.72430e+04	1.35037e+00	3.00000e+02
17274	3.03155e+02	1.72740e+04	1.34892e+00	3.00000e+02
17305	3.03159e+02	1.73050e+04	1.34739e+00	3.00000e+02
17336	3.03146e+02	1.73360e+04	1.34601e+00	3.00000e+02
17367	3.03160e+02	1.73670e+04	1.34482e+00	3.00000e+02
17398	3.03162e+02	1.73980e+04	1.34335e+00	3.00000e+02
17429	3.03144e+02	1.74290e+04	1.34193e+00	3.00000e+02
17460	3.03155e+02	1.74600e+04	1.34065e+00	3.00000e+02
17491	3.03154e+02	1.74910e+04	1.33936e+00	3.00000e+02
17522	3.03150e+02	1.75220e+04	1.33805e+00	3.00000e+02
17553	3.03146e+02	1.75530e+04	1.33669e+00	3.00000e+02
17584	3.03163e+02	1.75840e+04	1.33540e+00	3.00000e+02
17615	3.03147e+02	1.76150e+04	1.33394e+00	3.00000e+02
17646	3.03160e+02	1.76460e+04	1.33274e+00	3.00000e+02
17677	3.03148e+02	1.76770e+04	1.33150e+00	3.00000e+02
17708	3.03154e+02	1.77080e+04	1.33008e+00	3.00000e+02
17739	3.03145e+02	1.77390e+04	1.32861e+00	3.00000e+02
17770	3.03166e+02	1.77700e+04	1.32745e+00	3.00000e+02
17801	3.03162e+02	1.78010e+04	1.32623e+00	3.00000e+02
17832	3.03158e+02	1.78320e+04	1.32469e+00	3.00000e+02
17863	3.03160e+02	1.78630e+04	1.32359e+00	3.00000e+02
17894	3.03165e+02	1.78940e+04	1.32231e+00	3.00000e+02
17925	3.03162e+02	1.79250e+04	1.32132e+00	3.00000e+02
17956	3.03170e+02	1.79560e+04	1.31942e+00	3.00000e+02
17987	3.03167e+02	1.79870e+04	1.31861e+00	3.00000e+02
18018	3.03169e+02	1.80180e+04	1.31745e+00	3.00000e+02
18049	3.03160e+02	1.80490e+04	1.31613e+00	3.00000e+02
18080	3.03165e+02	1.80800e+04	1.31478e+00	3.00000e+02
18111	3.03159e+02	1.81110e+04	1.31335e+00	3.00000e+02
18142	3.03165e+02	1.81420e+04	1.31207e+00	3.00000e+02
18173	3.03164e+02	1.81730e+04	1.31091e+00	3.00000e+02
18204	3.03155e+02	1.82040e+04	1.30942e+00	3.00000e+02
18235	3.03160e+02	1.82350e+04	1.30812e+00	3.00000e+02
18266	3.03171e+02	1.82660e+04	1.30705e+00	3.00000e+02
18297	3.03165e+02	1.82970e+04	1.30564e+00	3.00000e+02
18328	3.03171e+02	1.83280e+04	1.30427e+00	3.00000e+02
18359	3.03166e+02	1.83590e+04	1.30319e+00	3.00000e+02
18390	3.03165e+02	1.83900e+04	1.30170e+00	3.00000e+02
18421	3.03171e+02	1.84210e+04	1.30060e+00	3.00000e+02
18452	3.03167e+02	1.84520e+04	1.29934e+00	3.00000e+02
18483	3.03159e+02	1.84830e+04	1.29830e+00	3.00000e+02
18514	3.03175e+02	1.85140e+04	1.29692e+00	3.00000e+02
18545	3.03175e+02	1.85450e+04	1.29581e+00	3.00000e+02
18576	3.03169e+02	1.85760e+04	1.29442e+00	3.00000e+02
18607	3.03171e+02	1.86070e+04	1.29354e+00	3.00000e+02
18638	3.03178e+02	1.86380e+04	1.29199e+00	3.00000e+02
18669	3.03171e+02	1.86690e+04	1.29096e+00	3.00000e+02
18700	3.03165e+02	1.87000e+04	1.28971e+00	3.00000e+02
18731	3.03168e+02	1.87310e+04	1.28847e+00	3.00000e+02
18762	3.03172e+02	1.87620e+04	1.28713e+00	3.00000e+02
18793	3.03176e+02	1.87930e+04	1.28596e+00	3.00000e+02
18824	3.03164e+02	1.88240e+04	1.28476e+00	3.00000e+02
18855	3.03176e+02	1.88550e+04	1.28336e+00	3.00000e+02
18886	3.03168e+02	1.88860e+04	1.28216e+00	3.00000e+02
18917	3.03163e+02	1.89170e+04	1.28088e+00	3.00000e+02
18948	3.03162e+02	1.89480e+04	1.27982e+00	3.00000e+02
18979	3.03162e+02	1.89790e+04	1.27848e+00	3.00000e+02
19010	3.03160e+02	1.90100e+04	1.27750e+00	3.00000e+02
19041	3.03148e+02	1.90410e+04	1.27615e+00	3.00000e+02
19072	3.03153e+02	1.90720e+04	1.27491e+00	3.00000e+02
19103	3.03158e+02	1.91030e+04	1.27384e+00	3.00000e+02
19134	3.03164e+02	1.91340e+04	1.27256e+00	3.00000e+02
19165	3.03155e+02	1.91650e+04	1.27122e+00	3.00000e+02
19196	3.03164e+02	1.91960e+04	1.27000e+00	3.00000e+02
19227	3.03156e+02	1.92270e+04	1.26891e+00	3.00000e+02
19258	3.03161e+02	1.92580e+04	1.26779e+00	3.00000e+02
19289	3.03172e+02	1.92890e+04	1.26640e+00	3.00000e+02
19320	3.03168e+02	1.93200e+04	1.26565e+00	3.00000e+02
19351	3.03173e+02	1.93510e+04	1.26422e+00	3.00000e+02
19382	3.03158e+02	1.93820e+04	1.26287e+00	3.00000e+02
19413	3.03175e+02	1.94130e+04	1.26167e+00	3.00000e+02
19444	3.03174e+02	1.94440e+04	1.26043e+00	3.00000e+02
19475	3.03160e+02	1.94750e+04	1.25932e+00	3.00000e+02
19506	3.03160e+02	1.95060e+04	1.25811e+00	3.00000e+02
19537	3.03170e+02	1.95370e+04	1.25709e+00	3.00000e+02
19568	3.03163e+02	1.95680e+04	1.25614e+00	3.00000e+02
19599	3.03156e+02	1.95990e+04	1.25476e+00	3.00000e+02
19630	3.03162e+02	1.96300e+04	1.25330e+00	3.00000e+02
19661	3.03173e+02	1.96610e+04	1.25243e+00	3.00000e+02
19692	3.03162e+02	1.96920e+04	1.25133e+00	3.00000e+02
19723	3.03159e+02	1.97230e+04	1.25002e+00	3.00000e+02
19754	3.03164e+02	1.97540e+04	1.24904e+00	3.00000e+02
19785	3.03165e+02	1.97850e+04	1.24762e+00	3.00000e+02
19816	3.03170e+02	1.98160e+04	1.24655e+00	3.00000e+02
19847	3.03165e+02	1.98470e+04	1.24508e+00	3.00000e+02
19878	3.03172e+02	1.98780e+04	1.24417e+00	3.00000e+02
19909	3.03171e+02	1.99090e+04	1.24296e+00	3.00000e+02
19940	3.03157e+02	1.99400e+04	1.24208e+00	3.00000e+02
19971	3.03161e+02	1.99710e+04	1.24086e+00	3.00000e+02
20002	3.03153e+02	2.00020e+04	1.23997e+00	3.00000e+02
20033	3.03175e+02	2.00330e+04	1.23863e+00	3.00000e+02
20064	3.03162e+02	2.00640e+04	1.23782e+00	3.00000e+02
20095	3.03166e+02	2.00950e+04	1.23606e+00	3.00000e+02
20126	3.03169e+02	2.01260e+04	1.23494e+00	3.00000e+02
20157	3.03154e+02	2.01570e+04	1.23425e+00	3.00000e+02
20188	3.03164e+02	2.01880e+04	1.23291e+00	3.00000e+02
20219	3.03163e+02	2.02190e+04	1.23184e+00	3.00000e+02
20250	3.03160e+02	2.02500e+04	1.23078e+00	3.00000e+02
20281	3.03149e+02	2.02810e+04	1.22975e+00	3.00000e+02
20312	3.03151e+02	2.03120e+04	1.22821e+00	3.00000e+02
20343	3.03157e+02	2.03430e+04	1.22715e+00	3.00000e+02
20374	3.03159e+02	2.03740e+04	1.22601e+00	3.00000e+02
20405	3.03153e+02	2.04050e+04	1.22495e+00	3.00000e+02
20436	3.03159e+02	2.04360e+04	1.22367e+00	3.00000e+02
20467	3.03161e+02	2.04670e+04	1.22261e+00	3.00000e+02
20498	3.03175e+02	2.04980e+04	1.22191e+00	3.00000e+02
20529	3.03154e+02	2.05290e+04	1.22015e+00	3.00000e+02
20560	3.03156e+02	2.05600e+04	1.21942e+00	3.00000e+02
20591	3.03154e+02	2.05910e+04	1.21812e+00	3.00000e+02
20622	3.03155e+02	2.06220e+04	1.21716e+00	3.00000e+02
20653	3.03150e+02	2.06530e+04	1.21602e+00	3.00000e+02
20684	3.03160e+02	2.06840e+04	1.21489e+00	3.00000e+02
20715	3.03160e+02	2.07150e+04	1.21372e+00	3.00000e+02
20746	3.03161e+02	2.07460e+04	1.21270e+00	3.00000e+02
20777	3.03163e+02	2.07770e+04	1.21136e+00	3.00000e+02
20808	3.03165e+02	2.08080e+04	1.21052e+00	3.00000e+02
20839	3.03160e+02	2.08390e+04	1.20930e+00	3.00000e+02
20870	3.03156e+02	2.08700e+04	1.20819e+00	3.00000e+02
20901	3.03155e+02	2.09010e+04	1.20714e+00	3.00000e+02
20932	3.03156e+02	2.09320e+04	1.20634e+00	3.00000e+02
20963	3.03161e+02	2.09630e+04	1.20519e+00	3.00000e+02
20994	3.03166e+02	2.09940e+04	1.20415e+00	3.00000e+02
21025	3.03148e+02	2.10250e+04	1.20293e+00	3.00000e+02
21056	3.03153e+02	2.10560e+04	1.20200e+00	3.00000e+02
21087	3.03156e+02	2.10870e+04	1.20116e+00	3.00000e+02
21118	3.03174e+02	2.11180e+04	1.19944e+00	3.00000e+02
21149	3.03160e+02	2.11490e+04	1.19848e+00	3.00000e+02
21180	3.03163e+02	2.11800e+04	1.19750e+00	3.00000e+02
21211	3.03153e+02	2.12110e+04	1.19616e+00	3.00000e+02
21242	3.03162e+02	2.12420e+04	1.19546e+00	3.00000e+02
21273	3.03170e+02	2.12730e+04	1.19410e+00	3.00000e+02
21304	3.03174e+02	2.13040e+04	1.19303e+00	3.00000e+02
21335	3.03159e+02	2.13350e+04	1.19216e+00	3.00000e+02
21366	3.03160e+02	2.13660e+04	1.19107e+00	3.00000e+02
21397	3.03164e+02	2.13970e+04	1.19009e+00	3.00000e+02
21428	3.03174e+02	2.14280e+04	1.18890e+00	3.00000e+02
21459	3.03165e+02	2.14590e+04	1.18779e+00	3.00000e+02
21490	3.03163e+02	2.14900e+04	1.18686e+00	3.00000e+02
21521	3.03163e+02	2.15210e+04	1.18593e+00	3.00000e+02
21552	3.03169e+02	2.15520e+04	1.18488e+00	3.00000e+02
21583	3.03158e+02	2.15830e+04	1.18398e+00	3.00000e+02
21614	3.03175e+02	2.16140e+04	1.18302e+00	3.00000e+02
21645	3.03155e+02	2.16450e+04	1.18183e+00	3.00000e+02
21676	3.03159e+02	2.16760e+04	1.18092e+00	3.00000e+02
21707	3.03157e+02	2.17070e+04	1.17966e+00	3.00000e+02
21738	3.03163e+02	2.17380e+04	1.17883e+00	3.00000e+02
21769	3.03147e+02	2.17690e+04	1.17769e+00	3.00000e+02
21800	3.03163e+02	2.18000e+04	1.17661e+00	3.00000e+02
21831	3.03169e+02	2.18310e+04	1.17548e+00	3.00000e+02
21862	3.03161e+02	2.18620e+04	1.17444e+00	3.00000e+02
21893	3.03156e+02	2.18930e+04	1.17341e+00	3.00000e+02
21924	3.03162e+02	2.19240e+04	1.17227e+00	3.00000e+02
21955	3.03143e+02	2.19550e+04	1.17157e+00	3.00000e+02
21986	3.03152e+02	2.19860e+04	1.17036e+00	3.00000e+02
22017	3.03160e+02	2.20170e+04	1.16947e+00	3.00000e+02
22048	3.03164e+02	2.20480e+04	1.16830e+00	3.00000e+02
22079	3.03160e+02	2.20790e+04	1.16711e+00	3.00000e+02
22110	3.03159e+02	2.21100e+04	1.16615e+00	3.00000e+02
22141	3.03157e+02	2.21410e+04	1.16506e+00	3.00000e+02
22172	3.03155e+02	2.21720e+04	1.16408e+00	3.00000e+02
22203	3.03155e+02	2.22030e+04	1.16304e+00	3.00000e+02
22234	3.03162e+02	2.22340e+04	1.16208e+00	3.00000e+02
22265	3.03162e+02	2.22650e+04	1.16137e+00	3.00000e+02
22296	3.03154e+02	2.22960e+04	1.16011e+00	3.00000e+02
22327	3.03160e+02	2.23270e+04	1.15897e+00	3.00000e+02
22358	3.03162e+02	2.23580e+04	1.15812e+00	3.00000e+02
22389	3.03160e+02	2.23890e+04	1.15707e+00	3.00000e+02
22420	3.03161e+02	2.24200e+04	1.15615e+00	3.00000e+02
22451	3.03163e+02	2.24510e+04	1.15508e+00	3.00000e+02
22482	3.03168e+02	2.24820e+04	1.15410e+00	3.00000e+02
22513	3.03160e+02	2.25130e+04	1.15303e+00	3.00000e+02
22544	3.03148e+02	2.25440e+04	1.15234e+00	3.00000e+02
22575	3.03153e+02	2.25750e+04	1.15107e+00	3.00000e+02
22606	3.03151e+02	2.26060e+04	1.15026e+00	3.00000e+02
22637	3.03159e+02	2.26370e+04	1.14934e+00	3.00000e+02
22668	3.03169e+02	2.26680e+04	1.14827e+00	3.00000e+02
22699	3.03145e+02	2.26990e+04	1.14724e+00	3.00000e+02
22730	3.03157e+02	2.27300e+04	1.14601e+00	3.00000e+02
22761	3.03154e+02	2.27610e+04	1.14505e+00	3.00000e+02
22792	3.03151e+02	2.27920e+04	1.14408e+00	3.00000e+02
22823	3.03165e+02	2.28230e+04	1.14318e+00	3.00000e+02
22854	3.03140e+02	2.28540e+04	1.14206e+00	3.00000e+02
22885	3.03147e+02	2.28850e+04	1.14111e+00	3.00000e+02
22916	3.03145e+02	2.29160e+04	1.14020e+00	3.00000e+02
22947	3.03157e+02	2.29470e+04	1.13913e+00	3.00000e+02
22978	3.03152e+02	2.29780e+04	1.13817e+00	3.00000e+02
23009	3.03162e+02	2.30090e+04	1.13712e+00	3.00000e+02
23040	3.03152e+02	2.30400e+04	1.13601e+00	3.00000e+02
23071	3.03153e+02	2.30710e+04	1.13514e+00	3.00000e+02
23102	3.03156e+02	2.31020e+04	1.13421e+00	3.00000e+02
23133	3.03152e+02	2.31330e+04	1.13349e+00	3.00000e+02
23164	3.03157e+02	2.31640e+04	1.13214e+00	3.00000e+02
23195	3.03155e+02	2.31950e+04	1.13126e+00	3.00000e+02
23226	3.03147e+02	2.32260e+04	1.13027e+00	3.00000e+02
23257	3.03160e+02	2.32570e+04	1.12943e+00	3.00000e+02
23288	3.03151e+02	2.32880e+04	1.12840e+00	3.00000e+02
23319	3.03159e+02	2.33190e+04	1.12726e+00	3.00000e+02
23350	3.03155e+02	2.33500e+04	1.12640e+00	3.00000e+02
23381	3.03144e+02	2.33810e+04	1.12540e+00	3.00000e+02
23412	3.03157e+02	2.34120e+04	1.12463e+00	3.00000e+02
23443	3.03155e+02	2.34430e+04	1.12374e+00	3.00000e+02
23474	3.03154e+02	2.34740e+04	1.12270e+00	3.00000e+02
23505	3.03157e+02	2.35050e+04	1.12174e+00	3.00000e+02
23536	3.03165e+02	2.35360e+04	1.12063e+00	3.00000e+02
23567	3.03165e+02	2.35670e+04	1.11964e+00	3.00000e+02
23598	3.03166e+02	2.35980e+04	1.11895e+00	3.00000e+02
23629	3.03157e+02	2.36290e+04	1.11790e+00	3.00000e+02
23660	3.03165e+02	2.36600e+04	1.11726e+00	3.00000e+02
23691	3.03164e+02	2.36910e+04	1.11622e+00	3.00000e+02
23722	3.03152e+02	2.37220e+04	1.11505e+00	3.00000e+02
23753	3.03163e+02	2.37530e+04	1.11422e+00	3.00000e+02
23784	3.03156e+02	2.37840e+04	1.11321e+00	3.00000e+02
23815	3.03152e+02	2.38150e+04	1.11238e+00	3.00000e+02
23846	3.03146e+02	2.38460e+04	1.11145e+00	3.00000e+02
23877	3.03162e+02	2.38770e+04	1.11061e+00	3.00000e+02
23908	3.03154e+02	2.39080e+04	1.10953e+00	3.00000e+02
23939	3.03164e+02	2.39390e+04	1.10888e+00	3.00000e+02
23970	3.03171e+02	2.39700e+04	1.10788e+00	3.00000e+02
24001	3.03163e+02	2.40010e+04	1.10707e+00	3.00000e+02
24032	3.03156e+02	2.40320e+04	1.10607e+00	3.00000e+02
24063	3.03160e+02	2.40630e+04	1.10524e+00	3.00000e+02
24094	3.03153e+02	2.40940e+04	1.10410e+00	3.00000e+02
24125	3.03149e+02	2.41250e+04	1.10315e+00	3.00000e+02
24156	3.03159e+02	2.41560e+04	1.10231e+00	3.00000e+02
24187	3.03150e+02	2.41870e+04	1.10152e+00	3.00000e+02
24218	3.03160e+02	2.42180e+04	1.10037e+00	3.00000e+02
24249	3.03163e+02	2.42490e+04	1.09975e+00	3.00000e+02
24280	3.03168e+02	2.42800e+04	1.09884e+00	3.00000e+02
24311	3.03156e+02	2.43110e+04	1.09809e+00	3.00000e+02
24342	3.03170e+02	2.43420e+04	1.09703e+00	3.00000e+02
24373	3.03154e+02	2.43730e+04	1.09596e+00	3.00000e+02
24404	3.03158e+02	2.44040e+04	1.09522e+00	3.00000e+02
24435	3.03141e+02	2.44350e+04	1.09425e+00	3.00000e+02
24466	3.03166e+02	2.44660e+04	1.09348e+00	3.00000e+02
24497	3.03152e+02	2.44970e+04	1.09235e+00	3.00000e+02
24528	3.03155e+02	2.45280e+04	1.09135e+00	3.00000e+02
24559	3.03155e+02	2.45590e+04	1.09050e+00	3.00000e+02
24590	3.03160e+02	2.45900e+04	1.08977e+00	3.00000e+02
24621	3.03144e+02	2.46210e+04	1.08864e+00	3.00000e+02
24652	3.03156e+02	2.46520e+04	1.08800e+00	3.00000e+02
24683	3.03157e+02	2.46830e+04	1.08709e+00	3.00000e+02
24714	3.03160e+02	2.47140e+04	1.08619e+00	3.00000e+02
24745	3.03153e+02	2.47450e+04	1.08506e+00	3.00000e+02
24776	3.03156e+02	2.47760e+04	1.08436e+00	3.00000e+02
24807	3.03154e+02	2.48070e+04	1.08354e+00	3.00000e+02
24838	3.03160e+02	2.48380e+04	1.08244e+00	3.00000e+02
24869	3.03153e+02	2.48690e+04	1.08170e+00	3.00000e+02
24900	3.03154e+02	2.49000e+04	1.08081e+00	3.00000e+02
24931	3.03164e+02	2.49310e+04	1.07983e+00	3.00000e+02
24962	3.03155e+02	2.49620e+04	1.07907e+00	3.00000e+02
24993	3.03153e+02	2.49930e+04	1.07822e+00	3.00000e+02
25024	3.03157e+02	2.50240e+04	1.07726e+00	3.00000e+02
25055	3.03156e+02	2.50550e+04	1.07629e+00	3.00000e+02
25086	3.03154e+02	2.50860e+04	1.07541e+00	3.00000e+02
25117	3.03146e+02	2.51170e+04	1.07452e+00	3.00000e+02
25148	3.03153e+02	2.51480e+04	1.07394e+00	3.00000e+02
25179	3.03145e+02	2.51790e+04	1.07273e+00	3.00000e+02
25210	3.03151e+02	2.52100e+04	1.07206e+00	3.00000e+02
25241	3.03153e+02	2.52410e+04	1.07122e+00	3.00000e+02
25272	3.03156e+02	2.52720e+04	1.07048e+00	3.00000e+02
25303	3.03149e+02	2.53030e+04	1.06939e+00	3.00000e+02
25334	3.03156e+02	2.53340e+04	1.06838e+00	3.00000e+02
25365	3.03162e+02	2.53650e+04	1.06783e+00	3.00000e+02
25396	3.03158e+02	2.53960e+04	1.06700e+00	3.00000e+02
25427	3.03152e+02	2.54270e+04	1.06604e+00	3.00000e+02
25458	3.03140e+02	2.54580e+04	1.06501e+00	3.00000e+02
25489	3.03141e+02	2.54890e+04	1.06431e+00	3.00000e+02
25520	3.03157e+02	2.55200e+04	1.06345e+00	3.00000e+02
25551	3.03165e+02	2.55510e+04	1.06265e+00	3.00000e+02
25582	3.03155e+02	2.55820e+04	1.06192e+00	3.00000e+02
25613	3.03156e+02	2.56130e+04	1.06107e+00	3.00000e+02
25644	3.03155e+02	2.56440e+04	1.06005e+00	3.00000e+02
25675	3.03161e+02	2.56750e+04	1.05940e+00	3.00000e+02
25706	3.03153e+02	2.57060e+04	1.05817e+00	3.00000e+02
25737	3.03158e+02	2.57370e+04	1.05763e+00	3.00000e+02
25768	3.03156e+02	2.57680e+04	1.05664e+00	3.00000e+02
25799	3.03162e+02	2.57990e+04	1.05588e+00	3.00000e+02
25830	3.03157e+02	2.58300e+04	1.05498e+00	3.00000e+02
25861	3.03143e+02	2.58610e+04	1.05429e+00	3.00000e+02
25892	3.03146e+02	2.58920e+04	1.05327e+00	3.00000e+02
25923	3.03153e+02	2.59230e+04	1.05242e+00	3.00000e+02
25954	3.03142e+02	2.59540e+04	1.05162e+00	3.00000e+02
25985	3.03144e+02	2.59850e+04	1.05050e+00	3.00000e+02
26016	3.03157e+02	2.60160e+04	1.04989e+00	3.00000e+02
26047	3.03161e+02	2.60470e+04	1.04913e+00	3.00000e+02
26078	3.03155e+02	2.60780e+04	1.04819e+00	3.00000e+02
26109	3.03146e+02	2.61090e+04	1.04735e+00	3.00000e+02
26140	3.03145e+02	2.61400e+04	1.04660e+00	3.00000e+02
26171	3.03146e+02	2.61710e+04	1.04585e+00	3.00000e+02
26202	3.03146e+02	2.62020e+04	1.04470e+00	3.00000e+02
26233	3.03147e+02	2.62330e+04	1.04405e+00	3.00000e+02
26264	3.03151e+02	2.62640e+04	1.04345e+00	3.00000e+02
26295	3.03142e+02	2.62950e+04	1.04218e+00	3.00000e+02
26326	3.03148e+02	2.63260e+04	1.04120e+00	3.00000e+02
26357	3.03152e+02	2.63570e+04	1.04056e+00	3.00000e+02
26388	3.03153e+02	2.63880e+04	1.03967e+00	3.00000e+02
26419	3.03157e+02	2.64190e+04	1.03879e+00	3.00000e+02
26450	3.03152e+02	2.64500e+04	1.03811e+00	3.00000e+02
26481	3.03145e+02	2.64810e+04	1.03734e+00	3.00000e+02
26512	3.03135e+02	2.65120e+04	1.03659e+00	3.00000e+02
26543	3.03146e+02	2.65430e+04	1.03579e+00	3.00000e+02
26574	3.03150e+02	2.65740e+04	1.03486e+00	3.00000e+02
26605	3.03145e+02	2.66050e+04	1.03432e+00	3.00000e+02
26636	3.03143e+02	2.66360e+04	1.03343e+00	3.00000e+02
26667	3.03152e+02	2.66670e+04	1.03246e+00	3.00000e+02
26698	3.03158e+02	2.66980e+04	1.03166e+00	3.00000e+02
26729	3.03150e+02	2.67290e+04	1.03098e+00	3.00000e+02
26760	3.03149e+02	2.67600e+04	1.02975e+00	3.00000e+02
26791	3.03145e+02	2.67910e+04	1.02931e+00	3.00000e+02
26822	3.03151e+02	2.68220e+04	1.02835e+00	3.00000e+02
26853	3.03146e+02	2.68530e+04	1.02754e+00	3.00000e+02
26884	3.03145e+02	2.68840e+04	1.02712e+00	3.00000e+02
26915	3.03136e+02	2.69150e+04	1.02590e+00	3.00000e+02
26946	3.03148e+02	2.69460e+04	1.02509e+00	3.00000e+02
26977	3.03149e+02	2.69770e+04	1.02446e+00	3.00000e+02
27008	3.03146e+02	2.70080e+04	1.02327e+00	3.00000e+02
27039	3.03145e+02	2.70390e+04	1.02273e+00	3.00000e+02
27070	3.03137e+02	2.70700e+04	1.02200e+00	3.00000e+02
27101	3.03136e+02	2.71010e+04	1.02097e+00	3.00000e+02
27132	3.03133e+02	2.71320e+04	1.02048e+00	3.00000e+02
27163	3.03140e+02	2.71630e+04	1.01947e+00	3.00000e+02
27194	3.03132e+02	2.71940e+04	1.01880e+00	3.00000e+02
27225	3.03140e+02	2.72250e+04	1.01805e+00	3.00000e+02
27256	3.03137e+02	2.72560e+04	1.01715e+00	3.00000e+02
27287	3.03132e+02	2.72870e+04	1.01611e+00	3.00000e+02
27318	3.03137e+02	2.73180e+04	1.01548e+00	3.00000e+02
27349	3.03138e+02	2.73490e+04	1.01437e+00	3.00000e+02
27380	3.03135e+02	2.73800e+04	1.01391e+00	3.00000e+02
27411	3.03132e+02	2.74110e+04	1.01308e+00	3.00000e+02
27442	3.03136e+02	2.74420e+04	1.01246e+00	3.00000e+02
27473	3.03140e+02	2.74730e+04	1.01159e+00	3.00000e+02
27504	3.03128e+02	2.75040e+04	1.01076e+00	3.00000e+02
27535	3.03131e+02	2.75350e+04	1.00999e+00	3.00000e+02
27566	3.03131e+02	2.75660e+04	1.00936e+00	3.00000e+02
27597	3.03139e+02	2.75970e+04	1.00844e+00	3.00000e+02
27628	3.03124e+02	2.76280e+04	1.00757e+00	3.00000e+02
27659	3.03118e+02	2.76590e+04	1.00694e+00	3.00000e+02
27690	3.03116e+02	2.76900e+04	1.00612e+00	3.00000e+02
27721	3.03128e+02	2.77210e+04	1.00562e+00	3.00000e+02
27752	3.03111e+02	2.77520e+04	1.00465e+00	3.00000e+02
27783	3.03120e+02	2.77830e+04	1.00375e+00	3.00000e+02
27814	3.03112e+02	2.78140e+04	1.00276e+00	3.00000e+02
27845	3.03113e+02	2.78450e+04	1.00202e+00	3.00000e+02
27876	3.03120e+02	2.78760e+04	1.00129e+00	3.00000e+02
27907	3.03107e+02	2.79070e+04	1.00064e+00	3.00000e+02
27938	3.03108e+02	2.79380e+04	9.99548e-01	3.00000e+02
27969	3.03119e+02	2.79690e+04	9.99032e-01	3.00000e+02
28000	3.03110e+02	2.80000e+04	9.98220e-01	3.00000e+02
28031	3.03124e+02	2.80310e+04	9.97397e-01	3.00000e+02
28062	3.03100e+02	2.80620e+04	9.96869e-01	3.00000e+02
28093	3.03102e+02	2.80930e+04	9.96111e-01	3.00000e+02
28124	3.03117e+02	2.81240e+04	9.95166e-01	3.00000e+02
28155	3.03111e+02	2.81550e+04	9.94883e-01	3.00000e+02
28186	3.03106e+02	2.81860e+04	9.94083e-01	3.00000e+02
28217	3.03090e+02	2.82170e+04	9.92827e-01	3.00000e+02
28248	3.03107e+02	2.82480e+04	9.92259e-01	3.00000e+02
28279	3.03109e+02	2.82790e+04	9.91632e-01	3.00000e+02
28310	3.03106e+02	2.83100e+04	9.90775e-01	3.00000e+02
28341	3.03105e+02	2.83410e+04	9.90062e-01	3.00000e+02
28372	3.03101e+02	2.83720e+04	9.89444e-01	3.00000e+02
28403	3.03103e+02	2.84030e+04	9.88714e-01	3.00000e+02
28434	3.03100e+02	2.84340e+04	9.87784e-01	3.00000e+02
28465	3.03100e+02	2.84650e+04	9.87114e-01	3.00000e+02
28496	3.03092e+02	2.84960e+04	9.86140e-01	3.00000e+02
28527	3.03084e+02	2.85270e+04	9.85480e-01	3.00000e+02
28558	3.03098e+02	2.85580e+04	9.84819e-01	3.00000e+02
28589	3.03093e+02	2.85890e+04	9.83924e-01	3.00000e+02
28620	3.03078e+02	2.86200e+04	9.83408e-01	3.00000e+02
28651	3.03089e+02	2.86510e+04	9.82521e-01	3.00000e+02
28682	3.03093e+02	2.86820e+04	9.82157e-01	3.00000e+02
28713	3.03087e+02	2.87130e+04	9.81206e-01	3.00000e+02
28744	3.03074e+02	2.87440e+04	9.80204e-01	3.00000e+02
28775	3.03083e+02	2.87750e+04	9.79738e-01	3.00000e+02
28806	3.03083e+02	2.88060e+04	9.79165e-01	3.00000e+02
28837	3.03095e+02	2.88370e+04	9.78205e-01	3.00000e+02
28868	3.03092e+02	2.88680e+04	9.77374e-01	3.00000e+02
28899	3.03092e+02	2.88990e+04	9.76652e-01	3.00000e+02
28930	3.03090e+02	2.89300e+04	9.76202e-01	3.00000e+02
28961	3.03073e+02	2.89610e+04	9.75174e-01	3.00000e+02
28992	3.03075e+02	2.89920e+04	9.74711e-01	3.00000e+02
29023	3.03069e+02	2.90230e+04	9.73972e-01	3.00000e+02
29054	3.03077e+02	2.90540e+04	9.73520e-01	3.00000e+02
29085	3.03073e+02	2.90850e+04	9.72479e-01	3.00000e+02
29116	3.03076e+02	2.91160e+04	9.71300e-01	3.00000e+02
29147	3.03083e+02	2.91470e+04	9.71189e-01	3.00000e+02
29178	3.03076e+02	2.91780e+04	9.70177e-01	3.00000e+02
29209	3.03076e+02	2.92090e+04	9.69444e-01	3.00000e+02
29240	3.03087e+02	2.92400e+04	9.69091e-01	3.00000e+02
29271	3.03077e+02	2.92710e+04	9.68409e-01	3.00000e+02
29302	3.03082e+02	2.93020e+04	9.67589e-01	3.00000e+02
29333	3.03079e+02	2.93330e+04	9.66923e-01	3.00000e+02
29364	3.03080e+02	2.93640e+04	9.66009e-01	3.00000e+02
29395	3.03102e+02	2.93950e+04	9.65393e-01	3.00000e+02
29426	3.03090e+02	2.94260e+04	9.64521e-01	3.00000e+02
29457	3.03091e+02	2.94570e+04	9.63832e-01	3.00000e+02
29488	3.03092e+02	2.94880e+04	9.63083e-01	3.00000e+02
29519	3.03087e+02	2.95190e+04	9.62241e-01	3.00000e+02
29550	3.03101e+02	2.95500e+04	9.61555e-01	3.00000e+02
29581	3.03095e+02	2.95810e+04	9.61203e-01	3.00000e+02
29612	3.03092e+02	2.96120e+04	9.60452e-01	3.00000e+02
29643	3.03094e+02	2.96430e+04	9.59847e-01	3.00000e+02
29674	3.03088e+02	2.96740e+04	9.58605e-01	3.00000e+02
29705	3.03084e+02	2.97050e+04	9.57827e-01	3.00000e+02
29731	3.03088e+02	2.97310e+04	9.57672e-01	3.00000e+02