File: Experiments/TUBS/tga_isotherm/tga_isotherm_n2_iso300_piece_3mg_r3.txt
index	ts	t	weight	tr
[#]	[°C]	[s]	[mg]	[°C]
900	1.21641e+02	9.00000e+02	2.94455e+00	9.00000e+01
937	1.81187e+02	9.37000e+02	2.93749e+00	3.00000e+02
968	2.27733e+02	9.68000e+02	2.92815e+00	3.00000e+02
999	2.52559e+02	9.99000e+02	2.90957e+00	3.00000e+02
1030	2.68948e+02	1.03000e+03	2.89159e+00	3.00000e+02
1061	2.80137e+02	1.06100e+03	2.87525e+00	3.00000e+02
1092	2.87914e+02	1.09200e+03	2.85895e+00	3.00000e+02
1123	2.92892e+02	1.12300e+03	2.84194e+00	3.00000e+02
1154	2.96355e+02	1.15400e+03	2.82426e+00	3.00000e+02
1185	2.98634e+02	1.18500e+03	2.80722e+00	3.00000e+02
1216	3.00135e+02	1.21600e+03	2.79203e+00	3.00000e+02
1247	3.01084e+02	1.24700e+03	2.77831e+00	3.00000e+02
1278	3.01765e+02	1.27800e+03	2.76601e+00	3.00000e+02
1309	3.02178e+02	1.30900e+03	2.75497e+00	3.00000e+02
1340	3.02448e+02	1.34000e+03	2.74517e+00	3.00000e+02
1371	3.02638e+02	1.37100e+03	2.73613e+00	3.00000e+02
1402	3.02781e+02	1.40200e+03	2.72789e+00	3.00000e+02
1433	3.02861e+02	1.43300e+03	2.72000e+00	3.00000e+02
1464	3.02918e+02	1.46400e+03	2.71314e+00	3.00000e+02
1495	3.02937e+02	1.49500e+03	2.70621e+00	3.00000e+02
1526	3.02975e+02	1.52600e+03	2.69962e+00	3.00000e+02
1557	3.02980e+02	1.55700e+03	2.69382e+00	3.00000e+02
1588	3.02972e+02	1.58800e+03	2.68728e+00	3.00000e+02
1619	3.02987e+02	1.61900e+03	2.68144e+00	3.00000e+02
1650	3.02990e+02	1.65000e+03	2.67592e+00	3.00000e+02
1681	3.02979e+02	1.68100e+03	2.67021e+00	3.00000e+02
1712	3.02987e+02	1.71200e+03	2.66487e+00	3.00000e+02
1743	3.02975e+02	1.74300e+03	2.65912e+00	3.00000e+02
1774	3.02969e+02	1.77400e+03	2.65450e+00	3.00000e+02
1805	3.02981e+02	1.80500e+03	2.64939e+00	3.00000e+02
1836	3.02978e+02	1.83600e+03	2.64424e+00	3.00000e+02
1867	3.02963e+02	1.86700e+03	2.63920e+00	3.00000e+02
1898	3.02976e+02	1.89800e+03	2.63433e+00	3.00000e+02
1929	3.02969e+02	1.92900e+03	2.62920e+00	3.00000e+02
1960	3.02971e+02	1.96000e+03	2.62447e+00	3.00000e+02
1991	3.02969e+02	1.99100e+03	2.62021e+00	3.00000e+02
2022	3.02972e+02	2.02200e+03	2.61565e+00	3.00000e+02
2053	3.02963e+02	2.05300e+03	2.61037e+00	3.00000e+02
2084	3.02960e+02	2.08400e+03	2.60539e+00	3.00000e+02
2115	3.02955e+02	2.11500e+03	2.60132e+00	3.00000e+02
2146	3.02964e+02	2.14600e+03	2.59613e+00	3.00000e+02
2177	3.02961e+02	2.17700e+03	2.59137e+00	3.00000e+02
2208	3.02959e+02	2.20800e+03	2.58768e+00	3.00000e+02
2239	3.02958e+02	2.23900e+03	2.58283e+00	3.00000e+02
2270	3.02954e+02	2.27000e+03	2.57827e+00	3.00000e+02
2301	3.02958e+02	2.30100e+03	2.57385e+00	3.00000e+02
2332	3.02952e+02	2.33200e+03	2.56961e+00	3.00000e+02
2363	3.02955e+02	2.36300e+03	2.56481e+00	3.00000e+02
2394	3.02948e+02	2.39400e+03	2.56040e+00	3.00000e+02
2425	3.02948e+02	2.42500e+03	2.55606e+00	3.00000e+02
2456	3.02960e+02	2.45600e+03	2.55197e+00	3.00000e+02
2487	3.02948e+02	2.48700e+03	2.54736e+00	3.00000e+02
2518	3.02948e+02	2.51800e+03	2.54331e+00	3.00000e+02
2549	3.02950e+02	2.54900e+03	2.53907e+00	3.00000e+02
2580	3.02941e+02	2.58000e+03	2.53480e+00	3.00000e+02
2611	3.02952e+02	2.61100e+03	2.53044e+00	3.00000e+02
2642	3.02959e+02	2.64200e+03	2.52671e+00	3.00000e+02
2673	3.02946e+02	2.67300e+03	2.52182e+00	3.00000e+02
2704	3.02951e+02	2.70400e+03	2.51785e+00	3.00000e+02
2735	3.02946e+02	2.73500e+03	2.51393e+00	3.00000e+02
2766	3.02944e+02	2.76600e+03	2.50965e+00	3.00000e+02
2797	3.02940e+02	2.79700e+03	2.50571e+00	3.00000e+02
2828	3.02945e+02	2.82800e+03	2.50190e+00	3.00000e+02
2859	3.02941e+02	2.85900e+03	2.49771e+00	3.00000e+02
2890	3.02940e+02	2.89000e+03	2.49375e+00	3.00000e+02
2921	3.02944e+02	2.92100e+03	2.48966e+00	3.00000e+02
2952	3.02939e+02	2.95200e+03	2.48552e+00	3.00000e+02
2983	3.02931e+02	2.98300e+03	2.48099e+00	3.00000e+02
3014	3.02938e+02	3.01400e+03	2.47781e+00	3.00000e+02
3045	3.02932e+02	3.04500e+03	2.47339e+00	3.00000e+02
3076	3.02944e+02	3.07600e+03	2.46945e+00	3.00000e+02
3107	3.02941e+02	3.10700e+03	2.46559e+00	3.00000e+02
3138	3.02941e+02	3.13800e+03	2.46198e+00	3.00000e+02
3169	3.02942e+02	3.16900e+03	2.45780e+00	3.00000e+02
3200	3.02947e+02	3.20000e+03	2.45425e+00	3.00000e+02
3231	3.02948e+02	3.23100e+03	2.45017e+00	3.00000e+02
3262	3.02949e+02	3.26200e+03	2.44655e+00	3.00000e+02
3293	3.02940e+02	3.29300e+03	2.44246e+00	3.00000e+02
3324	3.02935e+02	3.32400e+03	2.43884e+00	3.00000e+02
3355	3.02950e+02	3.35500e+03	2.43485e+00	3.00000e+02
3386	3.02931e+02	3.38600e+03	2.43117e+00	3.00000e+02
3417	3.02935e+02	3.41700e+03	2.42742e+00	3.00000e+02
3448	3.02948e+02	3.44800e+03	2.42296e+00	3.00000e+02
3479	3.02949e+02	3.47900e+03	2.41943e+00	3.00000e+02
3510	3.02944e+02	3.51000e+03	2.41575e+00	3.00000e+02
3541	3.02936e+02	3.54100e+03	2.41209e+00	3.00000e+02
3572	3.02945e+02	3.57200e+03	2.40847e+00	3.00000e+02
3603	3.02939e+02	3.60300e+03	2.40517e+00	3.00000e+02
3634	3.02947e+02	3.63400e+03	2.40110e+00	3.00000e+02
3665	3.02939e+02	3.66500e+03	2.39753e+00	3.00000e+02
3696	3.02931e+02	3.69600e+03	2.39396e+00	3.00000e+02
3727	3.02935e+02	3.72700e+03	2.39001e+00	3.00000e+02
3758	3.02940e+02	3.75800e+03	2.38649e+00	3.00000e+02
3789	3.02932e+02	3.78900e+03	2.38287e+00	3.00000e+02
3820	3.02949e+02	3.82000e+03	2.37914e+00	3.00000e+02
3851	3.02940e+02	3.85100e+03	2.37595e+00	3.00000e+02
3882	3.02935e+02	3.88200e+03	2.37191e+00	3.00000e+02
3913	3.02931e+02	3.91300e+03	2.36821e+00	3.00000e+02
3944	3.02932e+02	3.94400e+03	2.36508e+00	3.00000e+02
3975	3.02940e+02	3.97500e+03	2.36162e+00	3.00000e+02
4006	3.02946e+02	4.00600e+03	2.35779e+00	3.00000e+02
4037	3.02935e+02	4.03700e+03	2.35382e+00	3.00000e+02
4068	3.02950e+02	4.06800e+03	2.35064e+00	3.00000e+02
4099	3.02944e+02	4.09900e+03	2.34709e+00	3.00000e+02
4130	3.02939e+02	4.13000e+03	2.34390e+00	3.00000e+02
4161	3.02941e+02	4.16100e+03	2.34025e+00	3.00000e+02
4192	3.02937e+02	4.19200e+03	2.33698e+00	3.00000e+02
4223	3.02937e+02	4.22300e+03	2.33324e+00	3.00000e+02
4254	3.02927e+02	4.25400e+03	2.32990e+00	3.00000e+02
4285	3.02943e+02	4.28500e+03	2.32655e+00	3.00000e+02
4316	3.02942e+02	4.31600e+03	2.32300e+00	3.00000e+02
4347	3.02944e+02	4.34700e+03	2.31949e+00	3.00000e+02
4378	3.02947e+02	4.37800e+03	2.31637e+00	3.00000e+02
4409	3.02941e+02	4.40900e+03	2.31262e+00	3.00000e+02
4440	3.02952e+02	4.44000e+03	2.30976e+00	3.00000e+02
4471	3.02950e+02	4.47100e+03	2.30566e+00	3.00000e+02
4502	3.02955e+02	4.50200e+03	2.30269e+00	3.00000e+02
4533	3.02936e+02	4.53300e+03	2.29927e+00	3.00000e+02
4564	3.02937e+02	4.56400e+03	2.29624e+00	3.00000e+02
4595	3.02952e+02	4.59500e+03	2.29245e+00	3.00000e+02
4626	3.02953e+02	4.62600e+03	2.28955e+00	3.00000e+02
4657	3.02949e+02	4.65700e+03	2.28585e+00	3.00000e+02
4688	3.02940e+02	4.68800e+03	2.28273e+00	3.00000e+02
4719	3.02942e+02	4.71900e+03	2.27935e+00	3.00000e+02
4750	3.02942e+02	4.75000e+03	2.27639e+00	3.00000e+02
4781	3.02928e+02	4.78100e+03	2.27215e+00	3.00000e+02
4812	3.02939e+02	4.81200e+03	2.26978e+00	3.00000e+02
4843	3.02943e+02	4.84300e+03	2.26671e+00	3.00000e+02
4874	3.02938e+02	4.87400e+03	2.26307e+00	3.00000e+02
4905	3.02951e+02	4.90500e+03	2.26030e+00	3.00000e+02
4936	3.02944e+02	4.93600e+03	2.25677e+00	3.00000e+02
4967	3.02959e+02	4.96700e+03	2.25426e+00	3.00000e+02
4998	3.02950e+02	4.99800e+03	2.25038e+00	3.00000e+02
5029	3.02943e+02	5.02900e+03	2.24713e+00	3.00000e+02
5060	3.02936e+02	5.06000e+03	2.24392e+00	3.00000e+02
5091	3.02937e+02	5.09100e+03	2.24157e+00	3.00000e+02
5122	3.02937e+02	5.12200e+03	2.23769e+00	3.00000e+02
5153	3.02943e+02	5.15300e+03	2.23447e+00	3.00000e+02
5184	3.02940e+02	5.18400e+03	2.23192e+00	3.00000e+02
5215	3.02939e+02	5.21500e+03	2.22826e+00	3.00000e+02
5246	3.02938e+02	5.24600e+03	2.22503e+00	3.00000e+02
5277	3.02941e+02	5.27700e+03	2.22252e+00	3.00000e+02
5308	3.02936e+02	5.30800e+03	2.21901e+00	3.00000e+02
5339	3.02937e+02	5.33900e+03	2.21587e+00	3.00000e+02
5370	3.02933e+02	5.37000e+03	2.21310e+00	3.00000e+02
5401	3.02928e+02	5.40100e+03	2.20980e+00	3.00000e+02
5432	3.02929e+02	5.43200e+03	2.20660e+00	3.00000e+02
5463	3.02929e+02	5.46300e+03	2.20396e+00	3.00000e+02
5494	3.02936e+02	5.49400e+03	2.20089e+00	3.00000e+02
5525	3.02929e+02	5.52500e+03	2.19776e+00	3.00000e+02
5556	3.02936e+02	5.55600e+03	2.19432e+00	3.00000e+02
5587	3.02941e+02	5.58700e+03	2.19176e+00	3.00000e+02
5618	3.02938e+02	5.61800e+03	2.18856e+00	3.00000e+02
5649	3.02938e+02	5.64900e+03	2.18549e+00	3.00000e+02
5680	3.02932e+02	5.68000e+03	2.18280e+00	3.00000e+02
5711	3.02933e+02	5.71100e+03	2.17955e+00	3.00000e+02
5742	3.02939e+02	5.74200e+03	2.17658e+00	3.00000e+02
5773	3.02951e+02	5.77300e+03	2.17364e+00	3.00000e+02
5804	3.02934e+02	5.80400e+03	2.17060e+00	3.00000e+02
5835	3.02937e+02	5.83500e+03	2.16806e+00	3.00000e+02
5866	3.02929e+02	5.86600e+03	2.16496e+00	3.00000e+02
5897	3.02932e+02	5.89700e+03	2.16202e+00	3.00000e+02
5928	3.02929e+02	5.92800e+03	2.15929e+00	3.00000e+02
5959	3.02931e+02	5.95900e+03	2.15626e+00	3.00000e+02
5990	3.02939e+02	5.99000e+03	2.15411e+00	3.00000e+02
6021	3.02937e+02	6.02100e+03	2.15040e+00	3.00000e+02
6052	3.02933e+02	6.05200e+03	2.14770e+00	3.00000e+02
6083	3.02933e+02	6.08300e+03	2.14495e+00	3.00000e+02
6114	3.02939e+02	6.11400e+03	2.14145e+00	3.00000e+02
6145	3.02948e+02	6.14500e+03	2.13898e+00	3.00000e+02
6176	3.02948e+02	6.17600e+03	2.13647e+00	3.00000e+02
6207	3.02956e+02	6.20700e+03	2.13402e+00	3.00000e+02
6238	3.02941e+02	6.23800e+03	2.13045e+00	3.00000e+02
6269	3.02944e+02	6.26900e+03	2.12817e+00	3.00000e+02
6300	3.02939e+02	6.30000e+03	2.12521e+00	3.00000e+02
6331	3.02948e+02	6.33100e+03	2.12207e+00	3.00000e+02
6362	3.02942e+02	6.36200e+03	2.11955e+00	3.00000e+02
6393	3.02937e+02	6.39300e+03	2.11695e+00	3.00000e+02
6424	3.02934e+02	6.42400e+03	2.11402e+00	3.00000e+02
6455	3.02941e+02	6.45500e+03	2.11118e+00	3.00000e+02
6486	3.02927e+02	6.48600e+03	2.10897e+00	3.00000e+02
6517	3.02935e+02	6.51700e+03	2.10608e+00	3.00000e+02
6548	3.02936e+02	6.54800e+03	2.10312e+00	3.00000e+02
6579	3.02931e+02	6.57900e+03	2.10025e+00	3.00000e+02
6610	3.02949e+02	6.61000e+03	2.09762e+00	3.00000e+02
6641	3.02946e+02	6.64100e+03	2.09472e+00	3.00000e+02
6672	3.02948e+02	6.67200e+03	2.09241e+00	3.00000e+02
6703	3.02940e+02	6.70300e+03	2.09006e+00	3.00000e+02
6734	3.02938e+02	6.73400e+03	2.08690e+00	3.00000e+02
6765	3.02934e+02	6.76500e+03	2.08443e+00	3.00000e+02
6796	3.02938e+02	6.79600e+03	2.08165e+00	3.00000e+02
6827	3.02936e+02	6.82700e+03	2.07900e+00	3.00000e+02
6858	3.02946e+02	6.85800e+03	2.07646e+00	3.00000e+02
6889	3.02939e+02	6.88900e+03	2.07396e+00	3.00000e+02
6920	3.02942e+02	6.92000e+03	2.07122e+00	3.00000e+02
6951	3.02943e+02	6.95100e+03	2.06837e+00	3.00000e+02
6982	3.02950e+02	6.98200e+03	2.06592e+00	3.00000e+02
7013	3.02950e+02	7.01300e+03	2.06388e+00	3.00000e+02
7044	3.02947e+02	7.04400e+03	2.06058e+00	3.00000e+02
7075	3.02949e+02	7.07500e+03	2.05823e+00	3.00000e+02
7106	3.02943e+02	7.10600e+03	2.05569e+00	3.00000e+02
7137	3.02936e+02	7.13700e+03	2.05308e+00	3.00000e+02
7168	3.02948e+02	7.16800e+03	2.05047e+00	3.00000e+02
7199	3.02943e+02	7.19900e+03	2.04858e+00	3.00000e+02
7230	3.02935e+02	7.23000e+03	2.04522e+00	3.00000e+02
7261	3.02933e+02	7.26100e+03	2.04266e+00	3.00000e+02
7292	3.02950e+02	7.29200e+03	2.03988e+00	3.00000e+02
7323	3.02945e+02	7.32300e+03	2.03752e+00	3.00000e+02
7354	3.02938e+02	7.35400e+03	2.03511e+00	3.00000e+02
7385	3.02925e+02	7.38500e+03	2.03246e+00	3.00000e+02
7416	3.02944e+02	7.41600e+03	2.02980e+00	3.00000e+02
7447	3.02950e+02	7.44700e+03	2.02818e+00	3.00000e+02
7478	3.02941e+02	7.47800e+03	2.02503e+00	3.00000e+02
7509	3.02950e+02	7.50900e+03	2.02235e+00	3.00000e+02
7540	3.02947e+02	7.54000e+03	2.02008e+00	3.00000e+02
7571	3.02933e+02	7.57100e+03	2.01745e+00	3.00000e+02
7602	3.02946e+02	7.60200e+03	2.01528e+00	3.00000e+02
7633	3.02942e+02	7.63300e+03	2.01252e+00	3.00000e+02
7664	3.02941e+02	7.66400e+03	2.00973e+00	3.00000e+02
7695	3.02948e+02	7.69500e+03	2.00845e+00	3.00000e+02
7726	3.02961e+02	7.72600e+03	2.00473e+00	3.00000e+02
7757	3.02950e+02	7.75700e+03	2.00231e+00	3.00000e+02
7788	3.02937e+02	7.78800e+03	2.00035e+00	3.00000e+02
7819	3.02938e+02	7.81900e+03	1.99771e+00	3.00000e+02
7850	3.02956e+02	7.85000e+03	1.99515e+00	3.00000e+02
7881	3.02943e+02	7.88100e+03	1.99255e+00	3.00000e+02
7912	3.02949e+02	7.91200e+03	1.99034e+00	3.00000e+02
7943	3.02938e+02	7.94300e+03	1.98779e+00	3.00000e+02
7974	3.02941e+02	7.97400e+03	1.98536e+00	3.00000e+02
8005	3.02935e+02	8.00500e+03	1.98311e+00	3.00000e+02
8036	3.02942e+02	8.03600e+03	1.98078e+00	3.00000e+02
8067	3.02933e+02	8.06700e+03	1.97836e+00	3.00000e+02
8098	3.02936e+02	8.09800e+03	1.97625e+00	3.00000e+02
8129	3.02924e+02	8.12900e+03	1.97421e+00	3.00000e+02
8160	3.02937e+02	8.16000e+03	1.97142e+00	3.00000e+02
8191	3.02941e+02	8.19100e+03	1.96901e+00	3.00000e+02
8222	3.02946e+02	8.22200e+03	1.96667e+00	3.00000e+02
8253	3.02931e+02	8.25300e+03	1.96413e+00	3.00000e+02
8284	3.02929e+02	8.28400e+03	1.96183e+00	3.00000e+02
8315	3.02934e+02	8.31500e+03	1.95930e+00	3.00000e+02
8346	3.02943e+02	8.34600e+03	1.95740e+00	3.00000e+02
8377	3.02941e+02	8.37700e+03	1.95495e+00	3.00000e+02
8408	3.02933e+02	8.40800e+03	1.95286e+00	3.00000e+02
8439	3.02934e+02	8.43900e+03	1.95029e+00	3.00000e+02
8470	3.02944e+02	8.47000e+03	1.94787e+00	3.00000e+02
8501	3.02941e+02	8.50100e+03	1.94627e+00	3.00000e+02
8532	3.02941e+02	8.53200e+03	1.94395e+00	3.00000e+02
8563	3.02931e+02	8.56300e+03	1.94056e+00	3.00000e+02
8594	3.02938e+02	8.59400e+03	1.93919e+00	3.00000e+02
8625	3.02927e+02	8.62500e+03	1.93653e+00	3.00000e+02
8656	3.02919e+02	8.65600e+03	1.93410e+00	3.00000e+02
8687	3.02931e+02	8.68700e+03	1.93219e+00	3.00000e+02
8718	3.02930e+02	8.71800e+03	1.92941e+00	3.00000e+02
8749	3.02936e+02	8.74900e+03	1.92767e+00	3.00000e+02
8780	3.02929e+02	8.78000e+03	1.92539e+00	3.00000e+02
8811	3.02937e+02	8.81100e+03	1.92349e+00	3.00000e+02
8842	3.02939e+02	8.84200e+03	1.92006e+00	3.00000e+02
8873	3.02935e+02	8.87300e+03	1.91829e+00	3.00000e+02
8904	3.02940e+02	8.90400e+03	1.91641e+00	3.00000e+02
8935	3.02930e+02	8.93500e+03	1.91438e+00	3.00000e+02
8966	3.02934e+02	8.96600e+03	1.91161e+00	3.00000e+02
8997	3.02930e+02	8.99700e+03	1.90987e+00	3.00000e+02
9028	3.02924e+02	9.02800e+03	1.90762e+00	3.00000e+02
9059	3.02934e+02	9.05900e+03	1.90523e+00	3.00000e+02
9090	3.02931e+02	9.09000e+03	1.90325e+00	3.00000e+02
9121	3.02925e+02	9.12100e+03	1.90114e+00	3.00000e+02
9152	3.02939e+02	9.15200e+03	1.89862e+00	3.00000e+02
9183	3.02936e+02	9.18300e+03	1.89646e+00	3.00000e+02
9214	3.02924e+02	9.21400e+03	1.89443e+00	3.00000e+02
9245	3.02935e+02	9.24500e+03	1.89216e+00	3.00000e+02
9276	3.02935e+02	9.27600e+03	1.89026e+00	3.00000e+02
9307	3.02925e+02	9.30700e+03	1.88809e+00	3.00000e+02
9338	3.02932e+02	9.33800e+03	1.88569e+00	3.00000e+02
9369	3.02934e+02	9.36900e+03	1.88355e+00	3.00000e+02
9400	3.02936e+02	9.40000e+03	1.88133e+00	3.00000e+02
9431	3.02928e+02	9.43100e+03	1.87945e+00	3.00000e+02
9462	3.02925e+02	9.46200e+03	1.87763e+00	3.00000e+02
9493	3.02927e+02	9.49300e+03	1.87531e+00	3.00000e+02
9524	3.02928e+02	9.52400e+03	1.87279e+00	3.00000e+02
9555	3.02925e+02	9.55500e+03	1.87099e+00	3.00000e+02
9586	3.02920e+02	9.58600e+03	1.86880e+00	3.00000e+02
9617	3.02925e+02	9.61700e+03	1.86679e+00	3.00000e+02
9648	3.02934e+02	9.64800e+03	1.86474e+00	3.00000e+02
9679	3.02920e+02	9.67900e+03	1.86215e+00	3.00000e+02
9710	3.02931e+02	9.71000e+03	1.86069e+00	3.00000e+02
9741	3.02924e+02	9.74100e+03	1.85835e+00	3.00000e+02
9772	3.02930e+02	9.77200e+03	1.85640e+00	3.00000e+02
9803	3.02923e+02	9.80300e+03	1.85416e+00	3.00000e+02
9834	3.02931e+02	9.83400e+03	1.85197e+00	3.00000e+02
9865	3.02931e+02	9.86500e+03	1.85015e+00	3.00000e+02
9896	3.02916e+02	9.89600e+03	1.84786e+00	3.00000e+02
9927	3.02923e+02	9.92700e+03	1.84587e+00	3.00000e+02
9958	3.02927e+02	9.95800e+03	1.84409e+00	3.00000e+02
9989	3.02922e+02	9.98900e+03	1.84204e+00	3.00000e+02
10020	3.02921e+02	1.00200e+04	1.83961e+00	3.00000e+02
10051	3.02921e+02	1.00510e+04	1.83774e+00	3.00000e+02
10082	3.02918e+02	1.00820e+04	1.83591e+00	3.00000e+02
10113	3.02926e+02	1.01130e+04	1.83386e+00	3.00000e+02
10144	3.02932e+02	1.01440e+04	1.83163e+00	3.00000e+02
10175	3.02925e+02	1.01750e+04	1.83017e+00	3.00000e+02
10206	3.02915e+02	1.02060e+04	1.82755e+00	3.00000e+02
10237	3.02928e+02	1.02370e+04	1.82600e+00	3.00000e+02
10268	3.02918e+02	1.02680e+04	1.82425e+00	3.00000e+02
10299	3.02919e+02	1.02990e+04	1.82146e+00	3.00000e+02
10330	3.02912e+02	1.03300e+04	1.81970e+00	3.00000e+02
10361	3.02933e+02	1.03610e+04	1.81818e+00	3.00000e+02
10392	3.02928e+02	1.03920e+04	1.81593e+00	3.00000e+02
10423	3.02922e+02	1.04230e+04	1.81429e+00	3.00000e+02
10454	3.02913e+02	1.04540e+04	1.81209e+00	3.00000e+02
10485	3.02918e+02	1.04850e+04	1.80991e+00	3.00000e+02
10516	3.02920e+02	1.05160e+04	1.80832e+00	3.00000e+02
10547	3.02921e+02	1.05470e+04	1.80624e+00	3.00000e+02
10578	3.02921e+02	1.05780e+04	1.80368e+00	3.00000e+02
10609	3.02924e+02	1.06090e+04	1.80232e+00	3.00000e+02
10640	3.02932e+02	1.06400e+04	1.80030e+00	3.00000e+02
10671	3.02928e+02	1.06710e+04	1.79838e+00	3.00000e+02
10702	3.02926e+02	1.07020e+04	1.79634e+00	3.00000e+02
10733	3.02926e+02	1.07330e+04	1.79385e+00	3.00000e+02
10764	3.02920e+02	1.07640e+04	1.79215e+00	3.00000e+02
10795	3.02921e+02	1.07950e+04	1.79031e+00	3.00000e+02
10826	3.02924e+02	1.08260e+04	1.78855e+00	3.00000e+02
10857	3.02932e+02	1.08570e+04	1.78649e+00	3.00000e+02
10888	3.02929e+02	1.08880e+04	1.78413e+00	3.00000e+02
10919	3.02925e+02	1.09190e+04	1.78321e+00	3.00000e+02
10950	3.02924e+02	1.09500e+04	1.78100e+00	3.00000e+02
10981	3.02912e+02	1.09810e+04	1.77869e+00	3.00000e+02
11012	3.02924e+02	1.10120e+04	1.77698e+00	3.00000e+02
11043	3.02918e+02	1.10430e+04	1.77485e+00	3.00000e+02
11074	3.02917e+02	1.10740e+04	1.77331e+00	3.00000e+02
11105	3.02932e+02	1.11050e+04	1.77163e+00	3.00000e+02
11136	3.02925e+02	1.11360e+04	1.76945e+00	3.00000e+02
11167	3.02919e+02	1.11670e+04	1.76768e+00	3.00000e+02
11198	3.02928e+02	1.11980e+04	1.76561e+00	3.00000e+02
11229	3.02931e+02	1.12290e+04	1.76409e+00	3.00000e+02
11260	3.02929e+02	1.12600e+04	1.76247e+00	3.00000e+02
11291	3.02930e+02	1.12910e+04	1.76027e+00	3.00000e+02
11322	3.02928e+02	1.13220e+04	1.75832e+00	3.00000e+02
11353	3.02930e+02	1.13530e+04	1.75640e+00	3.00000e+02
11384	3.02927e+02	1.13840e+04	1.75460e+00	3.00000e+02
11415	3.02928e+02	1.14150e+04	1.75272e+00	3.00000e+02
11446	3.02927e+02	1.14460e+04	1.75072e+00	3.00000e+02
11477	3.02920e+02	1.14770e+04	1.74937e+00	3.00000e+02
11508	3.02930e+02	1.15080e+04	1.74731e+00	3.00000e+02
11539	3.02930e+02	1.15390e+04	1.74579e+00	3.00000e+02
11570	3.02929e+02	1.15700e+04	1.74353e+00	3.00000e+02
11601	3.02926e+02	1.16010e+04	1.74189e+00	3.00000e+02
11632	3.02938e+02	1.16320e+04	1.73991e+00	3.00000e+02
11663	3.02935e+02	1.16630e+04	1.73815e+00	3.00000e+02
11694	3.02930e+02	1.16940e+04	1.73621e+00	3.00000e+02
11725	3.02926e+02	1.17250e+04	1.73469e+00	3.00000e+02
11756	3.02932e+02	1.17560e+04	1.73252e+00	3.00000e+02
11787	3.02938e+02	1.17870e+04	1.73094e+00	3.00000e+02
11818	3.02925e+02	1.18180e+04	1.72940e+00	3.00000e+02
11849	3.02943e+02	1.18490e+04	1.72809e+00	3.00000e+02
11880	3.02926e+02	1.18800e+04	1.72520e+00	3.00000e+02
11911	3.02932e+02	1.19110e+04	1.72408e+00	3.00000e+02
11942	3.02926e+02	1.19420e+04	1.72191e+00	3.00000e+02
11973	3.02927e+02	1.19730e+04	1.72030e+00	3.00000e+02
12004	3.02935e+02	1.20040e+04	1.71848e+00	3.00000e+02
12035	3.02926e+02	1.20350e+04	1.71670e+00	3.00000e+02
12066	3.02925e+02	1.20660e+04	1.71503e+00	3.00000e+02
12097	3.02937e+02	1.20970e+04	1.71310e+00	3.00000e+02
12128	3.02933e+02	1.21280e+04	1.71146e+00	3.00000e+02
12159	3.02936e+02	1.21590e+04	1.70977e+00	3.00000e+02
12190	3.02919e+02	1.21900e+04	1.70777e+00	3.00000e+02
12221	3.02917e+02	1.22210e+04	1.70631e+00	3.00000e+02
12252	3.02929e+02	1.22520e+04	1.70466e+00	3.00000e+02
12283	3.02924e+02	1.22830e+04	1.70264e+00	3.00000e+02
12314	3.02928e+02	1.23140e+04	1.70090e+00	3.00000e+02
12345	3.02924e+02	1.23450e+04	1.69964e+00	3.00000e+02
12376	3.02917e+02	1.23760e+04	1.69806e+00	3.00000e+02
12407	3.02923e+02	1.24070e+04	1.69618e+00	3.00000e+02
12438	3.02919e+02	1.24380e+04	1.69396e+00	3.00000e+02
12469	3.02917e+02	1.24690e+04	1.69261e+00	3.00000e+02
12500	3.02927e+02	1.25000e+04	1.69132e+00	3.00000e+02
12531	3.02911e+02	1.25310e+04	1.68884e+00	3.00000e+02
12562	3.02925e+02	1.25620e+04	1.68763e+00	3.00000e+02
12593	3.02931e+02	1.25930e+04	1.68564e+00	3.00000e+02
12624	3.02906e+02	1.26240e+04	1.68410e+00	3.00000e+02
12655	3.02907e+02	1.26550e+04	1.68234e+00	3.00000e+02
12686	3.02912e+02	1.26860e+04	1.68010e+00	3.00000e+02
12717	3.02916e+02	1.27170e+04	1.67873e+00	3.00000e+02
12748	3.02919e+02	1.27480e+04	1.67707e+00	3.00000e+02
12779	3.02923e+02	1.27790e+04	1.67507e+00	3.00000e+02
12810	3.02916e+02	1.28100e+04	1.67344e+00	3.00000e+02
12841	3.02912e+02	1.28410e+04	1.67180e+00	3.00000e+02
12872	3.02915e+02	1.28720e+04	1.66995e+00	3.00000e+02
12903	3.02920e+02	1.29030e+04	1.66850e+00	3.00000e+02
12934	3.02920e+02	1.29340e+04	1.66685e+00	3.00000e+02
12965	3.02922e+02	1.29650e+04	1.66496e+00	3.00000e+02
12996	3.02915e+02	1.29960e+04	1.66324e+00	3.00000e+02
13027	3.02928e+02	1.30270e+04	1.66198e+00	3.00000e+02
13058	3.02927e+02	1.30580e+04	1.66036e+00	3.00000e+02
13089	3.02931e+02	1.30890e+04	1.65871e+00	3.00000e+02
13120	3.02910e+02	1.31200e+04	1.65680e+00	3.00000e+02
13151	3.02921e+02	1.31510e+04	1.65593e+00	3.00000e+02
13182	3.02929e+02	1.31820e+04	1.65396e+00	3.00000e+02
13213	3.02936e+02	1.32130e+04	1.65173e+00	3.00000e+02
13244	3.02926e+02	1.32440e+04	1.65062e+00	3.00000e+02
13275	3.02914e+02	1.32750e+04	1.64893e+00	3.00000e+02
13306	3.02923e+02	1.33060e+04	1.64731e+00	3.00000e+02
13337	3.02920e+02	1.33370e+04	1.64551e+00	3.00000e+02
13368	3.02913e+02	1.33680e+04	1.64400e+00	3.00000e+02
13399	3.02921e+02	1.33990e+04	1.64231e+00	3.00000e+02
13430	3.02927e+02	1.34300e+04	1.64067e+00	3.00000e+02
13461	3.02915e+02	1.34610e+04	1.63892e+00	3.00000e+02
13492	3.02934e+02	1.34920e+04	1.63743e+00	3.00000e+02
13523	3.02940e+02	1.35230e+04	1.63588e+00	3.00000e+02
13554	3.02924e+02	1.35540e+04	1.63405e+00	3.00000e+02
13585	3.02923e+02	1.35850e+04	1.63289e+00	3.00000e+02
13616	3.02933e+02	1.36160e+04	1.63139e+00	3.00000e+02
13647	3.02922e+02	1.36470e+04	1.62975e+00	3.00000e+02
13678	3.02930e+02	1.36780e+04	1.62758e+00	3.00000e+02
13709	3.02932e+02	1.37090e+04	1.62657e+00	3.00000e+02
13740	3.02932e+02	1.37400e+04	1.62470e+00	3.00000e+02
13771	3.02919e+02	1.37710e+04	1.62278e+00	3.00000e+02
13802	3.02929e+02	1.38020e+04	1.62133e+00	3.00000e+02
13833	3.02922e+02	1.38330e+04	1.61954e+00	3.00000e+02
13864	3.02927e+02	1.38640e+04	1.61803e+00	3.00000e+02
13895	3.02913e+02	1.38950e+04	1.61674e+00	3.00000e+02
13926	3.02931e+02	1.39260e+04	1.61489e+00	3.00000e+02
13957	3.02930e+02	1.39570e+04	1.61374e+00	3.00000e+02
13988	3.02928e+02	1.39880e+04	1.61234e+00	3.00000e+02
14019	3.02922e+02	1.40190e+04	1.61061e+00	3.00000e+02
14050	3.02936e+02	1.40500e+04	1.60939e+00	3.00000e+02
14081	3.02933e+02	1.40810e+04	1.60775e+00	3.00000e+02
14112	3.02925e+02	1.41120e+04	1.60616e+00	3.00000e+02
14143	3.02929e+02	1.41430e+04	1.60473e+00	3.00000e+02
14174	3.02928e+02	1.41740e+04	1.60327e+00	3.00000e+02
14205	3.02941e+02	1.42050e+04	1.60126e+00	3.00000e+02
14236	3.02924e+02	1.42360e+04	1.60010e+00	3.00000e+02
14267	3.02926e+02	1.42670e+04	1.59835e+00	3.00000e+02
14298	3.02924e+02	1.42980e+04	1.59669e+00	3.00000e+02
14329	3.02939e+02	1.43290e+04	1.59521e+00	3.00000e+02
14360	3.02926e+02	1.43600e+04	1.59418e+00	3.00000e+02
14391	3.02928e+02	1.43910e+04	1.59232e+00	3.00000e+02
14422	3.02931e+02	1.44220e+04	1.59123e+00	3.00000e+02
14453	3.02940e+02	1.44530e+04	1.58944e+00	3.00000e+02
14484	3.02938e+02	1.44840e+04	1.58773e+00	3.00000e+02
14515	3.02929e+02	1.45150e+04	1.58612e+00	3.00000e+02
14546	3.02934e+02	1.45460e+04	1.58482e+00	3.00000e+02
14577	3.02932e+02	1.45770e+04	1.58309e+00	3.00000e+02
14608	3.02937e+02	1.46080e+04	1.58186e+00	3.00000e+02
14639	3.02929e+02	1.46390e+04	1.58055e+00	3.00000e+02
14670	3.02924e+02	1.46700e+04	1.57887e+00	3.00000e+02
14701	3.02921e+02	1.47010e+04	1.57735e+00	3.00000e+02
14732	3.02923e+02	1.47320e+04	1.57609e+00	3.00000e+02
14763	3.02930e+02	1.47630e+04	1.57421e+00	3.00000e+02
14794	3.02928e+02	1.47940e+04	1.57252e+00	3.00000e+02
14825	3.02910e+02	1.48250e+04	1.57096e+00	3.00000e+02
14856	3.02923e+02	1.48560e+04	1.56965e+00	3.00000e+02
14887	3.02913e+02	1.48870e+04	1.56844e+00	3.00000e+02
14918	3.02924e+02	1.49180e+04	1.56676e+00	3.00000e+02
14949	3.02928e+02	1.49490e+04	1.56541e+00	3.00000e+02
14980	3.02933e+02	1.49800e+04	1.56378e+00	3.00000e+02
15011	3.02927e+02	1.50110e+04	1.56255e+00	3.00000e+02
15042	3.02931e+02	1.50420e+04	1.56109e+00	3.00000e+02
15073	3.02909e+02	1.50730e+04	1.55961e+00	3.00000e+02
15104	3.02919e+02	1.51040e+04	1.55805e+00	3.00000e+02
15135	3.02929e+02	1.51350e+04	1.55666e+00	3.00000e+02
15166	3.02930e+02	1.51660e+04	1.55527e+00	3.00000e+02
15197	3.02917e+02	1.51970e+04	1.55402e+00	3.00000e+02
15228	3.02924e+02	1.52280e+04	1.55288e+00	3.00000e+02
15259	3.02927e+02	1.52590e+04	1.55092e+00	3.00000e+02
15290	3.02919e+02	1.52900e+04	1.54940e+00	3.00000e+02
15321	3.02910e+02	1.53210e+04	1.54823e+00	3.00000e+02
15352	3.02925e+02	1.53520e+04	1.54696e+00	3.00000e+02
15383	3.02908e+02	1.53830e+04	1.54497e+00	3.00000e+02
15414	3.02926e+02	1.54140e+04	1.54357e+00	3.00000e+02
15445	3.02914e+02	1.54450e+04	1.54232e+00	3.00000e+02
15476	3.02922e+02	1.54760e+04	1.54077e+00	3.00000e+02
15507	3.02934e+02	1.55070e+04	1.53958e+00	3.00000e+02
15538	3.02915e+02	1.55380e+04	1.53803e+00	3.00000e+02
15569	3.02918e+02	1.55690e+04	1.53615e+00	3.00000e+02
15600	3.02918e+02	1.56000e+04	1.53502e+00	3.00000e+02
15631	3.02915e+02	1.56310e+04	1.53390e+00	3.00000e+02
15662	3.02927e+02	1.56620e+04	1.53233e+00	3.00000e+02
15693	3.02913e+02	1.56930e+04	1.53070e+00	3.00000e+02
15724	3.02918e+02	1.57240e+04	1.52958e+00	3.00000e+02
15755	3.02923e+02	1.57550e+04	1.52766e+00	3.00000e+02
15786	3.02920e+02	1.57860e+04	1.52673e+00	3.00000e+02
15817	3.02916e+02	1.58170e+04	1.52537e+00	3.00000e+02
15848	3.02915e+02	1.58480e+04	1.52400e+00	3.00000e+02
15879	3.02926e+02	1.58790e+04	1.52239e+00	3.00000e+02
15910	3.02931e+02	1.59100e+04	1.52104e+00	3.00000e+02
15941	3.02928e+02	1.59410e+04	1.51948e+00	3.00000e+02
15972	3.02926e+02	1.59720e+04	1.51830e+00	3.00000e+02
16003	3.02934e+02	1.60030e+04	1.51652e+00	3.00000e+02
16034	3.02930e+02	1.60340e+04	1.51566e+00	3.00000e+02
16065	3.02923e+02	1.60650e+04	1.51395e+00	3.00000e+02
16096	3.02927e+02	1.60960e+04	1.51250e+00	3.00000e+02
16127	3.02929e+02	1.61270e+04	1.51090e+00	3.00000e+02
16158	3.02933e+02	1.61580e+04	1.50931e+00	3.00000e+02
16189	3.02934e+02	1.61890e+04	1.50809e+00	3.00000e+02
16220	3.02937e+02	1.62200e+04	1.50681e+00	3.00000e+02
16251	3.02929e+02	1.62510e+04	1.50573e+00	3.00000e+02
16282	3.02931e+02	1.62820e+04	1.50403e+00	3.00000e+02
16313	3.02926e+02	1.63130e+04	1.50245e+00	3.00000e+02
16344	3.02932e+02	1.63440e+04	1.50107e+00	3.00000e+02
16375	3.02938e+02	1.63750e+04	1.50031e+00	3.00000e+02
16406	3.02939e+02	1.64060e+04	1.49875e+00	3.00000e+02
16437	3.02933e+02	1.64370e+04	1.49709e+00	3.00000e+02
16468	3.02932e+02	1.64680e+04	1.49580e+00	3.00000e+02
16499	3.02932e+02	1.64990e+04	1.49450e+00	3.00000e+02
16530	3.02940e+02	1.65300e+04	1.49297e+00	3.00000e+02
16561	3.02929e+02	1.65610e+04	1.49193e+00	3.00000e+02
16592	3.02928e+02	1.65920e+04	1.49069e+00	3.00000e+02
16623	3.02921e+02	1.66230e+04	1.48931e+00	3.00000e+02
16654	3.02927e+02	1.66540e+04	1.48777e+00	3.00000e+02
16685	3.02926e+02	1.66850e+04	1.48687e+00	3.00000e+02
16716	3.02926e+02	1.67160e+04	1.48505e+00	3.00000e+02
16747	3.02922e+02	1.67470e+04	1.48418e+00	3.00000e+02
16778	3.02926e+02	1.67780e+04	1.48245e+00	3.00000e+02
16809	3.02925e+02	1.68090e+04	1.48146e+00	3.00000e+02
16840	3.02921e+02	1.68400e+04	1.47931e+00	3.00000e+02
16871	3.02926e+02	1.68710e+04	1.47872e+00	3.00000e+02
16902	3.02925e+02	1.69020e+04	1.47687e+00	3.00000e+02
16933	3.02932e+02	1.69330e+04	1.47559e+00	3.00000e+02
16964	3.02918e+02	1.69640e+04	1.47471e+00	3.00000e+02
16995	3.02921e+02	1.69950e+04	1.47302e+00	3.00000e+02
17026	3.02925e+02	1.70260e+04	1.47233e+00	3.00000e+02
17057	3.02920e+02	1.70570e+04	1.47028e+00	3.00000e+02
17088	3.02923e+02	1.70880e+04	1.46992e+00	3.00000e+02
17119	3.02919e+02	1.71190e+04	1.46799e+00	3.00000e+02
17150	3.02913e+02	1.71500e+04	1.46701e+00	3.00000e+02
17181	3.02918e+02	1.71810e+04	1.46512e+00	3.00000e+02
17212	3.02923e+02	1.72120e+04	1.46425e+00	3.00000e+02
17243	3.02926e+02	1.72430e+04	1.46277e+00	3.00000e+02
17274	3.02917e+02	1.72740e+04	1.46180e+00	3.00000e+02
17305	3.02920e+02	1.73050e+04	1.46005e+00	3.00000e+02
17336	3.02922e+02	1.73360e+04	1.45949e+00	3.00000e+02
17367	3.02924e+02	1.73670e+04	1.45728e+00	3.00000e+02
17398	3.02922e+02	1.73980e+04	1.45625e+00	3.00000e+02
17429	3.02921e+02	1.74290e+04	1.45496e+00	3.00000e+02
17460	3.02921e+02	1.74600e+04	1.45375e+00	3.00000e+02
17491	3.02909e+02	1.74910e+04	1.45238e+00	3.00000e+02
17522	3.02922e+02	1.75220e+04	1.45155e+00	3.00000e+02
17553	3.02924e+02	1.75530e+04	1.44989e+00	3.00000e+02
17584	3.02912e+02	1.75840e+04	1.44876e+00	3.00000e+02
17615	3.02918e+02	1.76150e+04	1.44734e+00	3.00000e+02
17646	3.02914e+02	1.76460e+04	1.44658e+00	3.00000e+02
17677	3.02913e+02	1.76770e+04	1.44517e+00	3.00000e+02
17708	3.02915e+02	1.77080e+04	1.44360e+00	3.00000e+02
17739	3.02906e+02	1.77390e+04	1.44241e+00	3.00000e+02
17770	3.02907e+02	1.77700e+04	1.44119e+00	3.00000e+02
17801	3.02913e+02	1.78010e+04	1.43985e+00	3.00000e+02
17832	3.02906e+02	1.78320e+04	1.43862e+00	3.00000e+02
17863	3.02907e+02	1.78630e+04	1.43774e+00	3.00000e+02
17894	3.02907e+02	1.78940e+04	1.43581e+00	3.00000e+02
17925	3.02910e+02	1.79250e+04	1.43471e+00	3.00000e+02
17956	3.02929e+02	1.79560e+04	1.43424e+00	3.00000e+02
17987	3.02913e+02	1.79870e+04	1.43248e+00	3.00000e+02
18018	3.02909e+02	1.80180e+04	1.43146e+00	3.00000e+02
18049	3.02917e+02	1.80490e+04	1.43005e+00	3.00000e+02
18080	3.02913e+02	1.80800e+04	1.42888e+00	3.00000e+02
18111	3.02917e+02	1.81110e+04	1.42786e+00	3.00000e+02
18142	3.02919e+02	1.81420e+04	1.42606e+00	3.00000e+02
18173	3.02910e+02	1.81730e+04	1.42540e+00	3.00000e+02
18204	3.02906e+02	1.82040e+04	1.42348e+00	3.00000e+02
18235	3.02907e+02	1.82350e+04	1.42267e+00	3.00000e+02
18266	3.02914e+02	1.82660e+04	1.42102e+00	3.00000e+02
18297	3.02913e+02	1.82970e+04	1.42016e+00	3.00000e+02
18328	3.02908e+02	1.83280e+04	1.41882e+00	3.00000e+02
18359	3.02913e+02	1.83590e+04	1.41795e+00	3.00000e+02
18390	3.02908e+02	1.83900e+04	1.41668e+00	3.00000e+02
18421	3.02925e+02	1.84210e+04	1.41537e+00	3.00000e+02
18452	3.02914e+02	1.84520e+04	1.41349e+00	3.00000e+02
18483	3.02919e+02	1.84830e+04	1.41274e+00	3.00000e+02
18514	3.02922e+02	1.85140e+04	1.41229e+00	3.00000e+02
18545	3.02917e+02	1.85450e+04	1.41011e+00	3.00000e+02
18576	3.02907e+02	1.85760e+04	1.40922e+00	3.00000e+02
18607	3.02915e+02	1.86070e+04	1.40770e+00	3.00000e+02
18638	3.02910e+02	1.86380e+04	1.40682e+00	3.00000e+02
18669	3.02908e+02	1.86690e+04	1.40526e+00	3.00000e+02
18700	3.02909e+02	1.87000e+04	1.40432e+00	3.00000e+02
18731	3.02917e+02	1.87310e+04	1.40276e+00	3.00000e+02
18762	3.02912e+02	1.87620e+04	1.40197e+00	3.00000e+02
18793	3.02910e+02	1.87930e+04	1.40083e+00	3.00000e+02
18824	3.02912e+02	1.88240e+04	1.39972e+00	3.00000e+02
18855	3.02912e+02	1.88550e+04	1.39831e+00	3.00000e+02
18886	3.02908e+02	1.88860e+04	1.39696e+00	3.00000e+02
18917	3.02918e+02	1.89170e+04	1.39607e+00	3.00000e+02
18948	3.02895e+02	1.89480e+04	1.39446e+00	3.00000e+02
18979	3.02912e+02	1.89790e+04	1.39349e+00	3.00000e+02
19010	3.02917e+02	1.90100e+04	1.39203e+00	3.00000e+02
19041	3.02906e+02	1.90410e+04	1.39125e+00	3.00000e+02
19072	3.02910e+02	1.90720e+04	1.38985e+00	3.00000e+02
19103	3.02915e+02	1.91030e+04	1.38893e+00	3.00000e+02
19134	3.02910e+02	1.91340e+04	1.38772e+00	3.00000e+02
19165	3.02910e+02	1.91650e+04	1.38666e+00	3.00000e+02
19196	3.02920e+02	1.91960e+04	1.38546e+00	3.00000e+02
19227	3.02919e+02	1.92270e+04	1.38413e+00	3.00000e+02
19258	3.02914e+02	1.92580e+04	1.38334e+00	3.00000e+02
19289	3.02923e+02	1.92890e+04	1.38196e+00	3.00000e+02
19320	3.02893e+02	1.93200e+04	1.38074e+00	3.00000e+02
19351	3.02900e+02	1.93510e+04	1.37967e+00	3.00000e+02
19382	3.02911e+02	1.93820e+04	1.37900e+00	3.00000e+02
19413	3.02901e+02	1.94130e+04	1.37706e+00	3.00000e+02
19444	3.02904e+02	1.94440e+04	1.37601e+00	3.00000e+02
19475	3.02908e+02	1.94750e+04	1.37464e+00	3.00000e+02
19506	3.02903e+02	1.95060e+04	1.37357e+00	3.00000e+02
19537	3.02906e+02	1.95370e+04	1.37245e+00	3.00000e+02
19568	3.02888e+02	1.95680e+04	1.37139e+00	3.00000e+02
19599	3.02889e+02	1.95990e+04	1.36976e+00	3.00000e+02
19630	3.02904e+02	1.96300e+04	1.36903e+00	3.00000e+02
19661	3.02902e+02	1.96610e+04	1.36759e+00	3.00000e+02
19692	3.02906e+02	1.96920e+04	1.36649e+00	3.00000e+02
19723	3.02902e+02	1.97230e+04	1.36539e+00	3.00000e+02
19754	3.02908e+02	1.97540e+04	1.36439e+00	3.00000e+02
19785	3.02911e+02	1.97850e+04	1.36303e+00	3.00000e+02
19816	3.02920e+02	1.98160e+04	1.36163e+00	3.00000e+02
19847	3.02923e+02	1.98470e+04	1.36083e+00	3.00000e+02
19878	3.02917e+02	1.98780e+04	1.35969e+00	3.00000e+02
19909	3.02909e+02	1.99090e+04	1.35851e+00	3.00000e+02
19940	3.02900e+02	1.99400e+04	1.35786e+00	3.00000e+02
19971	3.02907e+02	1.99710e+04	1.35554e+00	3.00000e+02
20002	3.02903e+02	2.00020e+04	1.35510e+00	3.00000e+02
20033	3.02910e+02	2.00330e+04	1.35416e+00	3.00000e+02
20064	3.02903e+02	2.00640e+04	1.35334e+00	3.00000e+02
20095	3.02910e+02	2.00950e+04	1.35168e+00	3.00000e+02
20126	3.02903e+02	2.01260e+04	1.35070e+00	3.00000e+02
20157	3.02914e+02	2.01570e+04	1.34978e+00	3.00000e+02
20188	3.02916e+02	2.01880e+04	1.34866e+00	3.00000e+02
20219	3.02919e+02	2.02190e+04	1.34846e+00	3.00000e+02
20250	3.02915e+02	2.02500e+04	1.34615e+00	3.00000e+02
20281	3.02916e+02	2.02810e+04	1.34550e+00	3.00000e+02
20312	3.02905e+02	2.03120e+04	1.34433e+00	3.00000e+02
20343	3.02895e+02	2.03430e+04	1.34330e+00	3.00000e+02
20374	3.02906e+02	2.03740e+04	1.34198e+00	3.00000e+02
20405	3.02909e+02	2.04050e+04	1.34066e+00	3.00000e+02
20436	3.02896e+02	2.04360e+04	1.33975e+00	3.00000e+02
20467	3.02906e+02	2.04670e+04	1.33879e+00	3.00000e+02
20498	3.02904e+02	2.04980e+04	1.33738e+00	3.00000e+02
20529	3.02907e+02	2.05290e+04	1.33613e+00	3.00000e+02
20560	3.02896e+02	2.05600e+04	1.33548e+00	3.00000e+02
20591	3.02910e+02	2.05910e+04	1.33385e+00	3.00000e+02
20622	3.02904e+02	2.06220e+04	1.33324e+00	3.00000e+02
20653	3.02910e+02	2.06530e+04	1.33213e+00	3.00000e+02
20684	3.02906e+02	2.06840e+04	1.33113e+00	3.00000e+02
20715	3.02905e+02	2.07150e+04	1.32982e+00	3.00000e+02
20746	3.02907e+02	2.07460e+04	1.32917e+00	3.00000e+02
20777	3.02902e+02	2.07770e+04	1.32768e+00	3.00000e+02
20808	3.02904e+02	2.08080e+04	1.32717e+00	3.00000e+02
20839	3.02910e+02	2.08390e+04	1.32549e+00	3.00000e+02
20870	3.02913e+02	2.08700e+04	1.32469e+00	3.00000e+02
20901	3.02914e+02	2.09010e+04	1.32336e+00	3.00000e+02
20932	3.02914e+02	2.09320e+04	1.32287e+00	3.00000e+02
20963	3.02922e+02	2.09630e+04	1.32123e+00	3.00000e+02
20994	3.02913e+02	2.09940e+04	1.31973e+00	3.00000e+02
21025	3.02913e+02	2.10250e+04	1.31980e+00	3.00000e+02
21056	3.02909e+02	2.10560e+04	1.31807e+00	3.00000e+02
21087	3.02917e+02	2.10870e+04	1.31729e+00	3.00000e+02
21118	3.02917e+02	2.11180e+04	1.31570e+00	3.00000e+02
21149	3.02902e+02	2.11490e+04	1.31450e+00	3.00000e+02
21180	3.02900e+02	2.11800e+04	1.31373e+00	3.00000e+02
21211	3.02906e+02	2.12110e+04	1.31236e+00	3.00000e+02
21242	3.02901e+02	2.12420e+04	1.31144e+00	3.00000e+02
21273	3.02911e+02	2.12730e+04	1.31034e+00	3.00000e+02
21304	3.02909e+02	2.13040e+04	1.30952e+00	3.00000e+02
21335	3.02915e+02	2.13350e+04	1.30840e+00	3.00000e+02
21366	3.02913e+02	2.13660e+04	1.30767e+00	3.00000e+02
21397	3.02901e+02	2.13970e+04	1.30646e+00	3.00000e+02
21428	3.02916e+02	2.14280e+04	1.30588e+00	3.00000e+02
21459	3.02906e+02	2.14590e+04	1.30380e+00	3.00000e+02
21490	3.02907e+02	2.14900e+04	1.30343e+00	3.00000e+02
21521	3.02908e+02	2.15210e+04	1.30180e+00	3.00000e+02
21552	3.02909e+02	2.15520e+04	1.30100e+00	3.00000e+02
21583	3.02921e+02	2.15830e+04	1.30066e+00	3.00000e+02
21614	3.02912e+02	2.16140e+04	1.29871e+00	3.00000e+02
21645	3.02919e+02	2.16450e+04	1.29756e+00	3.00000e+02
21676	3.02915e+02	2.16760e+04	1.29674e+00	3.00000e+02
21707	3.02918e+02	2.17070e+04	1.29572e+00	3.00000e+02
21738	3.02919e+02	2.17380e+04	1.29543e+00	3.00000e+02
21769	3.02919e+02	2.17690e+04	1.29335e+00	3.00000e+02
21800	3.02919e+02	2.18000e+04	1.29274e+00	3.00000e+02
21831	3.02913e+02	2.18310e+04	1.29172e+00	3.00000e+02
21862	3.02913e+02	2.18620e+04	1.29058e+00	3.00000e+02
21893	3.02918e+02	2.18930e+04	1.28963e+00	3.00000e+02
21924	3.02922e+02	2.19240e+04	1.28820e+00	3.00000e+02
21955	3.02908e+02	2.19550e+04	1.28689e+00	3.00000e+02
21986	3.02909e+02	2.19860e+04	1.28626e+00	3.00000e+02
22017	3.02917e+02	2.20170e+04	1.28502e+00	3.00000e+02
22048	3.02919e+02	2.20480e+04	1.28413e+00	3.00000e+02
22079	3.02918e+02	2.20790e+04	1.28326e+00	3.00000e+02
22110	3.02923e+02	2.21100e+04	1.28224e+00	3.00000e+02
22141	3.02933e+02	2.21410e+04	1.28114e+00	3.00000e+02
22172	3.02923e+02	2.21720e+04	1.28062e+00	3.00000e+02
22203	3.02918e+02	2.22030e+04	1.27930e+00	3.00000e+02
22234	3.02915e+02	2.22340e+04	1.27813e+00	3.00000e+02
22265	3.02923e+02	2.22650e+04	1.27742e+00	3.00000e+02
22296	3.02913e+02	2.22960e+04	1.27634e+00	3.00000e+02
22327	3.02908e+02	2.23270e+04	1.27534e+00	3.00000e+02
22358	3.02906e+02	2.23580e+04	1.27392e+00	3.00000e+02
22389	3.02917e+02	2.23890e+04	1.27306e+00	3.00000e+02
22420	3.02925e+02	2.24200e+04	1.27265e+00	3.00000e+02
22451	3.02915e+02	2.24510e+04	1.27119e+00	3.00000e+02
22482	3.02909e+02	2.24820e+04	1.27051e+00	3.00000e+02
22513	3.02920e+02	2.25130e+04	1.26940e+00	3.00000e+02
22544	3.02912e+02	2.25440e+04	1.26826e+00	3.00000e+02
22575	3.02906e+02	2.25750e+04	1.26711e+00	3.00000e+02
22606	3.02902e+02	2.26060e+04	1.26659e+00	3.00000e+02
22637	3.02916e+02	2.26370e+04	1.26492e+00	3.00000e+02
22668	3.02915e+02	2.26680e+04	1.26374e+00	3.00000e+02
22699	3.02913e+02	2.26990e+04	1.26285e+00	3.00000e+02
22730	3.02908e+02	2.27300e+04	1.26213e+00	3.00000e+02
22761	3.02915e+02	2.27610e+04	1.26123e+00	3.00000e+02
22792	3.02911e+02	2.27920e+04	1.26001e+00	3.00000e+02
22823	3.02923e+02	2.28230e+04	1.25948e+00	3.00000e+02
22854	3.02906e+02	2.28540e+04	1.25760e+00	3.00000e+02
22885	3.02922e+02	2.28850e+04	1.25659e+00	3.00000e+02
22916	3.02912e+02	2.29160e+04	1.25569e+00	3.00000e+02
22947	3.02916e+02	2.29470e+04	1.25513e+00	3.00000e+02
22978	3.02917e+02	2.29780e+04	1.25420e+00	3.00000e+02
23009	3.02906e+02	2.30090e+04	1.25303e+00	3.00000e+02
23040	3.02909e+02	2.30400e+04	1.25208e+00	3.00000e+02
23071	3.02920e+02	2.30710e+04	1.25129e+00	3.00000e+02
23102	3.02930e+02	2.31020e+04	1.25000e+00	3.00000e+02
23133	3.02921e+02	2.31330e+04	1.24901e+00	3.00000e+02
23164	3.02935e+02	2.31640e+04	1.24814e+00	3.00000e+02
23195	3.02929e+02	2.31950e+04	1.24681e+00	3.00000e+02
23226	3.02925e+02	2.32260e+04	1.24590e+00	3.00000e+02
23257	3.02927e+02	2.32570e+04	1.24520e+00	3.00000e+02
23288	3.02925e+02	2.32880e+04	1.24436e+00	3.00000e+02
23319	3.02922e+02	2.33190e+04	1.24298e+00	3.00000e+02
23350	3.02916e+02	2.33500e+04	1.24224e+00	3.00000e+02
23381	3.02924e+02	2.33810e+04	1.24110e+00	3.00000e+02
23412	3.02919e+02	2.34120e+04	1.24024e+00	3.00000e+02
23443	3.02928e+02	2.34430e+04	1.23935e+00	3.00000e+02
23474	3.02926e+02	2.34740e+04	1.23820e+00	3.00000e+02
23505	3.02924e+02	2.35050e+04	1.23743e+00	3.00000e+02
23536	3.02920e+02	2.35360e+04	1.23674e+00	3.00000e+02
23567	3.02939e+02	2.35670e+04	1.23552e+00	3.00000e+02
23598	3.02927e+02	2.35980e+04	1.23487e+00	3.00000e+02
23629	3.02919e+02	2.36290e+04	1.23345e+00	3.00000e+02
23660	3.02924e+02	2.36600e+04	1.23259e+00	3.00000e+02
23691	3.02922e+02	2.36910e+04	1.23143e+00	3.00000e+02
23722	3.02929e+02	2.37220e+04	1.23100e+00	3.00000e+02
23753	3.02930e+02	2.37530e+04	1.22983e+00	3.00000e+02
23784	3.02934e+02	2.37840e+04	1.22898e+00	3.00000e+02
23815	3.02921e+02	2.38150e+04	1.22814e+00	3.00000e+02
23846	3.02930e+02	2.38460e+04	1.22688e+00	3.00000e+02
23877	3.02939e+02	2.38770e+04	1.22592e+00	3.00000e+02
23908	3.02926e+02	2.39080e+04	1.22522e+00	3.00000e+02
23939	3.02931e+02	2.39390e+04	1.22390e+00	3.00000e+02
23970	3.02923e+02	2.39700e+04	1.22319e+00	3.00000e+02
24001	3.02921e+02	2.40010e+04	1.22205e+00	3.00000e+02
24032	3.02932e+02	2.40320e+04	1.22120e+00	3.00000e+02
24063	3.02927e+02	2.40630e+04	1.22032e+00	3.00000e+02
24094	3.02927e+02	2.40940e+04	1.21904e+00	3.00000e+02
24125	3.02929e+02	2.41250e+04	1.21846e+00	3.00000e+02
24156	3.02931e+02	2.41560e+04	1.21733e+00	3.00000e+02
24187	3.02922e+02	2.41870e+04	1.21610e+00	3.00000e+02
24218	3.02922e+02	2.42180e+04	1.21533e+00	3.00000e+02
24249	3.02933e+02	2.42490e+04	1.21448e+00	3.00000e+02
24280	3.02921e+02	2.42800e+04	1.21329e+00	3.00000e+02
24311	3.02922e+02	2.43110e+04	1.21266e+00	3.00000e+02
24342	3.02922e+02	2.43420e+04	1.21172e+00	3.00000e+02
24373	3.02918e+02	2.43730e+04	1.21058e+00	3.00000e+02
24404	3.02923e+02	2.44040e+04	1.20946e+00	3.00000e+02
24435	3.02938e+02	2.44350e+04	1.20908e+00	3.00000e+02
24466	3.02918e+02	2.44660e+04	1.20782e+00	3.00000e+02
24497	3.02935e+02	2.44970e+04	1.20658e+00	3.00000e+02
24528	3.02921e+02	2.45280e+04	1.20558e+00	3.00000e+02
24559	3.02912e+02	2.45590e+04	1.20503e+00	3.00000e+02
24590	3.02917e+02	2.45900e+04	1.20393e+00	3.00000e+02
24621	3.02916e+02	2.46210e+04	1.20251e+00	3.00000e+02
24652	3.02923e+02	2.46520e+04	1.20190e+00	3.00000e+02
24683	3.02916e+02	2.46830e+04	1.20120e+00	3.00000e+02
24714	3.02922e+02	2.47140e+04	1.20042e+00	3.00000e+02
24745	3.02911e+02	2.47450e+04	1.19930e+00	3.00000e+02
24776	3.02914e+02	2.47760e+04	1.19862e+00	3.00000e+02
24807	3.02923e+02	2.48070e+04	1.19751e+00	3.00000e+02
24838	3.02928e+02	2.48380e+04	1.19641e+00	3.00000e+02
24869	3.02924e+02	2.48690e+04	1.19591e+00	3.00000e+02
24900	3.02915e+02	2.49000e+04	1.19437e+00	3.00000e+02
24931	3.02928e+02	2.49310e+04	1.19385e+00	3.00000e+02
24962	3.02913e+02	2.49620e+04	1.19324e+00	3.00000e+02
24993	3.02914e+02	2.49930e+04	1.19218e+00	3.00000e+02
25024	3.02910e+02	2.50240e+04	1.19098e+00	3.00000e+02
25055	3.02914e+02	2.50550e+04	1.19043e+00	3.00000e+02
25086	3.02914e+02	2.50860e+04	1.18881e+00	3.00000e+02
25117	3.02912e+02	2.51170e+04	1.18859e+00	3.00000e+02
25148	3.02910e+02	2.51480e+04	1.18882e+00	3.00000e+02
25179	3.02924e+02	2.51790e+04	1.18651e+00	3.00000e+02
25210	3.02919e+02	2.52100e+04	1.18582e+00	3.00000e+02
25241	3.02922e+02	2.52410e+04	1.18493e+00	3.00000e+02
25272	3.02907e+02	2.52720e+04	1.18367e+00	3.00000e+02
25303	3.02903e+02	2.53030e+04	1.18294e+00	3.00000e+02
25334	3.02906e+02	2.53340e+04	1.18215e+00	3.00000e+02
25365	3.02904e+02	2.53650e+04	1.18107e+00	3.00000e+02
25396	3.02913e+02	2.53960e+04	1.18005e+00	3.00000e+02
25427	3.02912e+02	2.54270e+04	1.17868e+00	3.00000e+02
25458	3.02906e+02	2.54580e+04	1.17875e+00	3.00000e+02
25489	3.02914e+02	2.54890e+04	1.17772e+00	3.00000e+02
25520	3.02905e+02	2.55200e+04	1.17679e+00	3.00000e+02
25551	3.02912e+02	2.55510e+04	1.17596e+00	3.00000e+02
25582	3.02899e+02	2.55820e+04	1.17498e+00	3.00000e+02
25613	3.02914e+02	2.56130e+04	1.17456e+00	3.00000e+02
25644	3.02915e+02	2.56440e+04	1.17337e+00	3.00000e+02
25675	3.02918e+02	2.56750e+04	1.17266e+00	3.00000e+02
25706	3.02918e+02	2.57060e+04	1.17195e+00	3.00000e+02
25737	3.02921e+02	2.57370e+04	1.17064e+00	3.00000e+02
25768	3.02919e+02	2.57680e+04	1.16994e+00	3.00000e+02
25799	3.02911e+02	2.57990e+04	1.16903e+00	3.00000e+02
25830	3.02903e+02	2.58300e+04	1.16786e+00	3.00000e+02
25861	3.02918e+02	2.58610e+04	1.16726e+00	3.00000e+02
25892	3.02910e+02	2.58920e+04	1.16668e+00	3.00000e+02
25923	3.02918e+02	2.59230e+04	1.16557e+00	3.00000e+02
25954	3.02915e+02	2.59540e+04	1.16450e+00	3.00000e+02
25985	3.02914e+02	2.59850e+04	1.16396e+00	3.00000e+02
26016	3.02913e+02	2.60160e+04	1.16315e+00	3.00000e+02
26047	3.02908e+02	2.60470e+04	1.16184e+00	3.00000e+02
26078	3.02908e+02	2.60780e+04	1.16113e+00	3.00000e+02
26109	3.02907e+02	2.61090e+04	1.16050e+00	3.00000e+02
26140	3.02908e+02	2.61400e+04	1.15940e+00	3.00000e+02
26171	3.02908e+02	2.61710e+04	1.15842e+00	3.00000e+02
26202	3.02906e+02	2.62020e+04	1.15783e+00	3.00000e+02
26233	3.02903e+02	2.62330e+04	1.15683e+00	3.00000e+02
26264	3.02889e+02	2.62640e+04	1.15601e+00	3.00000e+02
26295	3.02905e+02	2.62950e+04	1.15493e+00	3.00000e+02
26326	3.02907e+02	2.63260e+04	1.15424e+00	3.00000e+02
26357	3.02902e+02	2.63570e+04	1.15351e+00	3.00000e+02
26388	3.02909e+02	2.63880e+04	1.15213e+00	3.00000e+02
26419	3.02910e+02	2.64190e+04	1.15152e+00	3.00000e+02
26450	3.02912e+02	2.64500e+04	1.15049e+00	3.00000e+02
26481	3.02901e+02	2.64810e+04	1.15042e+00	3.00000e+02
26512	3.02902e+02	2.65120e+04	1.14915e+00	3.00000e+02
26543	3.02898e+02	2.65430e+04	1.14813e+00	3.00000e+02
26574	3.02903e+02	2.65740e+04	1.14773e+00	3.00000e+02
26605	3.02915e+02	2.66050e+04	1.14673e+00	3.00000e+02
26636	3.02912e+02	2.66360e+04	1.14620e+00	3.00000e+02
26667	3.02916e+02	2.66670e+04	1.14512e+00	3.00000e+02
26698	3.02898e+02	2.66980e+04	1.14383e+00	3.00000e+02
26729	3.02909e+02	2.67290e+04	1.14375e+00	3.00000e+02
26760	3.02913e+02	2.67600e+04	1.14222e+00	3.00000e+02
26791	3.02899e+02	2.67910e+04	1.14132e+00	3.00000e+02
26822	3.02907e+02	2.68220e+04	1.14051e+00	3.00000e+02
26853	3.02897e+02	2.68530e+04	1.13965e+00	3.00000e+02
26884	3.02897e+02	2.68840e+04	1.13909e+00	3.00000e+02
26915	3.02912e+02	2.69150e+04	1.13823e+00	3.00000e+02
26946	3.02902e+02	2.69460e+04	1.13736e+00	3.00000e+02
26977	3.02906e+02	2.69770e+04	1.13643e+00	3.00000e+02
27008	3.02900e+02	2.70080e+04	1.13567e+00	3.00000e+02
27039	3.02915e+02	2.70390e+04	1.13490e+00	3.00000e+02
27070	3.02911e+02	2.70700e+04	1.13377e+00	3.00000e+02
27101	3.02906e+02	2.71010e+04	1.13301e+00	3.00000e+02
27132	3.02906e+02	2.71320e+04	1.13253e+00	3.00000e+02
27163	3.02903e+02	2.71630e+04	1.13160e+00	3.00000e+02
27194	3.02901e+02	2.71940e+04	1.13056e+00	3.00000e+02
27225	3.02899e+02	2.72250e+04	1.12983e+00	3.00000e+02
27256	3.02899e+02	2.72560e+04	1.12866e+00	3.00000e+02
27287	3.02902e+02	2.72870e+04	1.12822e+00	3.00000e+02
27318	3.02907e+02	2.73180e+04	1.12722e+00	3.00000e+02
27349	3.02908e+02	2.73490e+04	1.12618e+00	3.00000e+02
27380	3.02909e+02	2.73800e+04	1.12550e+00	3.00000e+02
27411	3.02909e+02	2.74110e+04	1.12478e+00	3.00000e+02
27442	3.02907e+02	2.74420e+04	1.12382e+00	3.00000e+02
27473	3.02910e+02	2.74730e+04	1.12327e+00	3.00000e+02
27504	3.02907e+02	2.75040e+04	1.12190e+00	3.00000e+02
27535	3.02904e+02	2.75350e+04	1.12125e+00	3.00000e+02
27566	3.02909e+02	2.75660e+04	1.12043e+00	3.00000e+02
27597	3.02910e+02	2.75970e+04	1.11972e+00	3.00000e+02
27628	3.02904e+02	2.76280e+04	1.11861e+00	3.00000e+02
27659	3.02908e+02	2.76590e+04	1.11816e+00	3.00000e+02
27690	3.02908e+02	2.76900e+04	1.11714e+00	3.00000e+02
27721	3.02894e+02	2.77210e+04	1.11645e+00	3.00000e+02
27752	3.02910e+02	2.77520e+04	1.11562e+00	3.00000e+02
27783	3.02898e+02	2.77830e+04	1.11457e+00	3.00000e+02
27814	3.02910e+02	2.78140e+04	1.11393e+00	3.00000e+02
27845	3.02902e+02	2.78450e+04	1.11325e+00	3.00000e+02
27876	3.02906e+02	2.78760e+04	1.11227e+00	3.00000e+02
27907	3.02904e+02	2.79070e+04	1.11151e+00	3.00000e+02
27938	3.02914e+02	2.79380e+04	1.11121e+00	3.00000e+02
27969	3.02914e+02	2.79690e+04	1.10985e+00	3.00000e+02
28000	3.02911e+02	2.80000e+04	1.10882e+00	3.00000e+02
28031	3.02915e+02	2.80310e+04	1.10833e+00	3.00000e+02
28062	3.02905e+02	2.80620e+04	1.10753e+00	3.00000e+02
28093	3.02911e+02	2.80930e+04	1.10658e+00	3.00000e+02
28124	3.02908e+02	2.81240e+04	1.10577e+00	3.00000e+02
28155	3.02905e+02	2.81550e+04	1.10543e+00	3.00000e+02
28186	3.02899e+02	2.81860e+04	1.10421e+00	3.00000e+02
28217	3.02896e+02	2.82170e+04	1.10330e+00	3.00000e+02
28248	3.02895e+02	2.82480e+04	1.10275e+00	3.00000e+02
28279	3.02915e+02	2.82790e+04	1.10192e+00	3.00000e+02
28310	3.02901e+02	2.83100e+04	1.10096e+00	3.00000e+02
28341	3.02903e+02	2.83410e+04	1.10038e+00	3.00000e+02
28372	3.02893e+02	2.83720e+04	1.09938e+00	3.00000e+02
28403	3.02896e+02	2.84030e+04	1.09867e+00	3.00000e+02
28434	3.02885e+02	2.84340e+04	1.09843e+00	3.00000e+02
28465	3.02890e+02	2.84650e+04	1.09692e+00	3.00000e+02
28496	3.02886e+02	2.84960e+04	1.09670e+00	3.00000e+02
28527	3.02879e+02	2.85270e+04	1.09546e+00	3.00000e+02
28558	3.02892e+02	2.85580e+04	1.09463e+00	3.00000e+02
28589	3.02898e+02	2.85890e+04	1.09391e+00	3.00000e+02
28620	3.02894e+02	2.86200e+04	1.09318e+00	3.00000e+02
28651	3.02896e+02	2.86510e+04	1.09229e+00	3.00000e+02
28682	3.02889e+02	2.86820e+04	1.09176e+00	3.00000e+02
28713	3.02882e+02	2.87130e+04	1.09083e+00	3.00000e+02
28744	3.02897e+02	2.87440e+04	1.09011e+00	3.00000e+02
28775	3.02893e+02	2.87750e+04	1.08923e+00	3.00000e+02
28806	3.02898e+02	2.88060e+04	1.08854e+00	3.00000e+02
28837	3.02900e+02	2.88370e+04	1.08780e+00	3.00000e+02
28868	3.02880e+02	2.88680e+04	1.08678e+00	3.00000e+02
28899	3.02887e+02	2.88990e+04	1.08614e+00	3.00000e+02
28930	3.02883e+02	2.89300e+04	1.08535e+00	3.00000e+02
28961	3.02889e+02	2.89610e+04	1.08437e+00	3.00000e+02
28992	3.02885e+02	2.89920e+04	1.08400e+00	3.00000e+02
29023	3.02897e+02	2.90230e+04	1.08310e+00	3.00000e+02
29054	3.02892e+02	2.90540e+04	1.08236e+00	3.00000e+02
29085	3.02880e+02	2.90850e+04	1.08125e+00	3.00000e+02
29116	3.02867e+02	2.91160e+04	1.08065e+00	3.00000e+02
29147	3.02878e+02	2.91470e+04	1.08013e+00	3.00000e+02
29178	3.02876e+02	2.91780e+04	1.07943e+00	3.00000e+02
29209	3.02869e+02	2.92090e+04	1.07845e+00	3.00000e+02
29240	3.02863e+02	2.92400e+04	1.07782e+00	3.00000e+02
29271	3.02866e+02	2.92710e+04	1.07696e+00	3.00000e+02
29302	3.02880e+02	2.93020e+04	1.07619e+00	3.00000e+02
29333	3.02864e+02	2.93330e+04	1.07565e+00	3.00000e+02
29364	3.02866e+02	2.93640e+04	1.07490e+00	3.00000e+02
29395	3.02878e+02	2.93950e+04	1.07413e+00	3.00000e+02
29426	3.02871e+02	2.94260e+04	1.07313e+00	3.00000e+02
29457	3.02869e+02	2.94570e+04	1.07246e+00	3.00000e+02
29488	3.02884e+02	2.94880e+04	1.07164e+00	3.00000e+02
29519	3.02876e+02	2.95190e+04	1.07088e+00	3.00000e+02
29550	3.02868e+02	2.95500e+04	1.06999e+00	3.00000e+02
29581	3.02868e+02	2.95810e+04	1.06925e+00	3.00000e+02
29612	3.02879e+02	2.96120e+04	1.06864e+00	3.00000e+02
29643	3.02858e+02	2.96430e+04	1.06779e+00	3.00000e+02
29674	3.02837e+02	2.96740e+04	1.06697e+00	3.00000e+02
29705	3.02859e+02	2.97050e+04	1.06611e+00	3.00000e+02
29731	3.02854e+02	2.97310e+04	1.06569e+00	3.00000e+02