File: Experiments/TUBS/tga_isotherm/tga_isotherm_n2_iso320_powder_3mg_r3.txt
index	ts	t	weight	tr
[#]	[°C]	[s]	[mg]	[°C]
900	1.22247e+02	9.00000e+02	3.04620e+00	9.00000e+01
935	1.77129e+02	9.35000e+02	3.02672e+00	3.20000e+02
966	2.28485e+02	9.66000e+02	2.93072e+00	3.20000e+02
997	2.60374e+02	9.97000e+02	2.90545e+00	3.20000e+02
1028	2.81854e+02	1.02800e+03	2.88938e+00	3.20000e+02
1059	2.96013e+02	1.05900e+03	2.86319e+00	3.20000e+02
1090	3.05710e+02	1.09000e+03	2.82137e+00	3.20000e+02
1121	3.11966e+02	1.12100e+03	2.77870e+00	3.20000e+02
1152	3.15976e+02	1.15200e+03	2.74357e+00	3.20000e+02
1183	3.18612e+02	1.18300e+03	2.71178e+00	3.20000e+02
1214	3.20335e+02	1.21400e+03	2.67991e+00	3.20000e+02
1245	3.21454e+02	1.24500e+03	2.64763e+00	3.20000e+02
1276	3.22150e+02	1.27600e+03	2.61559e+00	3.20000e+02
1307	3.22615e+02	1.30700e+03	2.58351e+00	3.20000e+02
1338	3.22929e+02	1.33800e+03	2.55161e+00	3.20000e+02
1369	3.23153e+02	1.36900e+03	2.52094e+00	3.20000e+02
1400	3.23281e+02	1.40000e+03	2.49040e+00	3.20000e+02
1431	3.23345e+02	1.43100e+03	2.46131e+00	3.20000e+02
1462	3.23380e+02	1.46200e+03	2.43234e+00	3.20000e+02
1493	3.23400e+02	1.49300e+03	2.40427e+00	3.20000e+02
1524	3.23416e+02	1.52400e+03	2.37718e+00	3.20000e+02
1555	3.23423e+02	1.55500e+03	2.35094e+00	3.20000e+02
1586	3.23425e+02	1.58600e+03	2.32518e+00	3.20000e+02
1617	3.23429e+02	1.61700e+03	2.30004e+00	3.20000e+02
1648	3.23434e+02	1.64800e+03	2.27596e+00	3.20000e+02
1679	3.23412e+02	1.67900e+03	2.25223e+00	3.20000e+02
1710	3.23431e+02	1.71000e+03	2.22957e+00	3.20000e+02
1741	3.23436e+02	1.74100e+03	2.20740e+00	3.20000e+02
1772	3.23427e+02	1.77200e+03	2.18525e+00	3.20000e+02
1803	3.23413e+02	1.80300e+03	2.16412e+00	3.20000e+02
1834	3.23410e+02	1.83400e+03	2.14351e+00	3.20000e+02
1865	3.23395e+02	1.86500e+03	2.12341e+00	3.20000e+02
1896	3.23398e+02	1.89600e+03	2.10376e+00	3.20000e+02
1927	3.23391e+02	1.92700e+03	2.08448e+00	3.20000e+02
1958	3.23389e+02	1.95800e+03	2.06562e+00	3.20000e+02
1989	3.23381e+02	1.98900e+03	2.04726e+00	3.20000e+02
2020	3.23382e+02	2.02000e+03	2.02932e+00	3.20000e+02
2051	3.23379e+02	2.05100e+03	2.01171e+00	3.20000e+02
2082	3.23381e+02	2.08200e+03	1.99460e+00	3.20000e+02
2113	3.23386e+02	2.11300e+03	1.97739e+00	3.20000e+02
2144	3.23377e+02	2.14400e+03	1.96099e+00	3.20000e+02
2175	3.23381e+02	2.17500e+03	1.94458e+00	3.20000e+02
2206	3.23374e+02	2.20600e+03	1.92861e+00	3.20000e+02
2237	3.23389e+02	2.23700e+03	1.91311e+00	3.20000e+02
2268	3.23372e+02	2.26800e+03	1.89782e+00	3.20000e+02
2299	3.23370e+02	2.29900e+03	1.88254e+00	3.20000e+02
2330	3.23368e+02	2.33000e+03	1.86772e+00	3.20000e+02
2361	3.23371e+02	2.36100e+03	1.85282e+00	3.20000e+02
2392	3.23377e+02	2.39200e+03	1.83913e+00	3.20000e+02
2423	3.23378e+02	2.42300e+03	1.82468e+00	3.20000e+02
2454	3.23373e+02	2.45400e+03	1.81084e+00	3.20000e+02
2485	3.23368e+02	2.48500e+03	1.79773e+00	3.20000e+02
2516	3.23385e+02	2.51600e+03	1.78431e+00	3.20000e+02
2547	3.23369e+02	2.54700e+03	1.77131e+00	3.20000e+02
2578	3.23365e+02	2.57800e+03	1.75822e+00	3.20000e+02
2609	3.23370e+02	2.60900e+03	1.74570e+00	3.20000e+02
2640	3.23371e+02	2.64000e+03	1.73315e+00	3.20000e+02
2671	3.23366e+02	2.67100e+03	1.72063e+00	3.20000e+02
2702	3.23371e+02	2.70200e+03	1.70882e+00	3.20000e+02
2733	3.23364e+02	2.73300e+03	1.69702e+00	3.20000e+02
2764	3.23375e+02	2.76400e+03	1.68533e+00	3.20000e+02
2795	3.23361e+02	2.79500e+03	1.67360e+00	3.20000e+02
2826	3.23373e+02	2.82600e+03	1.66211e+00	3.20000e+02
2857	3.23370e+02	2.85700e+03	1.65098e+00	3.20000e+02
2888	3.23374e+02	2.88800e+03	1.63980e+00	3.20000e+02
2919	3.23369e+02	2.91900e+03	1.62917e+00	3.20000e+02
2950	3.23362e+02	2.95000e+03	1.61814e+00	3.20000e+02
2981	3.23371e+02	2.98100e+03	1.60788e+00	3.20000e+02
3012	3.23371e+02	3.01200e+03	1.59739e+00	3.20000e+02
3043	3.23363e+02	3.04300e+03	1.58737e+00	3.20000e+02
3074	3.23360e+02	3.07400e+03	1.57712e+00	3.20000e+02
3105	3.23367e+02	3.10500e+03	1.56722e+00	3.20000e+02
3136	3.23370e+02	3.13600e+03	1.55718e+00	3.20000e+02
3167	3.23369e+02	3.16700e+03	1.54745e+00	3.20000e+02
3198	3.23373e+02	3.19800e+03	1.53788e+00	3.20000e+02
3229	3.23380e+02	3.22900e+03	1.52846e+00	3.20000e+02
3260	3.23375e+02	3.26000e+03	1.51892e+00	3.20000e+02
3291	3.23366e+02	3.29100e+03	1.50976e+00	3.20000e+02
3322	3.23377e+02	3.32200e+03	1.50044e+00	3.20000e+02
3353	3.23375e+02	3.35300e+03	1.49188e+00	3.20000e+02
3384	3.23377e+02	3.38400e+03	1.48292e+00	3.20000e+02
3415	3.23391e+02	3.41500e+03	1.47402e+00	3.20000e+02
3446	3.23359e+02	3.44600e+03	1.46534e+00	3.20000e+02
3477	3.23371e+02	3.47700e+03	1.45701e+00	3.20000e+02
3508	3.23375e+02	3.50800e+03	1.44832e+00	3.20000e+02
3539	3.23366e+02	3.53900e+03	1.43976e+00	3.20000e+02
3570	3.23361e+02	3.57000e+03	1.43171e+00	3.20000e+02
3601	3.23356e+02	3.60100e+03	1.42357e+00	3.20000e+02
3632	3.23357e+02	3.63200e+03	1.41533e+00	3.20000e+02
3663	3.23357e+02	3.66300e+03	1.40758e+00	3.20000e+02
3694	3.23360e+02	3.69400e+03	1.39944e+00	3.20000e+02
3725	3.23363e+02	3.72500e+03	1.39164e+00	3.20000e+02
3756	3.23366e+02	3.75600e+03	1.38406e+00	3.20000e+02
3787	3.23349e+02	3.78700e+03	1.37646e+00	3.20000e+02
3818	3.23363e+02	3.81800e+03	1.36921e+00	3.20000e+02
3849	3.23369e+02	3.84900e+03	1.36190e+00	3.20000e+02
3880	3.23356e+02	3.88000e+03	1.35418e+00	3.20000e+02
3911	3.23356e+02	3.91100e+03	1.34699e+00	3.20000e+02
3942	3.23367e+02	3.94200e+03	1.33992e+00	3.20000e+02
3973	3.23373e+02	3.97300e+03	1.33261e+00	3.20000e+02
4004	3.23357e+02	4.00400e+03	1.32579e+00	3.20000e+02
4035	3.23362e+02	4.03500e+03	1.31871e+00	3.20000e+02
4066	3.23365e+02	4.06600e+03	1.31163e+00	3.20000e+02
4097	3.23365e+02	4.09700e+03	1.30480e+00	3.20000e+02
4128	3.23359e+02	4.12800e+03	1.29805e+00	3.20000e+02
4159	3.23376e+02	4.15900e+03	1.29126e+00	3.20000e+02
4190	3.23367e+02	4.19000e+03	1.28444e+00	3.20000e+02
4221	3.23365e+02	4.22100e+03	1.27768e+00	3.20000e+02
4252	3.23370e+02	4.25200e+03	1.27138e+00	3.20000e+02
4283	3.23367e+02	4.28300e+03	1.26501e+00	3.20000e+02
4314	3.23358e+02	4.31400e+03	1.25837e+00	3.20000e+02
4345	3.23375e+02	4.34500e+03	1.25218e+00	3.20000e+02
4376	3.23365e+02	4.37600e+03	1.24631e+00	3.20000e+02
4407	3.23365e+02	4.40700e+03	1.23986e+00	3.20000e+02
4438	3.23351e+02	4.43800e+03	1.23353e+00	3.20000e+02
4469	3.23364e+02	4.46900e+03	1.22745e+00	3.20000e+02
4500	3.23357e+02	4.50000e+03	1.22130e+00	3.20000e+02
4531	3.23358e+02	4.53100e+03	1.21534e+00	3.20000e+02
4562	3.23362e+02	4.56200e+03	1.20980e+00	3.20000e+02
4593	3.23359e+02	4.59300e+03	1.20358e+00	3.20000e+02
4624	3.23367e+02	4.62400e+03	1.19788e+00	3.20000e+02
4655	3.23364e+02	4.65500e+03	1.19229e+00	3.20000e+02
4686	3.23350e+02	4.68600e+03	1.18653e+00	3.20000e+02
4717	3.23344e+02	4.71700e+03	1.18089e+00	3.20000e+02
4748	3.23366e+02	4.74800e+03	1.17533e+00	3.20000e+02
4779	3.23356e+02	4.77900e+03	1.16964e+00	3.20000e+02
4810	3.23353e+02	4.81000e+03	1.16402e+00	3.20000e+02
4841	3.23355e+02	4.84100e+03	1.15849e+00	3.20000e+02
4872	3.23353e+02	4.87200e+03	1.15339e+00	3.20000e+02
4903	3.23360e+02	4.90300e+03	1.14793e+00	3.20000e+02
4934	3.23365e+02	4.93400e+03	1.14244e+00	3.20000e+02
4965	3.23361e+02	4.96500e+03	1.13739e+00	3.20000e+02
4996	3.23373e+02	4.99600e+03	1.13241e+00	3.20000e+02
5027	3.23363e+02	5.02700e+03	1.12704e+00	3.20000e+02
5058	3.23362e+02	5.05800e+03	1.12203e+00	3.20000e+02
5089	3.23375e+02	5.08900e+03	1.11709e+00	3.20000e+02
5120	3.23370e+02	5.12000e+03	1.11205e+00	3.20000e+02
5151	3.23368e+02	5.15100e+03	1.10710e+00	3.20000e+02
5182	3.23369e+02	5.18200e+03	1.10178e+00	3.20000e+02
5213	3.23355e+02	5.21300e+03	1.09683e+00	3.20000e+02
5244	3.23363e+02	5.24400e+03	1.09192e+00	3.20000e+02
5275	3.23368e+02	5.27500e+03	1.08706e+00	3.20000e+02
5306	3.23371e+02	5.30600e+03	1.08232e+00	3.20000e+02
5337	3.23369e+02	5.33700e+03	1.07738e+00	3.20000e+02
5368	3.23369e+02	5.36800e+03	1.07270e+00	3.20000e+02
5399	3.23362e+02	5.39900e+03	1.06791e+00	3.20000e+02
5430	3.23363e+02	5.43000e+03	1.06323e+00	3.20000e+02
5461	3.23358e+02	5.46100e+03	1.05866e+00	3.20000e+02
5492	3.23363e+02	5.49200e+03	1.05425e+00	3.20000e+02
5523	3.23362e+02	5.52300e+03	1.04981e+00	3.20000e+02
5554	3.23351e+02	5.55400e+03	1.04516e+00	3.20000e+02
5585	3.23360e+02	5.58500e+03	1.04064e+00	3.20000e+02
5616	3.23356e+02	5.61600e+03	1.03646e+00	3.20000e+02
5647	3.23363e+02	5.64700e+03	1.03168e+00	3.20000e+02
5678	3.23367e+02	5.67800e+03	1.02781e+00	3.20000e+02
5709	3.23362e+02	5.70900e+03	1.02341e+00	3.20000e+02
5740	3.23357e+02	5.74000e+03	1.01901e+00	3.20000e+02
5771	3.23356e+02	5.77100e+03	1.01484e+00	3.20000e+02
5802	3.23351e+02	5.80200e+03	1.01060e+00	3.20000e+02
5833	3.23357e+02	5.83300e+03	1.00648e+00	3.20000e+02
5864	3.23366e+02	5.86400e+03	1.00231e+00	3.20000e+02
5895	3.23360e+02	5.89500e+03	9.98412e-01	3.20000e+02
5926	3.23357e+02	5.92600e+03	9.93969e-01	3.20000e+02
5957	3.23360e+02	5.95700e+03	9.90029e-01	3.20000e+02
5988	3.23350e+02	5.98800e+03	9.86159e-01	3.20000e+02
6019	3.23353e+02	6.01900e+03	9.81766e-01	3.20000e+02
6050	3.23354e+02	6.05000e+03	9.77894e-01	3.20000e+02
6081	3.23353e+02	6.08100e+03	9.74209e-01	3.20000e+02
6112	3.23350e+02	6.11200e+03	9.70219e-01	3.20000e+02
6143	3.23364e+02	6.14300e+03	9.66187e-01	3.20000e+02
6174	3.23354e+02	6.17400e+03	9.62634e-01	3.20000e+02
6205	3.23358e+02	6.20500e+03	9.58683e-01	3.20000e+02
6236	3.23357e+02	6.23600e+03	9.55016e-01	3.20000e+02
6267	3.23335e+02	6.26700e+03	9.50955e-01	3.20000e+02
6298	3.23354e+02	6.29800e+03	9.47146e-01	3.20000e+02
6329	3.23355e+02	6.32900e+03	9.43251e-01	3.20000e+02
6360	3.23357e+02	6.36000e+03	9.39903e-01	3.20000e+02
6391	3.23341e+02	6.39100e+03	9.36326e-01	3.20000e+02
6422	3.23350e+02	6.42200e+03	9.32081e-01	3.20000e+02
6453	3.23345e+02	6.45300e+03	9.28898e-01	3.20000e+02
6484	3.23331e+02	6.48400e+03	9.25172e-01	3.20000e+02
6515	3.23348e+02	6.51500e+03	9.21689e-01	3.20000e+02
6546	3.23335e+02	6.54600e+03	9.17969e-01	3.20000e+02
6577	3.23344e+02	6.57700e+03	9.14710e-01	3.20000e+02
6608	3.23345e+02	6.60800e+03	9.10957e-01	3.20000e+02
6639	3.23342e+02	6.63900e+03	9.07551e-01	3.20000e+02
6670	3.23345e+02	6.67000e+03	9.04306e-01	3.20000e+02
6701	3.23354e+02	6.70100e+03	9.00853e-01	3.20000e+02
6732	3.23344e+02	6.73200e+03	8.97350e-01	3.20000e+02
6763	3.23336e+02	6.76300e+03	8.94002e-01	3.20000e+02
6794	3.23339e+02	6.79400e+03	8.90489e-01	3.20000e+02
6825	3.23341e+02	6.82500e+03	8.87148e-01	3.20000e+02
6856	3.23355e+02	6.85600e+03	8.83824e-01	3.20000e+02
6887	3.23340e+02	6.88700e+03	8.80262e-01	3.20000e+02
6918	3.23346e+02	6.91800e+03	8.77068e-01	3.20000e+02
6949	3.23343e+02	6.94900e+03	8.73659e-01	3.20000e+02
6980	3.23349e+02	6.98000e+03	8.70447e-01	3.20000e+02
7011	3.23351e+02	7.01100e+03	8.67207e-01	3.20000e+02
7042	3.23337e+02	7.04200e+03	8.64063e-01	3.20000e+02
7073	3.23345e+02	7.07300e+03	8.60968e-01	3.20000e+02
7104	3.23355e+02	7.10400e+03	8.57722e-01	3.20000e+02
7135	3.23342e+02	7.13500e+03	8.54448e-01	3.20000e+02
7166	3.23350e+02	7.16600e+03	8.51431e-01	3.20000e+02
7197	3.23348e+02	7.19700e+03	8.48222e-01	3.20000e+02
7228	3.23331e+02	7.22800e+03	8.45068e-01	3.20000e+02
7259	3.23338e+02	7.25900e+03	8.42223e-01	3.20000e+02
7290	3.23343e+02	7.29000e+03	8.39016e-01	3.20000e+02
7321	3.23337e+02	7.32100e+03	8.36060e-01	3.20000e+02
7352	3.23339e+02	7.35200e+03	8.33016e-01	3.20000e+02
7383	3.23337e+02	7.38300e+03	8.29653e-01	3.20000e+02
7414	3.23343e+02	7.41400e+03	8.26962e-01	3.20000e+02
7445	3.23337e+02	7.44500e+03	8.24134e-01	3.20000e+02
7476	3.23346e+02	7.47600e+03	8.21299e-01	3.20000e+02
7507	3.23359e+02	7.50700e+03	8.18394e-01	3.20000e+02
7538	3.23357e+02	7.53800e+03	8.15222e-01	3.20000e+02
7569	3.23339e+02	7.56900e+03	8.12356e-01	3.20000e+02
7600	3.23340e+02	7.60000e+03	8.10034e-01	3.20000e+02
7631	3.23347e+02	7.63100e+03	8.06897e-01	3.20000e+02
7662	3.23354e+02	7.66200e+03	8.04336e-01	3.20000e+02
7693	3.23344e+02	7.69300e+03	8.01454e-01	3.20000e+02
7724	3.23352e+02	7.72400e+03	7.98468e-01	3.20000e+02
7755	3.23353e+02	7.75500e+03	7.95599e-01	3.20000e+02
7786	3.23348e+02	7.78600e+03	7.92741e-01	3.20000e+02
7817	3.23342e+02	7.81700e+03	7.90067e-01	3.20000e+02
7848	3.23349e+02	7.84800e+03	7.87831e-01	3.20000e+02
7879	3.23341e+02	7.87900e+03	7.84912e-01	3.20000e+02
7910	3.23348e+02	7.91000e+03	7.82024e-01	3.20000e+02
7941	3.23343e+02	7.94100e+03	7.79459e-01	3.20000e+02
7972	3.23345e+02	7.97200e+03	7.76971e-01	3.20000e+02
8003	3.23347e+02	8.00300e+03	7.74277e-01	3.20000e+02
8034	3.23343e+02	8.03400e+03	7.71635e-01	3.20000e+02
8065	3.23348e+02	8.06500e+03	7.68989e-01	3.20000e+02
8096	3.23348e+02	8.09600e+03	7.66395e-01	3.20000e+02
8127	3.23350e+02	8.12700e+03	7.64017e-01	3.20000e+02
8158	3.23343e+02	8.15800e+03	7.61490e-01	3.20000e+02
8189	3.23344e+02	8.18900e+03	7.58858e-01	3.20000e+02
8220	3.23338e+02	8.22000e+03	7.56137e-01	3.20000e+02
8251	3.23346e+02	8.25100e+03	7.53774e-01	3.20000e+02
8282	3.23354e+02	8.28200e+03	7.51360e-01	3.20000e+02
8313	3.23326e+02	8.31300e+03	7.48828e-01	3.20000e+02
8344	3.23335e+02	8.34400e+03	7.46229e-01	3.20000e+02
8375	3.23344e+02	8.37500e+03	7.43655e-01	3.20000e+02
8406	3.23355e+02	8.40600e+03	7.41534e-01	3.20000e+02
8437	3.23339e+02	8.43700e+03	7.38933e-01	3.20000e+02
8468	3.23348e+02	8.46800e+03	7.36417e-01	3.20000e+02
8499	3.23349e+02	8.49900e+03	7.34043e-01	3.20000e+02
8530	3.23352e+02	8.53000e+03	7.31696e-01	3.20000e+02
8561	3.23350e+02	8.56100e+03	7.29358e-01	3.20000e+02
8592	3.23352e+02	8.59200e+03	7.26957e-01	3.20000e+02
8623	3.23342e+02	8.62300e+03	7.24286e-01	3.20000e+02
8654	3.23338e+02	8.65400e+03	7.22030e-01	3.20000e+02
8685	3.23344e+02	8.68500e+03	7.19760e-01	3.20000e+02
8716	3.23351e+02	8.71600e+03	7.17591e-01	3.20000e+02
8747	3.23359e+02	8.74700e+03	7.15245e-01	3.20000e+02
8778	3.23350e+02	8.77800e+03	7.12965e-01	3.20000e+02
8809	3.23343e+02	8.80900e+03	7.10664e-01	3.20000e+02
8840	3.23340e+02	8.84000e+03	7.08627e-01	3.20000e+02
8871	3.23351e+02	8.87100e+03	7.06284e-01	3.20000e+02
8902	3.23342e+02	8.90200e+03	7.04173e-01	3.20000e+02
8933	3.23347e+02	8.93300e+03	7.01976e-01	3.20000e+02
8964	3.23341e+02	8.96400e+03	6.99627e-01	3.20000e+02
8995	3.23347e+02	8.99500e+03	6.97792e-01	3.20000e+02
9026	3.23339e+02	9.02600e+03	6.95246e-01	3.20000e+02
9057	3.23344e+02	9.05700e+03	6.93180e-01	3.20000e+02
9088	3.23346e+02	9.08800e+03	6.91040e-01	3.20000e+02
9119	3.23345e+02	9.11900e+03	6.88794e-01	3.20000e+02
9150	3.23345e+02	9.15000e+03	6.86755e-01	3.20000e+02
9181	3.23352e+02	9.18100e+03	6.84667e-01	3.20000e+02
9212	3.23349e+02	9.21200e+03	6.82492e-01	3.20000e+02
9243	3.23350e+02	9.24300e+03	6.80295e-01	3.20000e+02
9274	3.23354e+02	9.27400e+03	6.78348e-01	3.20000e+02
9305	3.23358e+02	9.30500e+03	6.76379e-01	3.20000e+02
9336	3.23345e+02	9.33600e+03	6.74200e-01	3.20000e+02
9367	3.23341e+02	9.36700e+03	6.72143e-01	3.20000e+02
9398	3.23343e+02	9.39800e+03	6.69882e-01	3.20000e+02
9429	3.23335e+02	9.42900e+03	6.67910e-01	3.20000e+02
9460	3.23332e+02	9.46000e+03	6.65828e-01	3.20000e+02
9491	3.23338e+02	9.49100e+03	6.63606e-01	3.20000e+02
9522	3.23346e+02	9.52200e+03	6.61796e-01	3.20000e+02
9553	3.23350e+02	9.55300e+03	6.59561e-01	3.20000e+02
9584	3.23337e+02	9.58400e+03	6.57583e-01	3.20000e+02
9615	3.23359e+02	9.61500e+03	6.55736e-01	3.20000e+02
9646	3.23345e+02	9.64600e+03	6.53780e-01	3.20000e+02
9677	3.23346e+02	9.67700e+03	6.51910e-01	3.20000e+02
9708	3.23344e+02	9.70800e+03	6.49650e-01	3.20000e+02
9739	3.23344e+02	9.73900e+03	6.47746e-01	3.20000e+02
9770	3.23347e+02	9.77000e+03	6.45700e-01	3.20000e+02
9801	3.23354e+02	9.80100e+03	6.44105e-01	3.20000e+02
9832	3.23345e+02	9.83200e+03	6.42082e-01	3.20000e+02
9863	3.23354e+02	9.86300e+03	6.39927e-01	3.20000e+02
9894	3.23330e+02	9.89400e+03	6.38179e-01	3.20000e+02
9925	3.23345e+02	9.92500e+03	6.35998e-01	3.20000e+02
9956	3.23347e+02	9.95600e+03	6.34281e-01	3.20000e+02
9987	3.23343e+02	9.98700e+03	6.32582e-01	3.20000e+02
10018	3.23346e+02	1.00180e+04	6.30536e-01	3.20000e+02
10049	3.23342e+02	1.00490e+04	6.28894e-01	3.20000e+02
10080	3.23343e+02	1.00800e+04	6.27010e-01	3.20000e+02
10111	3.23340e+02	1.01110e+04	6.24963e-01	3.20000e+02
10142	3.23343e+02	1.01420e+04	6.22992e-01	3.20000e+02
10173	3.23352e+02	1.01730e+04	6.21589e-01	3.20000e+02
10204	3.23343e+02	1.02040e+04	6.19851e-01	3.20000e+02
10235	3.23356e+02	1.02350e+04	6.17722e-01	3.20000e+02
10266	3.23342e+02	1.02660e+04	6.15761e-01	3.20000e+02
10297	3.23341e+02	1.02970e+04	6.14084e-01	3.20000e+02
10328	3.23342e+02	1.03280e+04	6.12767e-01	3.20000e+02
10359	3.23341e+02	1.03590e+04	6.10605e-01	3.20000e+02
10390	3.23343e+02	1.03900e+04	6.08691e-01	3.20000e+02
10421	3.23336e+02	1.04210e+04	6.07136e-01	3.20000e+02
10452	3.23337e+02	1.04520e+04	6.05339e-01	3.20000e+02
10483	3.23346e+02	1.04830e+04	6.03823e-01	3.20000e+02
10514	3.23340e+02	1.05140e+04	6.01889e-01	3.20000e+02
10545	3.23346e+02	1.05450e+04	6.00584e-01	3.20000e+02
10576	3.23340e+02	1.05760e+04	5.98783e-01	3.20000e+02
10607	3.23337e+02	1.06070e+04	5.97186e-01	3.20000e+02
10638	3.23342e+02	1.06380e+04	5.95480e-01	3.20000e+02
10669	3.23340e+02	1.06690e+04	5.93908e-01	3.20000e+02
10700	3.23332e+02	1.07000e+04	5.92249e-01	3.20000e+02
10731	3.23331e+02	1.07310e+04	5.90515e-01	3.20000e+02
10762	3.23343e+02	1.07620e+04	5.88921e-01	3.20000e+02
10793	3.23336e+02	1.07930e+04	5.87525e-01	3.20000e+02
10824	3.23344e+02	1.08240e+04	5.85976e-01	3.20000e+02
10855	3.23336e+02	1.08550e+04	5.84091e-01	3.20000e+02
10886	3.23332e+02	1.08860e+04	5.82543e-01	3.20000e+02
10917	3.23329e+02	1.09170e+04	5.80580e-01	3.20000e+02
10948	3.23340e+02	1.09480e+04	5.79246e-01	3.20000e+02
10979	3.23322e+02	1.09790e+04	5.77762e-01	3.20000e+02
11010	3.23327e+02	1.10100e+04	5.75942e-01	3.20000e+02
11041	3.23328e+02	1.10410e+04	5.74499e-01	3.20000e+02
11072	3.23337e+02	1.10720e+04	5.72765e-01	3.20000e+02
11103	3.23331e+02	1.11030e+04	5.71306e-01	3.20000e+02
11134	3.23339e+02	1.11340e+04	5.69566e-01	3.20000e+02
11165	3.23332e+02	1.11650e+04	5.68527e-01	3.20000e+02
11196	3.23331e+02	1.11960e+04	5.66768e-01	3.20000e+02
11227	3.23336e+02	1.12270e+04	5.65070e-01	3.20000e+02
11258	3.23337e+02	1.12580e+04	5.63718e-01	3.20000e+02
11289	3.23345e+02	1.12890e+04	5.62444e-01	3.20000e+02
11320	3.23347e+02	1.13200e+04	5.60785e-01	3.20000e+02
11351	3.23344e+02	1.13510e+04	5.59291e-01	3.20000e+02
11382	3.23339e+02	1.13820e+04	5.57828e-01	3.20000e+02
11413	3.23340e+02	1.14130e+04	5.56069e-01	3.20000e+02
11444	3.23342e+02	1.14440e+04	5.54742e-01	3.20000e+02
11475	3.23330e+02	1.14750e+04	5.53082e-01	3.20000e+02
11506	3.23335e+02	1.15060e+04	5.51803e-01	3.20000e+02
11537	3.23336e+02	1.15370e+04	5.50276e-01	3.20000e+02
11568	3.23339e+02	1.15680e+04	5.48786e-01	3.20000e+02
11599	3.23348e+02	1.15990e+04	5.47267e-01	3.20000e+02
11630	3.23352e+02	1.16300e+04	5.46019e-01	3.20000e+02
11661	3.23346e+02	1.16610e+04	5.44593e-01	3.20000e+02
11692	3.23346e+02	1.16920e+04	5.42988e-01	3.20000e+02
11723	3.23344e+02	1.17230e+04	5.41796e-01	3.20000e+02
11754	3.23339e+02	1.17540e+04	5.40254e-01	3.20000e+02
11785	3.23344e+02	1.17850e+04	5.38841e-01	3.20000e+02
11816	3.23344e+02	1.18160e+04	5.37644e-01	3.20000e+02
11847	3.23359e+02	1.18470e+04	5.35929e-01	3.20000e+02
11878	3.23343e+02	1.18780e+04	5.34661e-01	3.20000e+02
11909	3.23346e+02	1.19090e+04	5.33364e-01	3.20000e+02
11940	3.23353e+02	1.19400e+04	5.32149e-01	3.20000e+02
11971	3.23352e+02	1.19710e+04	5.30372e-01	3.20000e+02
12002	3.23349e+02	1.20020e+04	5.29218e-01	3.20000e+02
12033	3.23361e+02	1.20330e+04	5.27973e-01	3.20000e+02
12064	3.23338e+02	1.20640e+04	5.26467e-01	3.20000e+02
12095	3.23343e+02	1.20950e+04	5.25236e-01	3.20000e+02
12126	3.23349e+02	1.21260e+04	5.23666e-01	3.20000e+02
12157	3.23340e+02	1.21570e+04	5.22702e-01	3.20000e+02
12188	3.23349e+02	1.21880e+04	5.21198e-01	3.20000e+02
12219	3.23343e+02	1.22190e+04	5.19855e-01	3.20000e+02
12250	3.23341e+02	1.22500e+04	5.18690e-01	3.20000e+02
12281	3.23352e+02	1.22810e+04	5.17064e-01	3.20000e+02
12312	3.23337e+02	1.23120e+04	5.15950e-01	3.20000e+02
12343	3.23349e+02	1.23430e+04	5.14782e-01	3.20000e+02
12374	3.23341e+02	1.23740e+04	5.13339e-01	3.20000e+02
12405	3.23343e+02	1.24050e+04	5.12141e-01	3.20000e+02
12436	3.23357e+02	1.24360e+04	5.10752e-01	3.20000e+02
12467	3.23340e+02	1.24670e+04	5.09219e-01	3.20000e+02
12498	3.23344e+02	1.24980e+04	5.08534e-01	3.20000e+02
12529	3.23347e+02	1.25290e+04	5.07171e-01	3.20000e+02
12560	3.23344e+02	1.25600e+04	5.05687e-01	3.20000e+02
12591	3.23363e+02	1.25910e+04	5.04524e-01	3.20000e+02
12622	3.23341e+02	1.26220e+04	5.03303e-01	3.20000e+02
12653	3.23353e+02	1.26530e+04	5.01972e-01	3.20000e+02
12684	3.23359e+02	1.26840e+04	5.00699e-01	3.20000e+02
12715	3.23346e+02	1.27150e+04	4.99609e-01	3.20000e+02
12746	3.23355e+02	1.27460e+04	4.98157e-01	3.20000e+02
12777	3.23360e+02	1.27770e+04	4.97038e-01	3.20000e+02
12808	3.23354e+02	1.28080e+04	4.95915e-01	3.20000e+02
12839	3.23344e+02	1.28390e+04	4.94692e-01	3.20000e+02
12870	3.23346e+02	1.28700e+04	4.93593e-01	3.20000e+02
12901	3.23342e+02	1.29010e+04	4.92297e-01	3.20000e+02
12932	3.23345e+02	1.29320e+04	4.91002e-01	3.20000e+02
12963	3.23353e+02	1.29630e+04	4.89691e-01	3.20000e+02
12994	3.23362e+02	1.29940e+04	4.88932e-01	3.20000e+02
13025	3.23354e+02	1.30250e+04	4.87657e-01	3.20000e+02
13056	3.23347e+02	1.30560e+04	4.86565e-01	3.20000e+02
13087	3.23345e+02	1.30870e+04	4.85200e-01	3.20000e+02
13118	3.23343e+02	1.31180e+04	4.84122e-01	3.20000e+02
13149	3.23343e+02	1.31490e+04	4.82866e-01	3.20000e+02
13180	3.23341e+02	1.31800e+04	4.81327e-01	3.20000e+02
13211	3.23332e+02	1.32110e+04	4.80694e-01	3.20000e+02
13242	3.23344e+02	1.32420e+04	4.79437e-01	3.20000e+02
13273	3.23342e+02	1.32730e+04	4.78035e-01	3.20000e+02
13304	3.23337e+02	1.33040e+04	4.77129e-01	3.20000e+02
13335	3.23341e+02	1.33350e+04	4.76104e-01	3.20000e+02
13366	3.23340e+02	1.33660e+04	4.74611e-01	3.20000e+02
13397	3.23338e+02	1.33970e+04	4.73631e-01	3.20000e+02
13428	3.23337e+02	1.34280e+04	4.72584e-01	3.20000e+02
13459	3.23340e+02	1.34590e+04	4.71224e-01	3.20000e+02
13490	3.23338e+02	1.34900e+04	4.70504e-01	3.20000e+02
13521	3.23335e+02	1.35210e+04	4.69468e-01	3.20000e+02
13552	3.23333e+02	1.35520e+04	4.67911e-01	3.20000e+02
13583	3.23330e+02	1.35830e+04	4.66891e-01	3.20000e+02
13614	3.23345e+02	1.36140e+04	4.66201e-01	3.20000e+02
13645	3.23346e+02	1.36450e+04	4.65141e-01	3.20000e+02
13676	3.23329e+02	1.36760e+04	4.63519e-01	3.20000e+02
13707	3.23327e+02	1.37070e+04	4.62429e-01	3.20000e+02
13738	3.23334e+02	1.37380e+04	4.61670e-01	3.20000e+02
13769	3.23339e+02	1.37690e+04	4.60847e-01	3.20000e+02
13800	3.23344e+02	1.38000e+04	4.59528e-01	3.20000e+02
13831	3.23357e+02	1.38310e+04	4.58536e-01	3.20000e+02
13862	3.23351e+02	1.38620e+04	4.56973e-01	3.20000e+02
13893	3.23349e+02	1.38930e+04	4.56044e-01	3.20000e+02
13924	3.23336e+02	1.39240e+04	4.55377e-01	3.20000e+02
13955	3.23350e+02	1.39550e+04	4.53868e-01	3.20000e+02
13986	3.23349e+02	1.39860e+04	4.53144e-01	3.20000e+02
14017	3.23335e+02	1.40170e+04	4.52223e-01	3.20000e+02
14048	3.23345e+02	1.40480e+04	4.51329e-01	3.20000e+02
14079	3.23342e+02	1.40790e+04	4.50032e-01	3.20000e+02
14110	3.23345e+02	1.41100e+04	4.49323e-01	3.20000e+02
14141	3.23356e+02	1.41410e+04	4.48250e-01	3.20000e+02
14172	3.23338e+02	1.41720e+04	4.47141e-01	3.20000e+02
14203	3.23333e+02	1.42030e+04	4.46156e-01	3.20000e+02
14234	3.23339e+02	1.42340e+04	4.45227e-01	3.20000e+02
14265	3.23349e+02	1.42650e+04	4.44021e-01	3.20000e+02
14296	3.23349e+02	1.42960e+04	4.42927e-01	3.20000e+02
14327	3.23345e+02	1.43270e+04	4.41715e-01	3.20000e+02
14358	3.23343e+02	1.43580e+04	4.40957e-01	3.20000e+02
14389	3.23348e+02	1.43890e+04	4.40094e-01	3.20000e+02
14420	3.23335e+02	1.44200e+04	4.39052e-01	3.20000e+02
14451	3.23349e+02	1.44510e+04	4.38089e-01	3.20000e+02
14482	3.23345e+02	1.44820e+04	4.37086e-01	3.20000e+02
14513	3.23336e+02	1.45130e+04	4.36364e-01	3.20000e+02
14544	3.23333e+02	1.45440e+04	4.35364e-01	3.20000e+02
14575	3.23335e+02	1.45750e+04	4.34260e-01	3.20000e+02
14606	3.23333e+02	1.46060e+04	4.33289e-01	3.20000e+02
14637	3.23331e+02	1.46370e+04	4.32307e-01	3.20000e+02
14668	3.23335e+02	1.46680e+04	4.31084e-01	3.20000e+02
14699	3.23332e+02	1.46990e+04	4.30349e-01	3.20000e+02
14730	3.23335e+02	1.47300e+04	4.29802e-01	3.20000e+02
14761	3.23333e+02	1.47610e+04	4.28667e-01	3.20000e+02
14792	3.23333e+02	1.47920e+04	4.27800e-01	3.20000e+02
14823	3.23334e+02	1.48230e+04	4.26872e-01	3.20000e+02
14854	3.23340e+02	1.48540e+04	4.25940e-01	3.20000e+02
14885	3.23333e+02	1.48850e+04	4.25211e-01	3.20000e+02
14916	3.23333e+02	1.49160e+04	4.24026e-01	3.20000e+02
14947	3.23333e+02	1.49470e+04	4.23183e-01	3.20000e+02
14978	3.23330e+02	1.49780e+04	4.22144e-01	3.20000e+02
15009	3.23326e+02	1.50090e+04	4.21511e-01	3.20000e+02
15040	3.23327e+02	1.50400e+04	4.20357e-01	3.20000e+02
15071	3.23330e+02	1.50710e+04	4.19434e-01	3.20000e+02
15102	3.23332e+02	1.51020e+04	4.18619e-01	3.20000e+02
15133	3.23317e+02	1.51330e+04	4.17444e-01	3.20000e+02
15164	3.23324e+02	1.51640e+04	4.17054e-01	3.20000e+02
15195	3.23312e+02	1.51950e+04	4.16071e-01	3.20000e+02
15226	3.23314e+02	1.52260e+04	4.15146e-01	3.20000e+02
15257	3.23323e+02	1.52570e+04	4.14368e-01	3.20000e+02
15288	3.23325e+02	1.52880e+04	4.13197e-01	3.20000e+02
15319	3.23338e+02	1.53190e+04	4.12714e-01	3.20000e+02
15350	3.23325e+02	1.53500e+04	4.11651e-01	3.20000e+02
15381	3.23318e+02	1.53810e+04	4.10689e-01	3.20000e+02
15412	3.23314e+02	1.54120e+04	4.09901e-01	3.20000e+02
15443	3.23318e+02	1.54430e+04	4.08867e-01	3.20000e+02
15474	3.23317e+02	1.54740e+04	4.08000e-01	3.20000e+02
15505	3.23324e+02	1.55050e+04	4.07301e-01	3.20000e+02
15536	3.23323e+02	1.55360e+04	4.06509e-01	3.20000e+02
15567	3.23320e+02	1.55670e+04	4.05753e-01	3.20000e+02
15598	3.23318e+02	1.55980e+04	4.04821e-01	3.20000e+02
15629	3.23325e+02	1.56290e+04	4.04058e-01	3.20000e+02
15660	3.23316e+02	1.56600e+04	4.03412e-01	3.20000e+02
15691	3.23329e+02	1.56910e+04	4.02405e-01	3.20000e+02
15722	3.23307e+02	1.57220e+04	4.01413e-01	3.20000e+02
15753	3.23319e+02	1.57530e+04	4.00548e-01	3.20000e+02
15784	3.23321e+02	1.57840e+04	3.99873e-01	3.20000e+02
15815	3.23323e+02	1.58150e+04	3.98882e-01	3.20000e+02
15846	3.23312e+02	1.58460e+04	3.98434e-01	3.20000e+02
15877	3.23325e+02	1.58770e+04	3.97637e-01	3.20000e+02
15908	3.23326e+02	1.59080e+04	3.96657e-01	3.20000e+02
15939	3.23323e+02	1.59390e+04	3.95939e-01	3.20000e+02
15970	3.23314e+02	1.59700e+04	3.94980e-01	3.20000e+02
16001	3.23318e+02	1.60010e+04	3.93894e-01	3.20000e+02
16032	3.23322e+02	1.60320e+04	3.93292e-01	3.20000e+02
16063	3.23310e+02	1.60630e+04	3.92606e-01	3.20000e+02
16094	3.23319e+02	1.60940e+04	3.92037e-01	3.20000e+02
16125	3.23315e+02	1.61250e+04	3.90914e-01	3.20000e+02
16156	3.23309e+02	1.61560e+04	3.90211e-01	3.20000e+02
16187	3.23316e+02	1.61870e+04	3.89190e-01	3.20000e+02
16218	3.23317e+02	1.62180e+04	3.88674e-01	3.20000e+02
16249	3.23314e+02	1.62490e+04	3.87511e-01	3.20000e+02
16280	3.23321e+02	1.62800e+04	3.87101e-01	3.20000e+02
16311	3.23326e+02	1.63110e+04	3.86227e-01	3.20000e+02
16342	3.23328e+02	1.63420e+04	3.85122e-01	3.20000e+02
16373	3.23323e+02	1.63730e+04	3.84725e-01	3.20000e+02
16404	3.23322e+02	1.64040e+04	3.83873e-01	3.20000e+02
16435	3.23324e+02	1.64350e+04	3.82847e-01	3.20000e+02
16466	3.23328e+02	1.64660e+04	3.82562e-01	3.20000e+02
16497	3.23320e+02	1.64970e+04	3.81739e-01	3.20000e+02
16528	3.23324e+02	1.65280e+04	3.80796e-01	3.20000e+02
16559	3.23330e+02	1.65590e+04	3.80040e-01	3.20000e+02
16590	3.23325e+02	1.65900e+04	3.79444e-01	3.20000e+02
16621	3.23324e+02	1.66210e+04	3.79080e-01	3.20000e+02
16652	3.23316e+02	1.66520e+04	3.78154e-01	3.20000e+02
16683	3.23329e+02	1.66830e+04	3.77316e-01	3.20000e+02
16714	3.23313e+02	1.67140e+04	3.76499e-01	3.20000e+02
16745	3.23318e+02	1.67450e+04	3.75936e-01	3.20000e+02
16776	3.23324e+02	1.67760e+04	3.75108e-01	3.20000e+02
16807	3.23317e+02	1.68070e+04	3.74495e-01	3.20000e+02
16838	3.23317e+02	1.68380e+04	3.73444e-01	3.20000e+02
16869	3.23318e+02	1.68690e+04	3.73033e-01	3.20000e+02
16900	3.23307e+02	1.69000e+04	3.72008e-01	3.20000e+02
16931	3.23311e+02	1.69310e+04	3.71458e-01	3.20000e+02
16962	3.23320e+02	1.69620e+04	3.70801e-01	3.20000e+02
16993	3.23318e+02	1.69930e+04	3.69936e-01	3.20000e+02
17024	3.23316e+02	1.70240e+04	3.69526e-01	3.20000e+02
17055	3.23323e+02	1.70550e+04	3.68261e-01	3.20000e+02
17086	3.23320e+02	1.70860e+04	3.67717e-01	3.20000e+02
17117	3.23306e+02	1.71170e+04	3.67129e-01	3.20000e+02
17148	3.23310e+02	1.71480e+04	3.66464e-01	3.20000e+02
17179	3.23309e+02	1.71790e+04	3.66036e-01	3.20000e+02
17210	3.23299e+02	1.72100e+04	3.65110e-01	3.20000e+02
17241	3.23313e+02	1.72410e+04	3.64232e-01	3.20000e+02
17272	3.23315e+02	1.72720e+04	3.63528e-01	3.20000e+02
17303	3.23298e+02	1.73030e+04	3.62726e-01	3.20000e+02
17334	3.23303e+02	1.73340e+04	3.62637e-01	3.20000e+02
17365	3.23311e+02	1.73650e+04	3.61618e-01	3.20000e+02
17396	3.23301e+02	1.73960e+04	3.61030e-01	3.20000e+02
17427	3.23307e+02	1.74270e+04	3.60487e-01	3.20000e+02
17458	3.23310e+02	1.74580e+04	3.59650e-01	3.20000e+02
17489	3.23311e+02	1.74890e+04	3.58995e-01	3.20000e+02
17520	3.23318e+02	1.75200e+04	3.57954e-01	3.20000e+02
17551	3.23306e+02	1.75510e+04	3.57505e-01	3.20000e+02
17582	3.23302e+02	1.75820e+04	3.56835e-01	3.20000e+02
17613	3.23301e+02	1.76130e+04	3.56497e-01	3.20000e+02
17644	3.23306e+02	1.76440e+04	3.55919e-01	3.20000e+02
17675	3.23295e+02	1.76750e+04	3.55028e-01	3.20000e+02
17706	3.23308e+02	1.77060e+04	3.54162e-01	3.20000e+02
17737	3.23302e+02	1.77370e+04	3.53708e-01	3.20000e+02
17768	3.23298e+02	1.77680e+04	3.52878e-01	3.20000e+02
17799	3.23294e+02	1.77990e+04	3.52079e-01	3.20000e+02
17830	3.23305e+02	1.78300e+04	3.51800e-01	3.20000e+02
17861	3.23312e+02	1.78610e+04	3.51295e-01	3.20000e+02
17892	3.23304e+02	1.78920e+04	3.50491e-01	3.20000e+02
17923	3.23300e+02	1.79230e+04	3.49978e-01	3.20000e+02
17954	3.23310e+02	1.79540e+04	3.49281e-01	3.20000e+02
17985	3.23310e+02	1.79850e+04	3.48451e-01	3.20000e+02
18016	3.23306e+02	1.80160e+04	3.47833e-01	3.20000e+02
18047	3.23311e+02	1.80470e+04	3.47651e-01	3.20000e+02
18078	3.23306e+02	1.80780e+04	3.46811e-01	3.20000e+02
18109	3.23305e+02	1.81090e+04	3.46129e-01	3.20000e+02
18140	3.23298e+02	1.81400e+04	3.45696e-01	3.20000e+02
18171	3.23303e+02	1.81710e+04	3.45010e-01	3.20000e+02
18202	3.23302e+02	1.82020e+04	3.44437e-01	3.20000e+02
18233	3.23305e+02	1.82330e+04	3.43807e-01	3.20000e+02
18264	3.23294e+02	1.82640e+04	3.42897e-01	3.20000e+02
18295	3.23311e+02	1.82950e+04	3.42393e-01	3.20000e+02
18326	3.23301e+02	1.83260e+04	3.42024e-01	3.20000e+02
18357	3.23299e+02	1.83570e+04	3.40937e-01	3.20000e+02
18388	3.23295e+02	1.83880e+04	3.40766e-01	3.20000e+02
18419	3.23310e+02	1.84190e+04	3.40010e-01	3.20000e+02
18450	3.23298e+02	1.84500e+04	3.39390e-01	3.20000e+02
18481	3.23309e+02	1.84810e+04	3.38774e-01	3.20000e+02
18512	3.23293e+02	1.85120e+04	3.38191e-01	3.20000e+02
18543	3.23310e+02	1.85430e+04	3.37642e-01	3.20000e+02
18574	3.23304e+02	1.85740e+04	3.36962e-01	3.20000e+02
18605	3.23305e+02	1.86050e+04	3.36477e-01	3.20000e+02
18636	3.23296e+02	1.86360e+04	3.35791e-01	3.20000e+02
18667	3.23305e+02	1.86670e+04	3.35285e-01	3.20000e+02
18698	3.23303e+02	1.86980e+04	3.34704e-01	3.20000e+02
18729	3.23290e+02	1.87290e+04	3.34205e-01	3.20000e+02
18760	3.23305e+02	1.87600e+04	3.33521e-01	3.20000e+02
18791	3.23304e+02	1.87910e+04	3.33264e-01	3.20000e+02
18822	3.23303e+02	1.88220e+04	3.32663e-01	3.20000e+02
18853	3.23304e+02	1.88530e+04	3.31589e-01	3.20000e+02
18884	3.23299e+02	1.88840e+04	3.31325e-01	3.20000e+02
18915	3.23298e+02	1.89150e+04	3.30818e-01	3.20000e+02
18946	3.23289e+02	1.89460e+04	3.29971e-01	3.20000e+02
18977	3.23297e+02	1.89770e+04	3.29556e-01	3.20000e+02
19008	3.23301e+02	1.90080e+04	3.28952e-01	3.20000e+02
19039	3.23300e+02	1.90390e+04	3.28165e-01	3.20000e+02
19070	3.23302e+02	1.90700e+04	3.27777e-01	3.20000e+02
19101	3.23297e+02	1.91010e+04	3.27233e-01	3.20000e+02
19132	3.23286e+02	1.91320e+04	3.26626e-01	3.20000e+02
19163	3.23295e+02	1.91630e+04	3.25993e-01	3.20000e+02
19194	3.23301e+02	1.91940e+04	3.25436e-01	3.20000e+02
19225	3.23305e+02	1.92250e+04	3.24864e-01	3.20000e+02
19256	3.23294e+02	1.92560e+04	3.24232e-01	3.20000e+02
19287	3.23299e+02	1.92870e+04	3.23589e-01	3.20000e+02
19318	3.23293e+02	1.93180e+04	3.23021e-01	3.20000e+02
19349	3.23299e+02	1.93490e+04	3.22635e-01	3.20000e+02
19380	3.23299e+02	1.93800e+04	3.21928e-01	3.20000e+02
19411	3.23306e+02	1.94110e+04	3.21616e-01	3.20000e+02
19442	3.23304e+02	1.94420e+04	3.21151e-01	3.20000e+02
19473	3.23302e+02	1.94730e+04	3.20279e-01	3.20000e+02
19504	3.23303e+02	1.95040e+04	3.19966e-01	3.20000e+02
19535	3.23294e+02	1.95350e+04	3.19228e-01	3.20000e+02
19566	3.23295e+02	1.95660e+04	3.18629e-01	3.20000e+02
19597	3.23290e+02	1.95970e+04	3.18154e-01	3.20000e+02
19628	3.23295e+02	1.96280e+04	3.17648e-01	3.20000e+02
19659	3.23282e+02	1.96590e+04	3.17121e-01	3.20000e+02
19690	3.23295e+02	1.96900e+04	3.16527e-01	3.20000e+02
19721	3.23295e+02	1.97210e+04	3.15921e-01	3.20000e+02
19752	3.23295e+02	1.97520e+04	3.15412e-01	3.20000e+02
19783	3.23297e+02	1.97830e+04	3.14946e-01	3.20000e+02
19814	3.23296e+02	1.98140e+04	3.14439e-01	3.20000e+02
19845	3.23289e+02	1.98450e+04	3.13796e-01	3.20000e+02
19876	3.23284e+02	1.98760e+04	3.13466e-01	3.20000e+02
19907	3.23298e+02	1.99070e+04	3.12733e-01	3.20000e+02
19938	3.23292e+02	1.99380e+04	3.12602e-01	3.20000e+02
19969	3.23289e+02	1.99690e+04	3.11639e-01	3.20000e+02
20000	3.23293e+02	2.00000e+04	3.11524e-01	3.20000e+02
20031	3.23288e+02	2.00310e+04	3.10925e-01	3.20000e+02
20062	3.23293e+02	2.00620e+04	3.10429e-01	3.20000e+02
20093	3.23292e+02	2.00930e+04	3.09733e-01	3.20000e+02
20124	3.23290e+02	2.01240e+04	3.09465e-01	3.20000e+02
20155	3.23285e+02	2.01550e+04	3.08650e-01	3.20000e+02
20186	3.23304e+02	2.01860e+04	3.08487e-01	3.20000e+02
20217	3.23298e+02	2.02170e+04	3.07866e-01	3.20000e+02
20248	3.23301e+02	2.02480e+04	3.07477e-01	3.20000e+02
20279	3.23303e+02	2.02790e+04	3.06850e-01	3.20000e+02
20310	3.23303e+02	2.03100e+04	3.06313e-01	3.20000e+02
20341	3.23308e+02	2.03410e+04	3.05979e-01	3.20000e+02
20372	3.23308e+02	2.03720e+04	3.05154e-01	3.20000e+02
20403	3.23308e+02	2.04030e+04	3.04898e-01	3.20000e+02
20434	3.23306e+02	2.04340e+04	3.04102e-01	3.20000e+02
20465	3.23306e+02	2.04650e+04	3.03664e-01	3.20000e+02
20496	3.23298e+02	2.04960e+04	3.03163e-01	3.20000e+02
20527	3.23303e+02	2.05270e+04	3.02583e-01	3.20000e+02
20558	3.23304e+02	2.05580e+04	3.02403e-01	3.20000e+02
20589	3.23308e+02	2.05890e+04	3.02026e-01	3.20000e+02
20620	3.23318e+02	2.06200e+04	3.01396e-01	3.20000e+02
20651	3.23307e+02	2.06510e+04	3.00649e-01	3.20000e+02
20682	3.23305e+02	2.06820e+04	3.00239e-01	3.20000e+02
20713	3.23309e+02	2.07130e+04	2.99792e-01	3.20000e+02
20744	3.23317e+02	2.07440e+04	2.99335e-01	3.20000e+02
20775	3.23308e+02	2.07750e+04	2.98671e-01	3.20000e+02
20806	3.23320e+02	2.08060e+04	2.98238e-01	3.20000e+02
20837	3.23308e+02	2.08370e+04	2.97512e-01	3.20000e+02
20868	3.23313e+02	2.08680e+04	2.97267e-01	3.20000e+02
20899	3.23303e+02	2.08990e+04	2.96807e-01	3.20000e+02
20930	3.23291e+02	2.09300e+04	2.96230e-01	3.20000e+02
20961	3.23296e+02	2.09610e+04	2.95724e-01	3.20000e+02
20992	3.23292e+02	2.09920e+04	2.95391e-01	3.20000e+02
21023	3.23295e+02	2.10230e+04	2.95043e-01	3.20000e+02
21054	3.23291e+02	2.10540e+04	2.94357e-01	3.20000e+02
21085	3.23306e+02	2.10850e+04	2.93692e-01	3.20000e+02
21116	3.23307e+02	2.11160e+04	2.93353e-01	3.20000e+02
21147	3.23304e+02	2.11470e+04	2.92677e-01	3.20000e+02
21178	3.23299e+02	2.11780e+04	2.92340e-01	3.20000e+02
21209	3.23292e+02	2.12090e+04	2.91851e-01	3.20000e+02
21240	3.23312e+02	2.12400e+04	2.91521e-01	3.20000e+02
21271	3.23311e+02	2.12710e+04	2.91210e-01	3.20000e+02
21302	3.23310e+02	2.13020e+04	2.90392e-01	3.20000e+02
21333	3.23307e+02	2.13330e+04	2.90121e-01	3.20000e+02
21364	3.23300e+02	2.13640e+04	2.89713e-01	3.20000e+02
21395	3.23304e+02	2.13950e+04	2.89248e-01	3.20000e+02
21426	3.23298e+02	2.14260e+04	2.88825e-01	3.20000e+02
21457	3.23306e+02	2.14570e+04	2.88272e-01	3.20000e+02
21488	3.23307e+02	2.14880e+04	2.87874e-01	3.20000e+02
21519	3.23297e+02	2.15190e+04	2.87266e-01	3.20000e+02
21550	3.23304e+02	2.15500e+04	2.86933e-01	3.20000e+02
21581	3.23300e+02	2.15810e+04	2.86330e-01	3.20000e+02
21612	3.23307e+02	2.16120e+04	2.86000e-01	3.20000e+02
21643	3.23297e+02	2.16430e+04	2.86022e-01	3.20000e+02
21674	3.23299e+02	2.16740e+04	2.85313e-01	3.20000e+02
21705	3.23295e+02	2.17050e+04	2.84892e-01	3.20000e+02
21736	3.23303e+02	2.17360e+04	2.84422e-01	3.20000e+02
21767	3.23301e+02	2.17670e+04	2.83760e-01	3.20000e+02
21798	3.23294e+02	2.17980e+04	2.83316e-01	3.20000e+02
21829	3.23304e+02	2.18290e+04	2.82938e-01	3.20000e+02
21860	3.23306e+02	2.18600e+04	2.82469e-01	3.20000e+02
21891	3.23304e+02	2.18910e+04	2.81915e-01	3.20000e+02
21922	3.23314e+02	2.19220e+04	2.81426e-01	3.20000e+02
21953	3.23304e+02	2.19530e+04	2.81234e-01	3.20000e+02
21984	3.23296e+02	2.19840e+04	2.80927e-01	3.20000e+02
22015	3.23304e+02	2.20150e+04	2.80360e-01	3.20000e+02
22046	3.23308e+02	2.20460e+04	2.79797e-01	3.20000e+02
22077	3.23310e+02	2.20770e+04	2.79612e-01	3.20000e+02
22108	3.23294e+02	2.21080e+04	2.79210e-01	3.20000e+02
22139	3.23302e+02	2.21390e+04	2.78645e-01	3.20000e+02
22170	3.23312e+02	2.21700e+04	2.78182e-01	3.20000e+02
22201	3.23297e+02	2.22010e+04	2.78011e-01	3.20000e+02
22232	3.23294e+02	2.22320e+04	2.77530e-01	3.20000e+02
22263	3.23297e+02	2.22630e+04	2.77120e-01	3.20000e+02
22294	3.23296e+02	2.22940e+04	2.76741e-01	3.20000e+02
22325	3.23294e+02	2.23250e+04	2.76310e-01	3.20000e+02
22356	3.23292e+02	2.23560e+04	2.75918e-01	3.20000e+02
22387	3.23303e+02	2.23870e+04	2.75703e-01	3.20000e+02
22418	3.23301e+02	2.24180e+04	2.75174e-01	3.20000e+02
22449	3.23299e+02	2.24490e+04	2.74639e-01	3.20000e+02
22480	3.23309e+02	2.24800e+04	2.74255e-01	3.20000e+02
22511	3.23309e+02	2.25110e+04	2.73981e-01	3.20000e+02
22542	3.23307e+02	2.25420e+04	2.73664e-01	3.20000e+02
22573	3.23304e+02	2.25730e+04	2.73133e-01	3.20000e+02
22604	3.23292e+02	2.26040e+04	2.72705e-01	3.20000e+02
22635	3.23296e+02	2.26350e+04	2.72308e-01	3.20000e+02
22666	3.23294e+02	2.26660e+04	2.71933e-01	3.20000e+02
22697	3.23287e+02	2.26970e+04	2.71478e-01	3.20000e+02
22728	3.23293e+02	2.27280e+04	2.70931e-01	3.20000e+02
22759	3.23296e+02	2.27590e+04	2.70556e-01	3.20000e+02
22790	3.23296e+02	2.27900e+04	2.70395e-01	3.20000e+02
22821	3.23302e+02	2.28210e+04	2.70010e-01	3.20000e+02
22852	3.23299e+02	2.28520e+04	2.69113e-01	3.20000e+02
22883	3.23296e+02	2.28830e+04	2.68811e-01	3.20000e+02
22914	3.23288e+02	2.29140e+04	2.68803e-01	3.20000e+02
22945	3.23297e+02	2.29450e+04	2.68469e-01	3.20000e+02
22976	3.23298e+02	2.29760e+04	2.67804e-01	3.20000e+02
23007	3.23297e+02	2.30070e+04	2.67407e-01	3.20000e+02
23038	3.23286e+02	2.30380e+04	2.66759e-01	3.20000e+02
23069	3.23301e+02	2.30690e+04	2.66836e-01	3.20000e+02
23100	3.23283e+02	2.31000e+04	2.66196e-01	3.20000e+02
23131	3.23290e+02	2.31310e+04	2.65988e-01	3.20000e+02
23162	3.23304e+02	2.31620e+04	2.65612e-01	3.20000e+02
23193	3.23311e+02	2.31930e+04	2.65430e-01	3.20000e+02
23224	3.23302e+02	2.32240e+04	2.64975e-01	3.20000e+02
23255	3.23303e+02	2.32550e+04	2.64679e-01	3.20000e+02
23286	3.23307e+02	2.32860e+04	2.63982e-01	3.20000e+02
23317	3.23305e+02	2.33170e+04	2.63662e-01	3.20000e+02
23348	3.23294e+02	2.33480e+04	2.63397e-01	3.20000e+02
23379	3.23293e+02	2.33790e+04	2.63093e-01	3.20000e+02
23410	3.23290e+02	2.34100e+04	2.62594e-01	3.20000e+02
23441	3.23304e+02	2.34410e+04	2.62411e-01	3.20000e+02
23472	3.23293e+02	2.34720e+04	2.61779e-01	3.20000e+02
23503	3.23316e+02	2.35030e+04	2.61763e-01	3.20000e+02
23534	3.23310e+02	2.35340e+04	2.61429e-01	3.20000e+02
23565	3.23310e+02	2.35650e+04	2.60962e-01	3.20000e+02
23596	3.23308e+02	2.35960e+04	2.60617e-01	3.20000e+02
23627	3.23303e+02	2.36270e+04	2.60278e-01	3.20000e+02
23658	3.23308e+02	2.36580e+04	2.59922e-01	3.20000e+02
23689	3.23304e+02	2.36890e+04	2.59633e-01	3.20000e+02
23720	3.23296e+02	2.37200e+04	2.59050e-01	3.20000e+02
23751	3.23304e+02	2.37510e+04	2.58784e-01	3.20000e+02
23782	3.23302e+02	2.37820e+04	2.58345e-01	3.20000e+02
23813	3.23311e+02	2.38130e+04	2.58146e-01	3.20000e+02
23844	3.23294e+02	2.38440e+04	2.57538e-01	3.20000e+02
23875	3.23305e+02	2.38750e+04	2.57250e-01	3.20000e+02
23906	3.23305e+02	2.39060e+04	2.56728e-01	3.20000e+02
23937	3.23305e+02	2.39370e+04	2.56432e-01	3.20000e+02
23968	3.23295e+02	2.39680e+04	2.56037e-01	3.20000e+02
23999	3.23294e+02	2.39990e+04	2.55464e-01	3.20000e+02
24030	3.23301e+02	2.40300e+04	2.55259e-01	3.20000e+02
24061	3.23298e+02	2.40610e+04	2.54931e-01	3.20000e+02
24092	3.23298e+02	2.40920e+04	2.54576e-01	3.20000e+02
24123	3.23302e+02	2.41230e+04	2.54129e-01	3.20000e+02
24154	3.23297e+02	2.41540e+04	2.53912e-01	3.20000e+02
24185	3.23291e+02	2.41850e+04	2.53692e-01	3.20000e+02
24216	3.23297e+02	2.42160e+04	2.53286e-01	3.20000e+02
24247	3.23306e+02	2.42470e+04	2.52954e-01	3.20000e+02
24278	3.23305e+02	2.42780e+04	2.52769e-01	3.20000e+02
24309	3.23313e+02	2.43090e+04	2.52276e-01	3.20000e+02
24340	3.23291e+02	2.43400e+04	2.51958e-01	3.20000e+02
24371	3.23290e+02	2.43710e+04	2.51641e-01	3.20000e+02
24402	3.23288e+02	2.44020e+04	2.51232e-01	3.20000e+02
24433	3.23285e+02	2.44330e+04	2.51020e-01	3.20000e+02
24464	3.23289e+02	2.44640e+04	2.50532e-01	3.20000e+02
24495	3.23295e+02	2.44950e+04	2.50294e-01	3.20000e+02
24526	3.23301e+02	2.45260e+04	2.49842e-01	3.20000e+02
24557	3.23290e+02	2.45570e+04	2.49279e-01	3.20000e+02
24588	3.23299e+02	2.45880e+04	2.49213e-01	3.20000e+02
24619	3.23296e+02	2.46190e+04	2.48998e-01	3.20000e+02
24650	3.23306e+02	2.46500e+04	2.48813e-01	3.20000e+02
24681	3.23309e+02	2.46810e+04	2.48315e-01	3.20000e+02
24712	3.23300e+02	2.47120e+04	2.48107e-01	3.20000e+02
24743	3.23304e+02	2.47430e+04	2.47747e-01	3.20000e+02
24774	3.23307e+02	2.47740e+04	2.47359e-01	3.20000e+02
24805	3.23299e+02	2.48050e+04	2.46851e-01	3.20000e+02
24836	3.23307e+02	2.48360e+04	2.46603e-01	3.20000e+02
24867	3.23307e+02	2.48670e+04	2.46184e-01	3.20000e+02
24898	3.23298e+02	2.48980e+04	2.45730e-01	3.20000e+02
24929	3.23292e+02	2.49290e+04	2.45398e-01	3.20000e+02
24960	3.23289e+02	2.49600e+04	2.45101e-01	3.20000e+02
24991	3.23294e+02	2.49910e+04	2.44845e-01	3.20000e+02
25022	3.23289e+02	2.50220e+04	2.44707e-01	3.20000e+02
25053	3.23301e+02	2.50530e+04	2.44134e-01	3.20000e+02
25084	3.23305e+02	2.50840e+04	2.43825e-01	3.20000e+02
25115	3.23304e+02	2.51150e+04	2.43466e-01	3.20000e+02
25146	3.23304e+02	2.51460e+04	2.43229e-01	3.20000e+02
25177	3.23303e+02	2.51770e+04	2.42888e-01	3.20000e+02
25208	3.23301e+02	2.52080e+04	2.42436e-01	3.20000e+02
25239	3.23296e+02	2.52390e+04	2.42337e-01	3.20000e+02
25270	3.23306e+02	2.52700e+04	2.41857e-01	3.20000e+02
25301	3.23295e+02	2.53010e+04	2.41628e-01	3.20000e+02
25332	3.23291e+02	2.53320e+04	2.41230e-01	3.20000e+02
25363	3.23292e+02	2.53630e+04	2.41033e-01	3.20000e+02
25394	3.23292e+02	2.53940e+04	2.40686e-01	3.20000e+02
25425	3.23295e+02	2.54250e+04	2.40557e-01	3.20000e+02
25456	3.23297e+02	2.54560e+04	2.40183e-01	3.20000e+02
25487	3.23295e+02	2.54870e+04	2.39885e-01	3.20000e+02
25518	3.23291e+02	2.55180e+04	2.39584e-01	3.20000e+02
25549	3.23294e+02	2.55490e+04	2.39563e-01	3.20000e+02
25580	3.23288e+02	2.55800e+04	2.39082e-01	3.20000e+02
25611	3.23283e+02	2.56110e+04	2.38889e-01	3.20000e+02
25642	3.23275e+02	2.56420e+04	2.38430e-01	3.20000e+02
25673	3.23272e+02	2.56730e+04	2.38215e-01	3.20000e+02
25704	3.23290e+02	2.57040e+04	2.37930e-01	3.20000e+02
25735	3.23282e+02	2.57350e+04	2.37687e-01	3.20000e+02
25766	3.23290e+02	2.57660e+04	2.37331e-01	3.20000e+02
25797	3.23296e+02	2.57970e+04	2.36978e-01	3.20000e+02
25828	3.23288e+02	2.58280e+04	2.36495e-01	3.20000e+02
25859	3.23283e+02	2.58590e+04	2.36230e-01	3.20000e+02
25890	3.23277e+02	2.58900e+04	2.35916e-01	3.20000e+02
25921	3.23283e+02	2.59210e+04	2.35243e-01	3.20000e+02
25952	3.23286e+02	2.59520e+04	2.35267e-01	3.20000e+02
25983	3.23285e+02	2.59830e+04	2.34975e-01	3.20000e+02
26014	3.23296e+02	2.60140e+04	2.34397e-01	3.20000e+02
26045	3.23283e+02	2.60450e+04	2.34303e-01	3.20000e+02
26076	3.23283e+02	2.60760e+04	2.34105e-01	3.20000e+02
26107	3.23284e+02	2.61070e+04	2.33809e-01	3.20000e+02
26138	3.23292e+02	2.61380e+04	2.33509e-01	3.20000e+02
26169	3.23294e+02	2.61690e+04	2.33089e-01	3.20000e+02
26200	3.23289e+02	2.62000e+04	2.32916e-01	3.20000e+02
26231	3.23292e+02	2.62310e+04	2.32520e-01	3.20000e+02
26262	3.23292e+02	2.62620e+04	2.32236e-01	3.20000e+02
26293	3.23289e+02	2.62930e+04	2.31883e-01	3.20000e+02
26324	3.23286e+02	2.63240e+04	2.31471e-01	3.20000e+02
26355	3.23286e+02	2.63550e+04	2.31468e-01	3.20000e+02
26386	3.23286e+02	2.63860e+04	2.31027e-01	3.20000e+02
26417	3.23291e+02	2.64170e+04	2.30650e-01	3.20000e+02
26448	3.23298e+02	2.64480e+04	2.30254e-01	3.20000e+02
26479	3.23287e+02	2.64790e+04	2.30155e-01	3.20000e+02
26510	3.23281e+02	2.65100e+04	2.29818e-01	3.20000e+02
26541	3.23296e+02	2.65410e+04	2.29530e-01	3.20000e+02
26572	3.23285e+02	2.65720e+04	2.29157e-01	3.20000e+02
26603	3.23281e+02	2.66030e+04	2.29087e-01	3.20000e+02
26634	3.23274e+02	2.66340e+04	2.28725e-01	3.20000e+02
26665	3.23288e+02	2.66650e+04	2.28429e-01	3.20000e+02
26696	3.23291e+02	2.66960e+04	2.28149e-01	3.20000e+02
26727	3.23284e+02	2.67270e+04	2.27800e-01	3.20000e+02
26758	3.23288e+02	2.67580e+04	2.27596e-01	3.20000e+02
26789	3.23290e+02	2.67890e+04	2.27249e-01	3.20000e+02
26820	3.23289e+02	2.68200e+04	2.26758e-01	3.20000e+02
26851	3.23302e+02	2.68510e+04	2.26532e-01	3.20000e+02
26882	3.23296e+02	2.68820e+04	2.26230e-01	3.20000e+02
26913	3.23291e+02	2.69130e+04	2.26114e-01	3.20000e+02
26944	3.23290e+02	2.69440e+04	2.25752e-01	3.20000e+02
26975	3.23286e+02	2.69750e+04	2.25423e-01	3.20000e+02
27006	3.23282e+02	2.70060e+04	2.25302e-01	3.20000e+02
27037	3.23286e+02	2.70370e+04	2.24967e-01	3.20000e+02
27068	3.23289e+02	2.70680e+04	2.24741e-01	3.20000e+02
27099	3.23281e+02	2.70990e+04	2.24499e-01	3.20000e+02
27130	3.23300e+02	2.71300e+04	2.24108e-01	3.20000e+02
27161	3.23294e+02	2.71610e+04	2.24030e-01	3.20000e+02
27192	3.23287e+02	2.71920e+04	2.23657e-01	3.20000e+02
27223	3.23289e+02	2.72230e+04	2.23268e-01	3.20000e+02
27254	3.23291e+02	2.72540e+04	2.23145e-01	3.20000e+02
27285	3.23279e+02	2.72850e+04	2.23058e-01	3.20000e+02
27316	3.23280e+02	2.73160e+04	2.22641e-01	3.20000e+02
27347	3.23283e+02	2.73470e+04	2.22423e-01	3.20000e+02
27378	3.23279e+02	2.73780e+04	2.22165e-01	3.20000e+02
27409	3.23290e+02	2.74090e+04	2.21980e-01	3.20000e+02
27440	3.23304e+02	2.74400e+04	2.21697e-01	3.20000e+02
27471	3.23290e+02	2.74710e+04	2.21398e-01	3.20000e+02
27502	3.23296e+02	2.75020e+04	2.21150e-01	3.20000e+02
27533	3.23308e+02	2.75330e+04	2.20930e-01	3.20000e+02
27564	3.23298e+02	2.75640e+04	2.20731e-01	3.20000e+02
27595	3.23293e+02	2.75950e+04	2.20430e-01	3.20000e+02
27626	3.23301e+02	2.76260e+04	2.20230e-01	3.20000e+02
27657	3.23299e+02	2.76570e+04	2.19731e-01	3.20000e+02
27688	3.23280e+02	2.76880e+04	2.19524e-01	3.20000e+02
27719	3.23295e+02	2.77190e+04	2.19276e-01	3.20000e+02
27750	3.23282e+02	2.77500e+04	2.19101e-01	3.20000e+02
27781	3.23293e+02	2.77810e+04	2.18679e-01	3.20000e+02
27812	3.23283e+02	2.78120e+04	2.18431e-01	3.20000e+02
27843	3.23294e+02	2.78430e+04	2.18261e-01	3.20000e+02
27874	3.23293e+02	2.78740e+04	2.17932e-01	3.20000e+02
27905	3.23288e+02	2.79050e+04	2.17627e-01	3.20000e+02
27936	3.23301e+02	2.79360e+04	2.17305e-01	3.20000e+02
27967	3.23289e+02	2.79670e+04	2.16957e-01	3.20000e+02
27998	3.23303e+02	2.79980e+04	2.16814e-01	3.20000e+02
28029	3.23282e+02	2.80290e+04	2.16600e-01	3.20000e+02
28060	3.23296e+02	2.80600e+04	2.16335e-01	3.20000e+02
28091	3.23279e+02	2.80910e+04	2.16029e-01	3.20000e+02
28122	3.23287e+02	2.81220e+04	2.15736e-01	3.20000e+02
28153	3.23299e+02	2.81530e+04	2.15586e-01	3.20000e+02
28184	3.23296e+02	2.81840e+04	2.15230e-01	3.20000e+02
28215	3.23296e+02	2.82150e+04	2.14941e-01	3.20000e+02
28246	3.23288e+02	2.82460e+04	2.14886e-01	3.20000e+02
28277	3.23280e+02	2.82770e+04	2.14705e-01	3.20000e+02
28308	3.23291e+02	2.83080e+04	2.14192e-01	3.20000e+02
28339	3.23285e+02	2.83390e+04	2.13904e-01	3.20000e+02
28370	3.23285e+02	2.83700e+04	2.13786e-01	3.20000e+02
28401	3.23287e+02	2.84010e+04	2.13530e-01	3.20000e+02
28432	3.23301e+02	2.84320e+04	2.13036e-01	3.20000e+02
28463	3.23298e+02	2.84630e+04	2.12829e-01	3.20000e+02
28494	3.23292e+02	2.84940e+04	2.12586e-01	3.20000e+02
28525	3.23294e+02	2.85250e+04	2.12500e-01	3.20000e+02
28556	3.23296e+02	2.85560e+04	2.12204e-01	3.20000e+02
28587	3.23293e+02	2.85870e+04	2.11795e-01	3.20000e+02
28618	3.23293e+02	2.86180e+04	2.11503e-01	3.20000e+02
28649	3.23291e+02	2.86490e+04	2.11456e-01	3.20000e+02
28680	3.23288e+02	2.86800e+04	2.11037e-01	3.20000e+02
28711	3.23280e+02	2.87110e+04	2.10733e-01	3.20000e+02
28742	3.23284e+02	2.87420e+04	2.10530e-01	3.20000e+02
28773	3.23285e+02	2.87730e+04	2.10319e-01	3.20000e+02
28804	3.23284e+02	2.88040e+04	2.09931e-01	3.20000e+02
28835	3.23288e+02	2.88350e+04	2.09586e-01	3.20000e+02
28866	3.23294e+02	2.88660e+04	2.09432e-01	3.20000e+02
28897	3.23300e+02	2.88970e+04	2.09242e-01	3.20000e+02
28928	3.23291e+02	2.89280e+04	2.09070e-01	3.20000e+02
28959	3.23296e+02	2.89590e+04	2.08807e-01	3.20000e+02
28990	3.23296e+02	2.89900e+04	2.08700e-01	3.20000e+02
29021	3.23291e+02	2.90210e+04	2.08384e-01	3.20000e+02
29052	3.23292e+02	2.90520e+04	2.08182e-01	3.20000e+02
29083	3.23285e+02	2.90830e+04	2.07869e-01	3.20000e+02
29114	3.23286e+02	2.91140e+04	2.07556e-01	3.20000e+02
29145	3.23288e+02	2.91450e+04	2.07403e-01	3.20000e+02
29176	3.23281e+02	2.91760e+04	2.07264e-01	3.20000e+02
29207	3.23298e+02	2.92070e+04	2.07032e-01	3.20000e+02
29238	3.23288e+02	2.92380e+04	2.06720e-01	3.20000e+02
29269	3.23293e+02	2.92690e+04	2.06499e-01	3.20000e+02
29300	3.23281e+02	2.93000e+04	2.06387e-01	3.20000e+02
29331	3.23279e+02	2.93310e+04	2.06030e-01	3.20000e+02
29362	3.23288e+02	2.93620e+04	2.05830e-01	3.20000e+02
29393	3.23280e+02	2.93930e+04	2.05534e-01	3.20000e+02
29424	3.23288e+02	2.94240e+04	2.05596e-01	3.20000e+02
29455	3.23282e+02	2.94550e+04	2.05172e-01	3.20000e+02
29486	3.23290e+02	2.94860e+04	2.04855e-01	3.20000e+02
29517	3.23289e+02	2.95170e+04	2.04541e-01	3.20000e+02
29548	3.23274e+02	2.95480e+04	2.04415e-01	3.20000e+02
29579	3.23273e+02	2.95790e+04	2.04130e-01	3.20000e+02
29610	3.23274e+02	2.96100e+04	2.03918e-01	3.20000e+02
29641	3.23278e+02	2.96410e+04	2.03633e-01	3.20000e+02
29672	3.23276e+02	2.96720e+04	2.03410e-01	3.20000e+02
29703	3.23282e+02	2.97030e+04	2.03505e-01	3.20000e+02
29731	3.23290e+02	2.97310e+04	2.02894e-01	3.20000e+02