File: Experiments/TUBS/tga_isotherm/tga_isotherm_n2_iso320_piece_3mg_r2.txt
index	ts	t	weight	tr
[#]	[°C]	[s]	[mg]	[°C]
900	1.23496e+02	9.00000e+02	2.98384e+00	9.00000e+01
935	1.74966e+02	9.35000e+02	2.98242e+00	3.20000e+02
966	2.28957e+02	9.66000e+02	2.96863e+00	3.20000e+02
997	2.60690e+02	9.97000e+02	2.93977e+00	3.20000e+02
1028	2.82309e+02	1.02800e+03	2.91060e+00	3.20000e+02
1059	2.96809e+02	1.05900e+03	2.88167e+00	3.20000e+02
1090	3.06341e+02	1.09000e+03	2.84818e+00	3.20000e+02
1121	3.12439e+02	1.12100e+03	2.81308e+00	3.20000e+02
1152	3.16299e+02	1.15200e+03	2.78190e+00	3.20000e+02
1183	3.18702e+02	1.18300e+03	2.75110e+00	3.20000e+02
1214	3.20364e+02	1.21400e+03	2.72137e+00	3.20000e+02
1245	3.21436e+02	1.24500e+03	2.69445e+00	3.20000e+02
1276	3.22133e+02	1.27600e+03	2.66890e+00	3.20000e+02
1307	3.22571e+02	1.30700e+03	2.64305e+00	3.20000e+02
1338	3.22877e+02	1.33800e+03	2.61702e+00	3.20000e+02
1369	3.23061e+02	1.36900e+03	2.59176e+00	3.20000e+02
1400	3.23164e+02	1.40000e+03	2.56591e+00	3.20000e+02
1431	3.23236e+02	1.43100e+03	2.54083e+00	3.20000e+02
1462	3.23287e+02	1.46200e+03	2.51578e+00	3.20000e+02
1493	3.23314e+02	1.49300e+03	2.49138e+00	3.20000e+02
1524	3.23328e+02	1.52400e+03	2.46726e+00	3.20000e+02
1555	3.23341e+02	1.55500e+03	2.44336e+00	3.20000e+02
1586	3.23349e+02	1.58600e+03	2.42004e+00	3.20000e+02
1617	3.23341e+02	1.61700e+03	2.39700e+00	3.20000e+02
1648	3.23340e+02	1.64800e+03	2.37430e+00	3.20000e+02
1679	3.23343e+02	1.67900e+03	2.35194e+00	3.20000e+02
1710	3.23332e+02	1.71000e+03	2.33039e+00	3.20000e+02
1741	3.23338e+02	1.74100e+03	2.30878e+00	3.20000e+02
1772	3.23325e+02	1.77200e+03	2.28747e+00	3.20000e+02
1803	3.23318e+02	1.80300e+03	2.26663e+00	3.20000e+02
1834	3.23326e+02	1.83400e+03	2.24632e+00	3.20000e+02
1865	3.23306e+02	1.86500e+03	2.22649e+00	3.20000e+02
1896	3.23301e+02	1.89600e+03	2.20657e+00	3.20000e+02
1927	3.23314e+02	1.92700e+03	2.18728e+00	3.20000e+02
1958	3.23301e+02	1.95800e+03	2.16824e+00	3.20000e+02
1989	3.23298e+02	1.98900e+03	2.14965e+00	3.20000e+02
2020	3.23302e+02	2.02000e+03	2.13140e+00	3.20000e+02
2051	3.23326e+02	2.05100e+03	2.11324e+00	3.20000e+02
2082	3.23296e+02	2.08200e+03	2.09568e+00	3.20000e+02
2113	3.23292e+02	2.11300e+03	2.07818e+00	3.20000e+02
2144	3.23289e+02	2.14400e+03	2.06113e+00	3.20000e+02
2175	3.23285e+02	2.17500e+03	2.04410e+00	3.20000e+02
2206	3.23286e+02	2.20600e+03	2.02752e+00	3.20000e+02
2237	3.23291e+02	2.23700e+03	2.01145e+00	3.20000e+02
2268	3.23286e+02	2.26800e+03	1.99529e+00	3.20000e+02
2299	3.23295e+02	2.29900e+03	1.97944e+00	3.20000e+02
2330	3.23289e+02	2.33000e+03	1.96401e+00	3.20000e+02
2361	3.23278e+02	2.36100e+03	1.94871e+00	3.20000e+02
2392	3.23272e+02	2.39200e+03	1.93366e+00	3.20000e+02
2423	3.23285e+02	2.42300e+03	1.91887e+00	3.20000e+02
2454	3.23275e+02	2.45400e+03	1.90419e+00	3.20000e+02
2485	3.23266e+02	2.48500e+03	1.89001e+00	3.20000e+02
2516	3.23277e+02	2.51600e+03	1.87591e+00	3.20000e+02
2547	3.23270e+02	2.54700e+03	1.86206e+00	3.20000e+02
2578	3.23268e+02	2.57800e+03	1.84841e+00	3.20000e+02
2609	3.23267e+02	2.60900e+03	1.83492e+00	3.20000e+02
2640	3.23260e+02	2.64000e+03	1.82156e+00	3.20000e+02
2671	3.23273e+02	2.67100e+03	1.80828e+00	3.20000e+02
2702	3.23270e+02	2.70200e+03	1.79525e+00	3.20000e+02
2733	3.23263e+02	2.73300e+03	1.78278e+00	3.20000e+02
2764	3.23267e+02	2.76400e+03	1.77022e+00	3.20000e+02
2795	3.23262e+02	2.79500e+03	1.75780e+00	3.20000e+02
2826	3.23267e+02	2.82600e+03	1.74545e+00	3.20000e+02
2857	3.23262e+02	2.85700e+03	1.73332e+00	3.20000e+02
2888	3.23269e+02	2.88800e+03	1.72141e+00	3.20000e+02
2919	3.23281e+02	2.91900e+03	1.70971e+00	3.20000e+02
2950	3.23271e+02	2.95000e+03	1.69813e+00	3.20000e+02
2981	3.23278e+02	2.98100e+03	1.68691e+00	3.20000e+02
3012	3.23267e+02	3.01200e+03	1.67533e+00	3.20000e+02
3043	3.23272e+02	3.04300e+03	1.66415e+00	3.20000e+02
3074	3.23270e+02	3.07400e+03	1.65321e+00	3.20000e+02
3105	3.23268e+02	3.10500e+03	1.64230e+00	3.20000e+02
3136	3.23278e+02	3.13600e+03	1.63154e+00	3.20000e+02
3167	3.23275e+02	3.16700e+03	1.62089e+00	3.20000e+02
3198	3.23268e+02	3.19800e+03	1.61033e+00	3.20000e+02
3229	3.23270e+02	3.22900e+03	1.59982e+00	3.20000e+02
3260	3.23268e+02	3.26000e+03	1.58966e+00	3.20000e+02
3291	3.23265e+02	3.29100e+03	1.57951e+00	3.20000e+02
3322	3.23262e+02	3.32200e+03	1.56926e+00	3.20000e+02
3353	3.23271e+02	3.35300e+03	1.55982e+00	3.20000e+02
3384	3.23271e+02	3.38400e+03	1.55007e+00	3.20000e+02
3415	3.23268e+02	3.41500e+03	1.54051e+00	3.20000e+02
3446	3.23260e+02	3.44600e+03	1.53099e+00	3.20000e+02
3477	3.23270e+02	3.47700e+03	1.52183e+00	3.20000e+02
3508	3.23277e+02	3.50800e+03	1.51266e+00	3.20000e+02
3539	3.23271e+02	3.53900e+03	1.50324e+00	3.20000e+02
3570	3.23263e+02	3.57000e+03	1.49444e+00	3.20000e+02
3601	3.23260e+02	3.60100e+03	1.48551e+00	3.20000e+02
3632	3.23267e+02	3.63200e+03	1.47600e+00	3.20000e+02
3663	3.23250e+02	3.66300e+03	1.46729e+00	3.20000e+02
3694	3.23251e+02	3.69400e+03	1.45846e+00	3.20000e+02
3725	3.23255e+02	3.72500e+03	1.44975e+00	3.20000e+02
3756	3.23252e+02	3.75600e+03	1.44148e+00	3.20000e+02
3787	3.23253e+02	3.78700e+03	1.43310e+00	3.20000e+02
3818	3.23263e+02	3.81800e+03	1.42503e+00	3.20000e+02
3849	3.23241e+02	3.84900e+03	1.41681e+00	3.20000e+02
3880	3.23248e+02	3.88000e+03	1.40831e+00	3.20000e+02
3911	3.23248e+02	3.91100e+03	1.39998e+00	3.20000e+02
3942	3.23247e+02	3.94200e+03	1.39179e+00	3.20000e+02
3973	3.23253e+02	3.97300e+03	1.38400e+00	3.20000e+02
4004	3.23252e+02	4.00400e+03	1.37638e+00	3.20000e+02
4035	3.23239e+02	4.03500e+03	1.36860e+00	3.20000e+02
4066	3.23262e+02	4.06600e+03	1.36095e+00	3.20000e+02
4097	3.23244e+02	4.09700e+03	1.35353e+00	3.20000e+02
4128	3.23250e+02	4.12800e+03	1.34613e+00	3.20000e+02
4159	3.23257e+02	4.15900e+03	1.33845e+00	3.20000e+02
4190	3.23245e+02	4.19000e+03	1.33105e+00	3.20000e+02
4221	3.23246e+02	4.22100e+03	1.32380e+00	3.20000e+02
4252	3.23252e+02	4.25200e+03	1.31650e+00	3.20000e+02
4283	3.23254e+02	4.28300e+03	1.30957e+00	3.20000e+02
4314	3.23235e+02	4.31400e+03	1.30214e+00	3.20000e+02
4345	3.23249e+02	4.34500e+03	1.29520e+00	3.20000e+02
4376	3.23251e+02	4.37600e+03	1.28836e+00	3.20000e+02
4407	3.23256e+02	4.40700e+03	1.28142e+00	3.20000e+02
4438	3.23255e+02	4.43800e+03	1.27519e+00	3.20000e+02
4469	3.23254e+02	4.46900e+03	1.26862e+00	3.20000e+02
4500	3.23241e+02	4.50000e+03	1.26169e+00	3.20000e+02
4531	3.23251e+02	4.53100e+03	1.25462e+00	3.20000e+02
4562	3.23264e+02	4.56200e+03	1.24802e+00	3.20000e+02
4593	3.23257e+02	4.59300e+03	1.24118e+00	3.20000e+02
4624	3.23249e+02	4.62400e+03	1.23472e+00	3.20000e+02
4655	3.23252e+02	4.65500e+03	1.22867e+00	3.20000e+02
4686	3.23258e+02	4.68600e+03	1.22278e+00	3.20000e+02
4717	3.23247e+02	4.71700e+03	1.21684e+00	3.20000e+02
4748	3.23231e+02	4.74800e+03	1.21050e+00	3.20000e+02
4779	3.23236e+02	4.77900e+03	1.20380e+00	3.20000e+02
4810	3.23243e+02	4.81000e+03	1.19721e+00	3.20000e+02
4841	3.23251e+02	4.84100e+03	1.19084e+00	3.20000e+02
4872	3.23236e+02	4.87200e+03	1.18453e+00	3.20000e+02
4903	3.23245e+02	4.90300e+03	1.17858e+00	3.20000e+02
4934	3.23241e+02	4.93400e+03	1.17238e+00	3.20000e+02
4965	3.23236e+02	4.96500e+03	1.16664e+00	3.20000e+02
4996	3.23237e+02	4.99600e+03	1.16090e+00	3.20000e+02
5027	3.23236e+02	5.02700e+03	1.15508e+00	3.20000e+02
5058	3.23228e+02	5.05800e+03	1.14927e+00	3.20000e+02
5089	3.23234e+02	5.08900e+03	1.14359e+00	3.20000e+02
5120	3.23222e+02	5.12000e+03	1.13804e+00	3.20000e+02
5151	3.23227e+02	5.15100e+03	1.13227e+00	3.20000e+02
5182	3.23233e+02	5.18200e+03	1.12683e+00	3.20000e+02
5213	3.23224e+02	5.21300e+03	1.12126e+00	3.20000e+02
5244	3.23221e+02	5.24400e+03	1.11574e+00	3.20000e+02
5275	3.23235e+02	5.27500e+03	1.11036e+00	3.20000e+02
5306	3.23230e+02	5.30600e+03	1.10504e+00	3.20000e+02
5337	3.23227e+02	5.33700e+03	1.09963e+00	3.20000e+02
5368	3.23237e+02	5.36800e+03	1.09423e+00	3.20000e+02
5399	3.23230e+02	5.39900e+03	1.08918e+00	3.20000e+02
5430	3.23224e+02	5.43000e+03	1.08428e+00	3.20000e+02
5461	3.23227e+02	5.46100e+03	1.07916e+00	3.20000e+02
5492	3.23225e+02	5.49200e+03	1.07363e+00	3.20000e+02
5523	3.23236e+02	5.52300e+03	1.06853e+00	3.20000e+02
5554	3.23236e+02	5.55400e+03	1.06331e+00	3.20000e+02
5585	3.23227e+02	5.58500e+03	1.05834e+00	3.20000e+02
5616	3.23232e+02	5.61600e+03	1.05344e+00	3.20000e+02
5647	3.23226e+02	5.64700e+03	1.04825e+00	3.20000e+02
5678	3.23220e+02	5.67800e+03	1.04380e+00	3.20000e+02
5709	3.23230e+02	5.70900e+03	1.03863e+00	3.20000e+02
5740	3.23218e+02	5.74000e+03	1.03382e+00	3.20000e+02
5771	3.23220e+02	5.77100e+03	1.02911e+00	3.20000e+02
5802	3.23214e+02	5.80200e+03	1.02441e+00	3.20000e+02
5833	3.23230e+02	5.83300e+03	1.01990e+00	3.20000e+02
5864	3.23210e+02	5.86400e+03	1.01502e+00	3.20000e+02
5895	3.23216e+02	5.89500e+03	1.01027e+00	3.20000e+02
5926	3.23218e+02	5.92600e+03	1.00566e+00	3.20000e+02
5957	3.23221e+02	5.95700e+03	1.00111e+00	3.20000e+02
5988	3.23224e+02	5.98800e+03	9.96638e-01	3.20000e+02
6019	3.23209e+02	6.01900e+03	9.92037e-01	3.20000e+02
6050	3.23218e+02	6.05000e+03	9.87663e-01	3.20000e+02
6081	3.23216e+02	6.08100e+03	9.83241e-01	3.20000e+02
6112	3.23215e+02	6.11200e+03	9.78995e-01	3.20000e+02
6143	3.23216e+02	6.14300e+03	9.74615e-01	3.20000e+02
6174	3.23213e+02	6.17400e+03	9.70354e-01	3.20000e+02
6205	3.23223e+02	6.20500e+03	9.66070e-01	3.20000e+02
6236	3.23220e+02	6.23600e+03	9.61804e-01	3.20000e+02
6267	3.23212e+02	6.26700e+03	9.57483e-01	3.20000e+02
6298	3.23210e+02	6.29800e+03	9.53133e-01	3.20000e+02
6329	3.23215e+02	6.32900e+03	9.48844e-01	3.20000e+02
6360	3.23227e+02	6.36000e+03	9.44556e-01	3.20000e+02
6391	3.23218e+02	6.39100e+03	9.40359e-01	3.20000e+02
6422	3.23212e+02	6.42200e+03	9.36579e-01	3.20000e+02
6453	3.23208e+02	6.45300e+03	9.32498e-01	3.20000e+02
6484	3.23201e+02	6.48400e+03	9.28432e-01	3.20000e+02
6515	3.23219e+02	6.51500e+03	9.24382e-01	3.20000e+02
6546	3.23205e+02	6.54600e+03	9.20534e-01	3.20000e+02
6577	3.23210e+02	6.57700e+03	9.16736e-01	3.20000e+02
6608	3.23211e+02	6.60800e+03	9.12688e-01	3.20000e+02
6639	3.23211e+02	6.63900e+03	9.08763e-01	3.20000e+02
6670	3.23211e+02	6.67000e+03	9.05200e-01	3.20000e+02
6701	3.23212e+02	6.70100e+03	9.00975e-01	3.20000e+02
6732	3.23211e+02	6.73200e+03	8.97269e-01	3.20000e+02
6763	3.23212e+02	6.76300e+03	8.93512e-01	3.20000e+02
6794	3.23201e+02	6.79400e+03	8.89887e-01	3.20000e+02
6825	3.23216e+02	6.82500e+03	8.86204e-01	3.20000e+02
6856	3.23220e+02	6.85600e+03	8.82159e-01	3.20000e+02
6887	3.23213e+02	6.88700e+03	8.78538e-01	3.20000e+02
6918	3.23213e+02	6.91800e+03	8.74885e-01	3.20000e+02
6949	3.23211e+02	6.94900e+03	8.71451e-01	3.20000e+02
6980	3.23210e+02	6.98000e+03	8.67686e-01	3.20000e+02
7011	3.23214e+02	7.01100e+03	8.63976e-01	3.20000e+02
7042	3.23209e+02	7.04200e+03	8.60893e-01	3.20000e+02
7073	3.23204e+02	7.07300e+03	8.57378e-01	3.20000e+02
7104	3.23205e+02	7.10400e+03	8.53814e-01	3.20000e+02
7135	3.23194e+02	7.13500e+03	8.50580e-01	3.20000e+02
7166	3.23195e+02	7.16600e+03	8.47062e-01	3.20000e+02
7197	3.23197e+02	7.19700e+03	8.43557e-01	3.20000e+02
7228	3.23202e+02	7.22800e+03	8.40097e-01	3.20000e+02
7259	3.23201e+02	7.25900e+03	8.36694e-01	3.20000e+02
7290	3.23182e+02	7.29000e+03	8.33496e-01	3.20000e+02
7321	3.23198e+02	7.32100e+03	8.29953e-01	3.20000e+02
7352	3.23197e+02	7.35200e+03	8.26684e-01	3.20000e+02
7383	3.23195e+02	7.38300e+03	8.23151e-01	3.20000e+02
7414	3.23196e+02	7.41400e+03	8.20030e-01	3.20000e+02
7445	3.23201e+02	7.44500e+03	8.16740e-01	3.20000e+02
7476	3.23193e+02	7.47600e+03	8.13446e-01	3.20000e+02
7507	3.23199e+02	7.50700e+03	8.10167e-01	3.20000e+02
7538	3.23197e+02	7.53800e+03	8.07214e-01	3.20000e+02
7569	3.23192e+02	7.56900e+03	8.03909e-01	3.20000e+02
7600	3.23195e+02	7.60000e+03	8.00835e-01	3.20000e+02
7631	3.23201e+02	7.63100e+03	7.97778e-01	3.20000e+02
7662	3.23201e+02	7.66200e+03	7.94727e-01	3.20000e+02
7693	3.23194e+02	7.69300e+03	7.91823e-01	3.20000e+02
7724	3.23192e+02	7.72400e+03	7.88730e-01	3.20000e+02
7755	3.23194e+02	7.75500e+03	7.85903e-01	3.20000e+02
7786	3.23200e+02	7.78600e+03	7.82575e-01	3.20000e+02
7817	3.23203e+02	7.81700e+03	7.79824e-01	3.20000e+02
7848	3.23197e+02	7.84800e+03	7.76894e-01	3.20000e+02
7879	3.23198e+02	7.87900e+03	7.73706e-01	3.20000e+02
7910	3.23194e+02	7.91000e+03	7.70849e-01	3.20000e+02
7941	3.23199e+02	7.94100e+03	7.67802e-01	3.20000e+02
7972	3.23202e+02	7.97200e+03	7.64789e-01	3.20000e+02
8003	3.23198e+02	8.00300e+03	7.62368e-01	3.20000e+02
8034	3.23201e+02	8.03400e+03	7.59352e-01	3.20000e+02
8065	3.23200e+02	8.06500e+03	7.56571e-01	3.20000e+02
8096	3.23201e+02	8.09600e+03	7.53972e-01	3.20000e+02
8127	3.23192e+02	8.12700e+03	7.51044e-01	3.20000e+02
8158	3.23198e+02	8.15800e+03	7.48422e-01	3.20000e+02
8189	3.23193e+02	8.18900e+03	7.45585e-01	3.20000e+02
8220	3.23191e+02	8.22000e+03	7.42925e-01	3.20000e+02
8251	3.23183e+02	8.25100e+03	7.40133e-01	3.20000e+02
8282	3.23199e+02	8.28200e+03	7.37630e-01	3.20000e+02
8313	3.23195e+02	8.31300e+03	7.34758e-01	3.20000e+02
8344	3.23208e+02	8.34400e+03	7.32341e-01	3.20000e+02
8375	3.23189e+02	8.37500e+03	7.29470e-01	3.20000e+02
8406	3.23202e+02	8.40600e+03	7.26885e-01	3.20000e+02
8437	3.23198e+02	8.43700e+03	7.24250e-01	3.20000e+02
8468	3.23199e+02	8.46800e+03	7.21831e-01	3.20000e+02
8499	3.23197e+02	8.49900e+03	7.18994e-01	3.20000e+02
8530	3.23202e+02	8.53000e+03	7.16504e-01	3.20000e+02
8561	3.23197e+02	8.56100e+03	7.14153e-01	3.20000e+02
8592	3.23201e+02	8.59200e+03	7.11460e-01	3.20000e+02
8623	3.23190e+02	8.62300e+03	7.08764e-01	3.20000e+02
8654	3.23193e+02	8.65400e+03	7.06392e-01	3.20000e+02
8685	3.23200e+02	8.68500e+03	7.03963e-01	3.20000e+02
8716	3.23203e+02	8.71600e+03	7.01492e-01	3.20000e+02
8747	3.23205e+02	8.74700e+03	6.99025e-01	3.20000e+02
8778	3.23202e+02	8.77800e+03	6.96702e-01	3.20000e+02
8809	3.23196e+02	8.80900e+03	6.94247e-01	3.20000e+02
8840	3.23200e+02	8.84000e+03	6.91721e-01	3.20000e+02
8871	3.23197e+02	8.87100e+03	6.89646e-01	3.20000e+02
8902	3.23209e+02	8.90200e+03	6.87157e-01	3.20000e+02
8933	3.23198e+02	8.93300e+03	6.84731e-01	3.20000e+02
8964	3.23199e+02	8.96400e+03	6.82360e-01	3.20000e+02
8995	3.23188e+02	8.99500e+03	6.80093e-01	3.20000e+02
9026	3.23192e+02	9.02600e+03	6.77743e-01	3.20000e+02
9057	3.23182e+02	9.05700e+03	6.76036e-01	3.20000e+02
9088	3.23192e+02	9.08800e+03	6.73162e-01	3.20000e+02
9119	3.23178e+02	9.11900e+03	6.70853e-01	3.20000e+02
9150	3.23194e+02	9.15000e+03	6.68568e-01	3.20000e+02
9181	3.23190e+02	9.18100e+03	6.66357e-01	3.20000e+02
9212	3.23180e+02	9.21200e+03	6.64227e-01	3.20000e+02
9243	3.23190e+02	9.24300e+03	6.61878e-01	3.20000e+02
9274	3.23191e+02	9.27400e+03	6.59759e-01	3.20000e+02
9305	3.23195e+02	9.30500e+03	6.57702e-01	3.20000e+02
9336	3.23185e+02	9.33600e+03	6.55602e-01	3.20000e+02
9367	3.23191e+02	9.36700e+03	6.53111e-01	3.20000e+02
9398	3.23185e+02	9.39800e+03	6.50960e-01	3.20000e+02
9429	3.23187e+02	9.42900e+03	6.48759e-01	3.20000e+02
9460	3.23189e+02	9.46000e+03	6.46714e-01	3.20000e+02
9491	3.23186e+02	9.49100e+03	6.44697e-01	3.20000e+02
9522	3.23184e+02	9.52200e+03	6.42481e-01	3.20000e+02
9553	3.23192e+02	9.55300e+03	6.40592e-01	3.20000e+02
9584	3.23195e+02	9.58400e+03	6.38116e-01	3.20000e+02
9615	3.23187e+02	9.61500e+03	6.36048e-01	3.20000e+02
9646	3.23189e+02	9.64600e+03	6.34070e-01	3.20000e+02
9677	3.23180e+02	9.67700e+03	6.32277e-01	3.20000e+02
9708	3.23191e+02	9.70800e+03	6.29901e-01	3.20000e+02
9739	3.23195e+02	9.73900e+03	6.27847e-01	3.20000e+02
9770	3.23184e+02	9.77000e+03	6.25653e-01	3.20000e+02
9801	3.23192e+02	9.80100e+03	6.23974e-01	3.20000e+02
9832	3.23187e+02	9.83200e+03	6.21730e-01	3.20000e+02
9863	3.23193e+02	9.86300e+03	6.20018e-01	3.20000e+02
9894	3.23196e+02	9.89400e+03	6.17779e-01	3.20000e+02
9925	3.23196e+02	9.92500e+03	6.15846e-01	3.20000e+02
9956	3.23198e+02	9.95600e+03	6.13986e-01	3.20000e+02
9987	3.23193e+02	9.98700e+03	6.12021e-01	3.20000e+02
10018	3.23183e+02	1.00180e+04	6.10066e-01	3.20000e+02
10049	3.23198e+02	1.00490e+04	6.08388e-01	3.20000e+02
10080	3.23192e+02	1.00800e+04	6.06521e-01	3.20000e+02
10111	3.23196e+02	1.01110e+04	6.04386e-01	3.20000e+02
10142	3.23189e+02	1.01420e+04	6.02529e-01	3.20000e+02
10173	3.23186e+02	1.01730e+04	6.00593e-01	3.20000e+02
10204	3.23195e+02	1.02040e+04	5.98977e-01	3.20000e+02
10235	3.23185e+02	1.02350e+04	5.96856e-01	3.20000e+02
10266	3.23191e+02	1.02660e+04	5.95133e-01	3.20000e+02
10297	3.23182e+02	1.02970e+04	5.93152e-01	3.20000e+02
10328	3.23176e+02	1.03280e+04	5.91518e-01	3.20000e+02
10359	3.23179e+02	1.03590e+04	5.89865e-01	3.20000e+02
10390	3.23182e+02	1.03900e+04	5.88006e-01	3.20000e+02
10421	3.23181e+02	1.04210e+04	5.86133e-01	3.20000e+02
10452	3.23192e+02	1.04520e+04	5.84300e-01	3.20000e+02
10483	3.23191e+02	1.04830e+04	5.82668e-01	3.20000e+02
10514	3.23179e+02	1.05140e+04	5.80927e-01	3.20000e+02
10545	3.23183e+02	1.05450e+04	5.79229e-01	3.20000e+02
10576	3.23191e+02	1.05760e+04	5.77400e-01	3.20000e+02
10607	3.23187e+02	1.06070e+04	5.75816e-01	3.20000e+02
10638	3.23178e+02	1.06380e+04	5.74036e-01	3.20000e+02
10669	3.23173e+02	1.06690e+04	5.72225e-01	3.20000e+02
10700	3.23174e+02	1.07000e+04	5.70697e-01	3.20000e+02
10731	3.23186e+02	1.07310e+04	5.68876e-01	3.20000e+02
10762	3.23184e+02	1.07620e+04	5.67122e-01	3.20000e+02
10793	3.23183e+02	1.07930e+04	5.65512e-01	3.20000e+02
10824	3.23180e+02	1.08240e+04	5.63893e-01	3.20000e+02
10855	3.23175e+02	1.08550e+04	5.62081e-01	3.20000e+02
10886	3.23193e+02	1.08860e+04	5.60639e-01	3.20000e+02
10917	3.23186e+02	1.09170e+04	5.58975e-01	3.20000e+02
10948	3.23185e+02	1.09480e+04	5.57324e-01	3.20000e+02
10979	3.23179e+02	1.09790e+04	5.55698e-01	3.20000e+02
11010	3.23185e+02	1.10100e+04	5.54270e-01	3.20000e+02
11041	3.23185e+02	1.10410e+04	5.52646e-01	3.20000e+02
11072	3.23176e+02	1.10720e+04	5.50871e-01	3.20000e+02
11103	3.23177e+02	1.11030e+04	5.49379e-01	3.20000e+02
11134	3.23169e+02	1.11340e+04	5.47759e-01	3.20000e+02
11165	3.23165e+02	1.11650e+04	5.46207e-01	3.20000e+02
11196	3.23172e+02	1.11960e+04	5.44659e-01	3.20000e+02
11227	3.23181e+02	1.12270e+04	5.43139e-01	3.20000e+02
11258	3.23179e+02	1.12580e+04	5.41903e-01	3.20000e+02
11289	3.23180e+02	1.12890e+04	5.40044e-01	3.20000e+02
11320	3.23186e+02	1.13200e+04	5.38418e-01	3.20000e+02
11351	3.23178e+02	1.13510e+04	5.36880e-01	3.20000e+02
11382	3.23186e+02	1.13820e+04	5.35734e-01	3.20000e+02
11413	3.23191e+02	1.14130e+04	5.33911e-01	3.20000e+02
11444	3.23188e+02	1.14440e+04	5.32337e-01	3.20000e+02
11475	3.23187e+02	1.14750e+04	5.30899e-01	3.20000e+02
11506	3.23194e+02	1.15060e+04	5.30070e-01	3.20000e+02
11537	3.23196e+02	1.15370e+04	5.28095e-01	3.20000e+02
11568	3.23192e+02	1.15680e+04	5.26453e-01	3.20000e+02
11599	3.23187e+02	1.15990e+04	5.25023e-01	3.20000e+02
11630	3.23186e+02	1.16300e+04	5.23631e-01	3.20000e+02
11661	3.23174e+02	1.16610e+04	5.21959e-01	3.20000e+02
11692	3.23174e+02	1.16920e+04	5.20623e-01	3.20000e+02
11723	3.23189e+02	1.17230e+04	5.19391e-01	3.20000e+02
11754	3.23177e+02	1.17540e+04	5.17611e-01	3.20000e+02
11785	3.23180e+02	1.17850e+04	5.16363e-01	3.20000e+02
11816	3.23186e+02	1.18160e+04	5.14994e-01	3.20000e+02
11847	3.23184e+02	1.18470e+04	5.13388e-01	3.20000e+02
11878	3.23180e+02	1.18780e+04	5.12155e-01	3.20000e+02
11909	3.23173e+02	1.19090e+04	5.10793e-01	3.20000e+02
11940	3.23180e+02	1.19400e+04	5.09374e-01	3.20000e+02
11971	3.23187e+02	1.19710e+04	5.08069e-01	3.20000e+02
12002	3.23182e+02	1.20020e+04	5.06408e-01	3.20000e+02
12033	3.23189e+02	1.20330e+04	5.05072e-01	3.20000e+02
12064	3.23183e+02	1.20640e+04	5.03803e-01	3.20000e+02
12095	3.23194e+02	1.20950e+04	5.02543e-01	3.20000e+02
12126	3.23189e+02	1.21260e+04	5.00925e-01	3.20000e+02
12157	3.23181e+02	1.21570e+04	4.99641e-01	3.20000e+02
12188	3.23180e+02	1.21880e+04	4.98352e-01	3.20000e+02
12219	3.23187e+02	1.22190e+04	4.96899e-01	3.20000e+02
12250	3.23178e+02	1.22500e+04	4.95553e-01	3.20000e+02
12281	3.23162e+02	1.22810e+04	4.94327e-01	3.20000e+02
12312	3.23170e+02	1.23120e+04	4.93103e-01	3.20000e+02
12343	3.23179e+02	1.23430e+04	4.91914e-01	3.20000e+02
12374	3.23185e+02	1.23740e+04	4.90057e-01	3.20000e+02
12405	3.23180e+02	1.24050e+04	4.89119e-01	3.20000e+02
12436	3.23179e+02	1.24360e+04	4.88065e-01	3.20000e+02
12467	3.23174e+02	1.24670e+04	4.86336e-01	3.20000e+02
12498	3.23177e+02	1.24980e+04	4.85425e-01	3.20000e+02
12529	3.23185e+02	1.25290e+04	4.83993e-01	3.20000e+02
12560	3.23189e+02	1.25600e+04	4.82965e-01	3.20000e+02
12591	3.23184e+02	1.25910e+04	4.81673e-01	3.20000e+02
12622	3.23186e+02	1.26220e+04	4.80499e-01	3.20000e+02
12653	3.23176e+02	1.26530e+04	4.79166e-01	3.20000e+02
12684	3.23181e+02	1.26840e+04	4.77765e-01	3.20000e+02
12715	3.23182e+02	1.27150e+04	4.76827e-01	3.20000e+02
12746	3.23188e+02	1.27460e+04	4.75422e-01	3.20000e+02
12777	3.23191e+02	1.27770e+04	4.74204e-01	3.20000e+02
12808	3.23194e+02	1.28080e+04	4.73098e-01	3.20000e+02
12839	3.23182e+02	1.28390e+04	4.71884e-01	3.20000e+02
12870	3.23184e+02	1.28700e+04	4.70640e-01	3.20000e+02
12901	3.23192e+02	1.29010e+04	4.69567e-01	3.20000e+02
12932	3.23187e+02	1.29320e+04	4.68148e-01	3.20000e+02
12963	3.23183e+02	1.29630e+04	4.67181e-01	3.20000e+02
12994	3.23182e+02	1.29940e+04	4.66093e-01	3.20000e+02
13025	3.23180e+02	1.30250e+04	4.64887e-01	3.20000e+02
13056	3.23174e+02	1.30560e+04	4.63705e-01	3.20000e+02
13087	3.23183e+02	1.30870e+04	4.62713e-01	3.20000e+02
13118	3.23188e+02	1.31180e+04	4.61571e-01	3.20000e+02
13149	3.23182e+02	1.31490e+04	4.60172e-01	3.20000e+02
13180	3.23173e+02	1.31800e+04	4.59311e-01	3.20000e+02
13211	3.23182e+02	1.32110e+04	4.58314e-01	3.20000e+02
13242	3.23180e+02	1.32420e+04	4.57046e-01	3.20000e+02
13273	3.23182e+02	1.32730e+04	4.55483e-01	3.20000e+02
13304	3.23199e+02	1.33040e+04	4.54449e-01	3.20000e+02
13335	3.23184e+02	1.33350e+04	4.53438e-01	3.20000e+02
13366	3.23184e+02	1.33660e+04	4.52514e-01	3.20000e+02
13397	3.23182e+02	1.33970e+04	4.51113e-01	3.20000e+02
13428	3.23185e+02	1.34280e+04	4.50075e-01	3.20000e+02
13459	3.23187e+02	1.34590e+04	4.48838e-01	3.20000e+02
13490	3.23192e+02	1.34900e+04	4.48135e-01	3.20000e+02
13521	3.23182e+02	1.35210e+04	4.46860e-01	3.20000e+02
13552	3.23177e+02	1.35520e+04	4.45787e-01	3.20000e+02
13583	3.23177e+02	1.35830e+04	4.44516e-01	3.20000e+02
13614	3.23187e+02	1.36140e+04	4.43377e-01	3.20000e+02
13645	3.23182e+02	1.36450e+04	4.42416e-01	3.20000e+02
13676	3.23184e+02	1.36760e+04	4.41626e-01	3.20000e+02
13707	3.23180e+02	1.37070e+04	4.40334e-01	3.20000e+02
13738	3.23168e+02	1.37380e+04	4.39162e-01	3.20000e+02
13769	3.23171e+02	1.37690e+04	4.38453e-01	3.20000e+02
13800	3.23172e+02	1.38000e+04	4.37093e-01	3.20000e+02
13831	3.23171e+02	1.38310e+04	4.36006e-01	3.20000e+02
13862	3.23178e+02	1.38620e+04	4.34842e-01	3.20000e+02
13893	3.23174e+02	1.38930e+04	4.33896e-01	3.20000e+02
13924	3.23179e+02	1.39240e+04	4.33082e-01	3.20000e+02
13955	3.23179e+02	1.39550e+04	4.32033e-01	3.20000e+02
13986	3.23165e+02	1.39860e+04	4.30783e-01	3.20000e+02
14017	3.23164e+02	1.40170e+04	4.29836e-01	3.20000e+02
14048	3.23185e+02	1.40480e+04	4.29018e-01	3.20000e+02
14079	3.23174e+02	1.40790e+04	4.28246e-01	3.20000e+02
14110	3.23165e+02	1.41100e+04	4.26934e-01	3.20000e+02
14141	3.23174e+02	1.41410e+04	4.25732e-01	3.20000e+02
14172	3.23168e+02	1.41720e+04	4.25057e-01	3.20000e+02
14203	3.23183e+02	1.42030e+04	4.23896e-01	3.20000e+02
14234	3.23178e+02	1.42340e+04	4.23098e-01	3.20000e+02
14265	3.23178e+02	1.42650e+04	4.21792e-01	3.20000e+02
14296	3.23173e+02	1.42960e+04	4.20897e-01	3.20000e+02
14327	3.23187e+02	1.43270e+04	4.19964e-01	3.20000e+02
14358	3.23179e+02	1.43580e+04	4.19011e-01	3.20000e+02
14389	3.23182e+02	1.43890e+04	4.18031e-01	3.20000e+02
14420	3.23168e+02	1.44200e+04	4.17169e-01	3.20000e+02
14451	3.23182e+02	1.44510e+04	4.15945e-01	3.20000e+02
14482	3.23171e+02	1.44820e+04	4.15163e-01	3.20000e+02
14513	3.23165e+02	1.45130e+04	4.14219e-01	3.20000e+02
14544	3.23167e+02	1.45440e+04	4.13276e-01	3.20000e+02
14575	3.23182e+02	1.45750e+04	4.12169e-01	3.20000e+02
14606	3.23166e+02	1.46060e+04	4.11634e-01	3.20000e+02
14637	3.23170e+02	1.46370e+04	4.10382e-01	3.20000e+02
14668	3.23171e+02	1.46680e+04	4.09320e-01	3.20000e+02
14699	3.23172e+02	1.46990e+04	4.08612e-01	3.20000e+02
14730	3.23163e+02	1.47300e+04	4.07491e-01	3.20000e+02
14761	3.23166e+02	1.47610e+04	4.06709e-01	3.20000e+02
14792	3.23167e+02	1.47920e+04	4.05879e-01	3.20000e+02
14823	3.23165e+02	1.48230e+04	4.04958e-01	3.20000e+02
14854	3.23167e+02	1.48540e+04	4.04184e-01	3.20000e+02
14885	3.23161e+02	1.48850e+04	4.03227e-01	3.20000e+02
14916	3.23161e+02	1.49160e+04	4.02169e-01	3.20000e+02
14947	3.23155e+02	1.49470e+04	4.01313e-01	3.20000e+02
14978	3.23161e+02	1.49780e+04	4.00731e-01	3.20000e+02
15009	3.23157e+02	1.50090e+04	3.99672e-01	3.20000e+02
15040	3.23150e+02	1.50400e+04	3.98753e-01	3.20000e+02
15071	3.23147e+02	1.50710e+04	3.97970e-01	3.20000e+02
15102	3.23160e+02	1.51020e+04	3.97120e-01	3.20000e+02
15133	3.23155e+02	1.51330e+04	3.96087e-01	3.20000e+02
15164	3.23163e+02	1.51640e+04	3.95331e-01	3.20000e+02
15195	3.23143e+02	1.51950e+04	3.94532e-01	3.20000e+02
15226	3.23153e+02	1.52260e+04	3.93429e-01	3.20000e+02
15257	3.23150e+02	1.52570e+04	3.92688e-01	3.20000e+02
15288	3.23147e+02	1.52880e+04	3.91774e-01	3.20000e+02
15319	3.23141e+02	1.53190e+04	3.91092e-01	3.20000e+02
15350	3.23151e+02	1.53500e+04	3.90037e-01	3.20000e+02
15381	3.23152e+02	1.53810e+04	3.89161e-01	3.20000e+02
15412	3.23152e+02	1.54120e+04	3.88307e-01	3.20000e+02
15443	3.23135e+02	1.54430e+04	3.87793e-01	3.20000e+02
15474	3.23147e+02	1.54740e+04	3.86566e-01	3.20000e+02
15505	3.23139e+02	1.55050e+04	3.85862e-01	3.20000e+02
15536	3.23132e+02	1.55360e+04	3.85199e-01	3.20000e+02
15567	3.23131e+02	1.55670e+04	3.84406e-01	3.20000e+02
15598	3.23138e+02	1.55980e+04	3.83631e-01	3.20000e+02
15629	3.23135e+02	1.56290e+04	3.82727e-01	3.20000e+02
15660	3.23137e+02	1.56600e+04	3.81567e-01	3.20000e+02
15691	3.23126e+02	1.56910e+04	3.80847e-01	3.20000e+02
15722	3.23136e+02	1.57220e+04	3.80283e-01	3.20000e+02
15753	3.23130e+02	1.57530e+04	3.79360e-01	3.20000e+02
15784	3.23130e+02	1.57840e+04	3.78539e-01	3.20000e+02
15815	3.23124e+02	1.58150e+04	3.77776e-01	3.20000e+02
15846	3.23115e+02	1.58460e+04	3.77292e-01	3.20000e+02
15877	3.23114e+02	1.58770e+04	3.76318e-01	3.20000e+02
15908	3.23111e+02	1.59080e+04	3.75578e-01	3.20000e+02
15939	3.23115e+02	1.59390e+04	3.74805e-01	3.20000e+02
15970	3.23114e+02	1.59700e+04	3.73746e-01	3.20000e+02
16001	3.23103e+02	1.60010e+04	3.72995e-01	3.20000e+02
16032	3.23105e+02	1.60320e+04	3.72353e-01	3.20000e+02
16063	3.23109e+02	1.60630e+04	3.71458e-01	3.20000e+02
16094	3.23110e+02	1.60940e+04	3.70967e-01	3.20000e+02
16125	3.23092e+02	1.61250e+04	3.69935e-01	3.20000e+02
16156	3.23088e+02	1.61560e+04	3.69128e-01	3.20000e+02
16187	3.23109e+02	1.61870e+04	3.68556e-01	3.20000e+02
16218	3.23079e+02	1.62180e+04	3.67572e-01	3.20000e+02
16249	3.23085e+02	1.62490e+04	3.66830e-01	3.20000e+02
16280	3.23090e+02	1.62800e+04	3.66177e-01	3.20000e+02
16311	3.23082e+02	1.63110e+04	3.65244e-01	3.20000e+02
16342	3.23089e+02	1.63420e+04	3.64399e-01	3.20000e+02
16373	3.23085e+02	1.63730e+04	3.63769e-01	3.20000e+02
16404	3.23079e+02	1.64040e+04	3.62994e-01	3.20000e+02
16435	3.23082e+02	1.64350e+04	3.62210e-01	3.20000e+02
16466	3.23071e+02	1.64660e+04	3.61447e-01	3.20000e+02
16497	3.23059e+02	1.64970e+04	3.60732e-01	3.20000e+02
16528	3.23069e+02	1.65280e+04	3.60000e-01	3.20000e+02
16559	3.23060e+02	1.65590e+04	3.59118e-01	3.20000e+02
16590	3.23054e+02	1.65900e+04	3.58401e-01	3.20000e+02
16621	3.23045e+02	1.66210e+04	3.57936e-01	3.20000e+02
16652	3.23051e+02	1.66520e+04	3.56930e-01	3.20000e+02
16683	3.23054e+02	1.66830e+04	3.56082e-01	3.20000e+02
16714	3.23046e+02	1.67140e+04	3.55435e-01	3.20000e+02
16745	3.23039e+02	1.67450e+04	3.54926e-01	3.20000e+02
16776	3.23048e+02	1.67760e+04	3.54358e-01	3.20000e+02
16807	3.23047e+02	1.68070e+04	3.53490e-01	3.20000e+02
16838	3.23034e+02	1.68380e+04	3.52811e-01	3.20000e+02
16869	3.23045e+02	1.68690e+04	3.52115e-01	3.20000e+02
16900	3.23034e+02	1.69000e+04	3.51464e-01	3.20000e+02
16931	3.23036e+02	1.69310e+04	3.50680e-01	3.20000e+02
16962	3.23035e+02	1.69620e+04	3.49870e-01	3.20000e+02
16993	3.23031e+02	1.69930e+04	3.49150e-01	3.20000e+02
17024	3.23030e+02	1.70240e+04	3.48482e-01	3.20000e+02
17055	3.23026e+02	1.70550e+04	3.47691e-01	3.20000e+02
17086	3.23033e+02	1.70860e+04	3.46963e-01	3.20000e+02
17117	3.23024e+02	1.71170e+04	3.46428e-01	3.20000e+02
17148	3.23014e+02	1.71480e+04	3.45978e-01	3.20000e+02
17179	3.23021e+02	1.71790e+04	3.45250e-01	3.20000e+02
17210	3.23005e+02	1.72100e+04	3.44491e-01	3.20000e+02
17241	3.23009e+02	1.72410e+04	3.43499e-01	3.20000e+02
17272	3.23003e+02	1.72720e+04	3.42775e-01	3.20000e+02
17303	3.23005e+02	1.73030e+04	3.42341e-01	3.20000e+02
17334	3.23020e+02	1.73340e+04	3.41610e-01	3.20000e+02
17365	3.23004e+02	1.73650e+04	3.40790e-01	3.20000e+02
17396	3.23025e+02	1.73960e+04	3.40196e-01	3.20000e+02
17427	3.23009e+02	1.74270e+04	3.39414e-01	3.20000e+02
17458	3.23011e+02	1.74580e+04	3.38640e-01	3.20000e+02
17489	3.22993e+02	1.74890e+04	3.38088e-01	3.20000e+02
17520	3.23002e+02	1.75200e+04	3.37604e-01	3.20000e+02
17551	3.23002e+02	1.75510e+04	3.36736e-01	3.20000e+02
17582	3.23014e+02	1.75820e+04	3.36443e-01	3.20000e+02
17613	3.23006e+02	1.76130e+04	3.35681e-01	3.20000e+02
17644	3.22994e+02	1.76440e+04	3.34935e-01	3.20000e+02
17675	3.22989e+02	1.76750e+04	3.34584e-01	3.20000e+02
17706	3.22987e+02	1.77060e+04	3.33600e-01	3.20000e+02
17737	3.22998e+02	1.77370e+04	3.33025e-01	3.20000e+02
17768	3.22990e+02	1.77680e+04	3.32551e-01	3.20000e+02
17799	3.23002e+02	1.77990e+04	3.31644e-01	3.20000e+02
17830	3.22986e+02	1.78300e+04	3.31045e-01	3.20000e+02
17861	3.22988e+02	1.78610e+04	3.30472e-01	3.20000e+02
17892	3.22987e+02	1.78920e+04	3.29773e-01	3.20000e+02
17923	3.22990e+02	1.79230e+04	3.29165e-01	3.20000e+02
17954	3.22997e+02	1.79540e+04	3.28384e-01	3.20000e+02
17985	3.22997e+02	1.79850e+04	3.27756e-01	3.20000e+02
18016	3.22988e+02	1.80160e+04	3.27411e-01	3.20000e+02
18047	3.22988e+02	1.80470e+04	3.26747e-01	3.20000e+02
18078	3.22989e+02	1.80780e+04	3.26115e-01	3.20000e+02
18109	3.22988e+02	1.81090e+04	3.25467e-01	3.20000e+02
18140	3.22989e+02	1.81400e+04	3.25145e-01	3.20000e+02
18171	3.22986e+02	1.81710e+04	3.24579e-01	3.20000e+02
18202	3.22988e+02	1.82020e+04	3.23788e-01	3.20000e+02
18233	3.22992e+02	1.82330e+04	3.22978e-01	3.20000e+02
18264	3.22980e+02	1.82640e+04	3.22729e-01	3.20000e+02
18295	3.22982e+02	1.82950e+04	3.22001e-01	3.20000e+02
18326	3.22977e+02	1.83260e+04	3.21411e-01	3.20000e+02
18357	3.22986e+02	1.83570e+04	3.20590e-01	3.20000e+02
18388	3.22984e+02	1.83880e+04	3.20170e-01	3.20000e+02
18419	3.23000e+02	1.84190e+04	3.19545e-01	3.20000e+02
18450	3.22990e+02	1.84500e+04	3.18945e-01	3.20000e+02
18481	3.22991e+02	1.84810e+04	3.18353e-01	3.20000e+02
18512	3.22982e+02	1.85120e+04	3.17927e-01	3.20000e+02
18543	3.22988e+02	1.85430e+04	3.17344e-01	3.20000e+02
18574	3.22982e+02	1.85740e+04	3.16514e-01	3.20000e+02
18605	3.22985e+02	1.86050e+04	3.15995e-01	3.20000e+02
18636	3.22987e+02	1.86360e+04	3.15470e-01	3.20000e+02
18667	3.22979e+02	1.86670e+04	3.14718e-01	3.20000e+02
18698	3.22983e+02	1.86980e+04	3.14247e-01	3.20000e+02
18729	3.22989e+02	1.87290e+04	3.13842e-01	3.20000e+02
18760	3.22988e+02	1.87600e+04	3.12902e-01	3.20000e+02
18791	3.22987e+02	1.87910e+04	3.12646e-01	3.20000e+02
18822	3.22969e+02	1.88220e+04	3.12130e-01	3.20000e+02
18853	3.22975e+02	1.88530e+04	3.11169e-01	3.20000e+02
18884	3.22981e+02	1.88840e+04	3.10626e-01	3.20000e+02
18915	3.22975e+02	1.89150e+04	3.10303e-01	3.20000e+02
18946	3.22964e+02	1.89460e+04	3.09601e-01	3.20000e+02
18977	3.22983e+02	1.89770e+04	3.08922e-01	3.20000e+02
19008	3.22982e+02	1.90080e+04	3.08342e-01	3.20000e+02
19039	3.22971e+02	1.90390e+04	3.07980e-01	3.20000e+02
19070	3.22965e+02	1.90700e+04	3.07441e-01	3.20000e+02
19101	3.22984e+02	1.91010e+04	3.06869e-01	3.20000e+02
19132	3.22984e+02	1.91320e+04	3.06309e-01	3.20000e+02
19163	3.22980e+02	1.91630e+04	3.05635e-01	3.20000e+02
19194	3.22974e+02	1.91940e+04	3.05194e-01	3.20000e+02
19225	3.22979e+02	1.92250e+04	3.04731e-01	3.20000e+02
19256	3.22973e+02	1.92560e+04	3.04073e-01	3.20000e+02
19287	3.22964e+02	1.92870e+04	3.03396e-01	3.20000e+02
19318	3.22961e+02	1.93180e+04	3.02854e-01	3.20000e+02
19349	3.22979e+02	1.93490e+04	3.02257e-01	3.20000e+02
19380	3.22979e+02	1.93800e+04	3.01914e-01	3.20000e+02
19411	3.22975e+02	1.94110e+04	3.01347e-01	3.20000e+02
19442	3.22969e+02	1.94420e+04	3.00801e-01	3.20000e+02
19473	3.22965e+02	1.94730e+04	3.00209e-01	3.20000e+02
19504	3.22973e+02	1.95040e+04	2.99858e-01	3.20000e+02
19535	3.22967e+02	1.95350e+04	2.99060e-01	3.20000e+02
19566	3.22964e+02	1.95660e+04	2.98527e-01	3.20000e+02
19597	3.22975e+02	1.95970e+04	2.98121e-01	3.20000e+02
19628	3.22965e+02	1.96280e+04	2.97684e-01	3.20000e+02
19659	3.22964e+02	1.96590e+04	2.96986e-01	3.20000e+02
19690	3.22977e+02	1.96900e+04	2.96534e-01	3.20000e+02
19721	3.22965e+02	1.97210e+04	2.95798e-01	3.20000e+02
19752	3.22971e+02	1.97520e+04	2.95444e-01	3.20000e+02
19783	3.22967e+02	1.97830e+04	2.95068e-01	3.20000e+02
19814	3.22972e+02	1.98140e+04	2.94413e-01	3.20000e+02
19845	3.22971e+02	1.98450e+04	2.93890e-01	3.20000e+02
19876	3.22964e+02	1.98760e+04	2.93654e-01	3.20000e+02
19907	3.22975e+02	1.99070e+04	2.93057e-01	3.20000e+02
19938	3.22988e+02	1.99380e+04	2.92491e-01	3.20000e+02
19969	3.22984e+02	1.99690e+04	2.92047e-01	3.20000e+02
20000	3.22982e+02	2.00000e+04	2.91528e-01	3.20000e+02
20031	3.22980e+02	2.00310e+04	2.90931e-01	3.20000e+02
20062	3.22979e+02	2.00620e+04	2.90332e-01	3.20000e+02
20093	3.22980e+02	2.00930e+04	2.89872e-01	3.20000e+02
20124	3.22974e+02	2.01240e+04	2.89374e-01	3.20000e+02
20155	3.22970e+02	2.01550e+04	2.88790e-01	3.20000e+02
20186	3.22962e+02	2.01860e+04	2.88420e-01	3.20000e+02
20217	3.22973e+02	2.02170e+04	2.87866e-01	3.20000e+02
20248	3.22978e+02	2.02480e+04	2.87575e-01	3.20000e+02
20279	3.22976e+02	2.02790e+04	2.87060e-01	3.20000e+02
20310	3.22984e+02	2.03100e+04	2.86559e-01	3.20000e+02
20341	3.22962e+02	2.03410e+04	2.86084e-01	3.20000e+02
20372	3.22977e+02	2.03720e+04	2.85567e-01	3.20000e+02
20403	3.22975e+02	2.04030e+04	2.84907e-01	3.20000e+02
20434	3.22975e+02	2.04340e+04	2.84588e-01	3.20000e+02
20465	3.22965e+02	2.04650e+04	2.83973e-01	3.20000e+02
20496	3.22969e+02	2.04960e+04	2.83496e-01	3.20000e+02
20527	3.22984e+02	2.05270e+04	2.82963e-01	3.20000e+02
20558	3.22973e+02	2.05580e+04	2.82428e-01	3.20000e+02
20589	3.22979e+02	2.05890e+04	2.82120e-01	3.20000e+02
20620	3.22964e+02	2.06200e+04	2.81590e-01	3.20000e+02
20651	3.22973e+02	2.06510e+04	2.81058e-01	3.20000e+02
20682	3.22977e+02	2.06820e+04	2.80743e-01	3.20000e+02
20713	3.22974e+02	2.07130e+04	2.80213e-01	3.20000e+02
20744	3.22974e+02	2.07440e+04	2.79826e-01	3.20000e+02
20775	3.22973e+02	2.07750e+04	2.79259e-01	3.20000e+02
20806	3.22979e+02	2.08060e+04	2.78545e-01	3.20000e+02
20837	3.22979e+02	2.08370e+04	2.78289e-01	3.20000e+02
20868	3.22981e+02	2.08680e+04	2.77817e-01	3.20000e+02
20899	3.22975e+02	2.08990e+04	2.77346e-01	3.20000e+02
20930	3.22969e+02	2.09300e+04	2.76810e-01	3.20000e+02
20961	3.22986e+02	2.09610e+04	2.76438e-01	3.20000e+02
20992	3.22986e+02	2.09920e+04	2.75989e-01	3.20000e+02
21023	3.22989e+02	2.10230e+04	2.75588e-01	3.20000e+02
21054	3.22973e+02	2.10540e+04	2.75119e-01	3.20000e+02
21085	3.22976e+02	2.10850e+04	2.74698e-01	3.20000e+02
21116	3.22980e+02	2.11160e+04	2.74189e-01	3.20000e+02
21147	3.22973e+02	2.11470e+04	2.73502e-01	3.20000e+02
21178	3.22970e+02	2.11780e+04	2.73091e-01	3.20000e+02
21209	3.22979e+02	2.12090e+04	2.72582e-01	3.20000e+02
21240	3.22978e+02	2.12400e+04	2.72216e-01	3.20000e+02
21271	3.22980e+02	2.12710e+04	2.71609e-01	3.20000e+02
21302	3.22986e+02	2.13020e+04	2.71324e-01	3.20000e+02
21333	3.22974e+02	2.13330e+04	2.70791e-01	3.20000e+02
21364	3.22968e+02	2.13640e+04	2.70344e-01	3.20000e+02
21395	3.22991e+02	2.13950e+04	2.69924e-01	3.20000e+02
21426	3.22976e+02	2.14260e+04	2.69591e-01	3.20000e+02
21457	3.22966e+02	2.14570e+04	2.69072e-01	3.20000e+02
21488	3.22975e+02	2.14880e+04	2.68649e-01	3.20000e+02
21519	3.22985e+02	2.15190e+04	2.68269e-01	3.20000e+02
21550	3.22975e+02	2.15500e+04	2.67756e-01	3.20000e+02
21581	3.22974e+02	2.15810e+04	2.67442e-01	3.20000e+02
21612	3.22970e+02	2.16120e+04	2.66866e-01	3.20000e+02
21643	3.22975e+02	2.16430e+04	2.66402e-01	3.20000e+02
21674	3.22970e+02	2.16740e+04	2.66113e-01	3.20000e+02
21705	3.22970e+02	2.17050e+04	2.65713e-01	3.20000e+02
21736	3.22982e+02	2.17360e+04	2.65189e-01	3.20000e+02
21767	3.22982e+02	2.17670e+04	2.64765e-01	3.20000e+02
21798	3.22974e+02	2.17980e+04	2.64389e-01	3.20000e+02
21829	3.22976e+02	2.18290e+04	2.63858e-01	3.20000e+02
21860	3.22969e+02	2.18600e+04	2.63668e-01	3.20000e+02
21891	3.22971e+02	2.18910e+04	2.63103e-01	3.20000e+02
21922	3.22968e+02	2.19220e+04	2.62716e-01	3.20000e+02
21953	3.22969e+02	2.19530e+04	2.62280e-01	3.20000e+02
21984	3.22964e+02	2.19840e+04	2.62046e-01	3.20000e+02
22015	3.22978e+02	2.20150e+04	2.61565e-01	3.20000e+02
22046	3.22968e+02	2.20460e+04	2.61057e-01	3.20000e+02
22077	3.22976e+02	2.20770e+04	2.60742e-01	3.20000e+02
22108	3.22973e+02	2.21080e+04	2.60235e-01	3.20000e+02
22139	3.22971e+02	2.21390e+04	2.59727e-01	3.20000e+02
22170	3.22978e+02	2.21700e+04	2.59404e-01	3.20000e+02
22201	3.22974e+02	2.22010e+04	2.58888e-01	3.20000e+02
22232	3.22972e+02	2.22320e+04	2.58558e-01	3.20000e+02
22263	3.22975e+02	2.22630e+04	2.58224e-01	3.20000e+02
22294	3.22968e+02	2.22940e+04	2.57790e-01	3.20000e+02
22325	3.22974e+02	2.23250e+04	2.57328e-01	3.20000e+02
22356	3.22965e+02	2.23560e+04	2.56859e-01	3.20000e+02
22387	3.22981e+02	2.23870e+04	2.56615e-01	3.20000e+02
22418	3.22988e+02	2.24180e+04	2.56386e-01	3.20000e+02
22449	3.22963e+02	2.24490e+04	2.56013e-01	3.20000e+02
22480	3.22978e+02	2.24800e+04	2.55571e-01	3.20000e+02
22511	3.22978e+02	2.25110e+04	2.55060e-01	3.20000e+02
22542	3.22981e+02	2.25420e+04	2.54621e-01	3.20000e+02
22573	3.22984e+02	2.25730e+04	2.54418e-01	3.20000e+02
22604	3.22975e+02	2.26040e+04	2.53817e-01	3.20000e+02
22635	3.22977e+02	2.26350e+04	2.53491e-01	3.20000e+02
22666	3.22975e+02	2.26660e+04	2.53271e-01	3.20000e+02
22697	3.22975e+02	2.26970e+04	2.52731e-01	3.20000e+02
22728	3.22983e+02	2.27280e+04	2.52392e-01	3.20000e+02
22759	3.22990e+02	2.27590e+04	2.51892e-01	3.20000e+02
22790	3.22973e+02	2.27900e+04	2.51625e-01	3.20000e+02
22821	3.22973e+02	2.28210e+04	2.51209e-01	3.20000e+02
22852	3.22974e+02	2.28520e+04	2.50744e-01	3.20000e+02
22883	3.22977e+02	2.28830e+04	2.50147e-01	3.20000e+02
22914	3.22984e+02	2.29140e+04	2.49987e-01	3.20000e+02
22945	3.22988e+02	2.29450e+04	2.49489e-01	3.20000e+02
22976	3.22984e+02	2.29760e+04	2.49025e-01	3.20000e+02
23007	3.22975e+02	2.30070e+04	2.48707e-01	3.20000e+02
23038	3.22975e+02	2.30380e+04	2.48373e-01	3.20000e+02
23069	3.22978e+02	2.30690e+04	2.48014e-01	3.20000e+02
23100	3.22973e+02	2.31000e+04	2.47395e-01	3.20000e+02
23131	3.22975e+02	2.31310e+04	2.47138e-01	3.20000e+02
23162	3.22977e+02	2.31620e+04	2.46794e-01	3.20000e+02
23193	3.22968e+02	2.31930e+04	2.46600e-01	3.20000e+02
23224	3.22969e+02	2.32240e+04	2.46326e-01	3.20000e+02
23255	3.22982e+02	2.32550e+04	2.45725e-01	3.20000e+02
23286	3.22968e+02	2.32860e+04	2.45360e-01	3.20000e+02
23317	3.22977e+02	2.33170e+04	2.44993e-01	3.20000e+02
23348	3.22979e+02	2.33480e+04	2.44693e-01	3.20000e+02
23379	3.22968e+02	2.33790e+04	2.44384e-01	3.20000e+02
23410	3.22983e+02	2.34100e+04	2.44096e-01	3.20000e+02
23441	3.22979e+02	2.34410e+04	2.43509e-01	3.20000e+02
23472	3.22997e+02	2.34720e+04	2.43257e-01	3.20000e+02
23503	3.22982e+02	2.35030e+04	2.42908e-01	3.20000e+02
23534	3.22982e+02	2.35340e+04	2.42568e-01	3.20000e+02
23565	3.22976e+02	2.35650e+04	2.42029e-01	3.20000e+02
23596	3.22968e+02	2.35960e+04	2.41762e-01	3.20000e+02
23627	3.22986e+02	2.36270e+04	2.41466e-01	3.20000e+02
23658	3.22980e+02	2.36580e+04	2.41216e-01	3.20000e+02
23689	3.22975e+02	2.36890e+04	2.40793e-01	3.20000e+02
23720	3.22977e+02	2.37200e+04	2.40432e-01	3.20000e+02
23751	3.22984e+02	2.37510e+04	2.40100e-01	3.20000e+02
23782	3.22985e+02	2.37820e+04	2.39868e-01	3.20000e+02
23813	3.22980e+02	2.38130e+04	2.39442e-01	3.20000e+02
23844	3.22991e+02	2.38440e+04	2.39076e-01	3.20000e+02
23875	3.22972e+02	2.38750e+04	2.38539e-01	3.20000e+02
23906	3.22983e+02	2.39060e+04	2.38157e-01	3.20000e+02
23937	3.22992e+02	2.39370e+04	2.37738e-01	3.20000e+02
23968	3.22982e+02	2.39680e+04	2.37400e-01	3.20000e+02
23999	3.22992e+02	2.39990e+04	2.37017e-01	3.20000e+02
24030	3.22987e+02	2.40300e+04	2.36710e-01	3.20000e+02
24061	3.22988e+02	2.40610e+04	2.36347e-01	3.20000e+02
24092	3.23000e+02	2.40920e+04	2.35862e-01	3.20000e+02
24123	3.23001e+02	2.41230e+04	2.35429e-01	3.20000e+02
24154	3.22987e+02	2.41540e+04	2.35371e-01	3.20000e+02
24185	3.22987e+02	2.41850e+04	2.35036e-01	3.20000e+02
24216	3.22991e+02	2.42160e+04	2.34451e-01	3.20000e+02
24247	3.22980e+02	2.42470e+04	2.34256e-01	3.20000e+02
24278	3.22990e+02	2.42780e+04	2.34082e-01	3.20000e+02
24309	3.22982e+02	2.43090e+04	2.33733e-01	3.20000e+02
24340	3.22995e+02	2.43400e+04	2.33212e-01	3.20000e+02
24371	3.22984e+02	2.43710e+04	2.33048e-01	3.20000e+02
24402	3.22985e+02	2.44020e+04	2.32690e-01	3.20000e+02
24433	3.22976e+02	2.44330e+04	2.32222e-01	3.20000e+02
24464	3.22985e+02	2.44640e+04	2.31798e-01	3.20000e+02
24495	3.22980e+02	2.44950e+04	2.31695e-01	3.20000e+02
24526	3.22975e+02	2.45260e+04	2.31485e-01	3.20000e+02
24557	3.22983e+02	2.45570e+04	2.30779e-01	3.20000e+02
24588	3.22991e+02	2.45880e+04	2.30760e-01	3.20000e+02
24619	3.22982e+02	2.46190e+04	2.30553e-01	3.20000e+02
24650	3.22977e+02	2.46500e+04	2.30260e-01	3.20000e+02
24681	3.22985e+02	2.46810e+04	2.29872e-01	3.20000e+02
24712	3.22975e+02	2.47120e+04	2.29523e-01	3.20000e+02
24743	3.22987e+02	2.47430e+04	2.29306e-01	3.20000e+02
24774	3.22990e+02	2.47740e+04	2.28918e-01	3.20000e+02
24805	3.22982e+02	2.48050e+04	2.28332e-01	3.20000e+02
24836	3.22984e+02	2.48360e+04	2.28086e-01	3.20000e+02
24867	3.22979e+02	2.48670e+04	2.27780e-01	3.20000e+02
24898	3.22988e+02	2.48980e+04	2.27290e-01	3.20000e+02
24929	3.22984e+02	2.49290e+04	2.26911e-01	3.20000e+02
24960	3.22984e+02	2.49600e+04	2.26774e-01	3.20000e+02
24991	3.22983e+02	2.49910e+04	2.26433e-01	3.20000e+02
25022	3.22992e+02	2.50220e+04	2.26266e-01	3.20000e+02
25053	3.22989e+02	2.50530e+04	2.25713e-01	3.20000e+02
25084	3.22986e+02	2.50840e+04	2.25495e-01	3.20000e+02
25115	3.22989e+02	2.51150e+04	2.25125e-01	3.20000e+02
25146	3.22985e+02	2.51460e+04	2.24903e-01	3.20000e+02
25177	3.22983e+02	2.51770e+04	2.24588e-01	3.20000e+02
25208	3.22988e+02	2.52080e+04	2.24298e-01	3.20000e+02
25239	3.22998e+02	2.52390e+04	2.24093e-01	3.20000e+02
25270	3.22987e+02	2.52700e+04	2.23835e-01	3.20000e+02
25301	3.22996e+02	2.53010e+04	2.23431e-01	3.20000e+02
25332	3.22984e+02	2.53320e+04	2.23000e-01	3.20000e+02
25363	3.22978e+02	2.53630e+04	2.22746e-01	3.20000e+02
25394	3.22990e+02	2.53940e+04	2.22422e-01	3.20000e+02
25425	3.22998e+02	2.54250e+04	2.22088e-01	3.20000e+02
25456	3.22987e+02	2.54560e+04	2.21964e-01	3.20000e+02
25487	3.22987e+02	2.54870e+04	2.21601e-01	3.20000e+02
25518	3.22993e+02	2.55180e+04	2.21386e-01	3.20000e+02
25549	3.22987e+02	2.55490e+04	2.21286e-01	3.20000e+02
25580	3.22994e+02	2.55800e+04	2.20794e-01	3.20000e+02
25611	3.22988e+02	2.56110e+04	2.20572e-01	3.20000e+02
25642	3.22989e+02	2.56420e+04	2.20091e-01	3.20000e+02
25673	3.22994e+02	2.56730e+04	2.19890e-01	3.20000e+02
25704	3.23003e+02	2.57040e+04	2.19690e-01	3.20000e+02
25735	3.22992e+02	2.57350e+04	2.19388e-01	3.20000e+02
25766	3.22995e+02	2.57660e+04	2.19096e-01	3.20000e+02
25797	3.22984e+02	2.57970e+04	2.18690e-01	3.20000e+02
25828	3.22979e+02	2.58280e+04	2.18376e-01	3.20000e+02
25859	3.22986e+02	2.58590e+04	2.18196e-01	3.20000e+02
25890	3.22976e+02	2.58900e+04	2.17822e-01	3.20000e+02
25921	3.22982e+02	2.59210e+04	2.17506e-01	3.20000e+02
25952	3.22985e+02	2.59520e+04	2.17126e-01	3.20000e+02
25983	3.22978e+02	2.59830e+04	2.16808e-01	3.20000e+02
26014	3.22991e+02	2.60140e+04	2.16581e-01	3.20000e+02
26045	3.22972e+02	2.60450e+04	2.16230e-01	3.20000e+02
26076	3.22989e+02	2.60760e+04	2.15986e-01	3.20000e+02
26107	3.22981e+02	2.61070e+04	2.15756e-01	3.20000e+02
26138	3.22982e+02	2.61380e+04	2.15339e-01	3.20000e+02
26169	3.22990e+02	2.61690e+04	2.15047e-01	3.20000e+02
26200	3.22988e+02	2.62000e+04	2.14686e-01	3.20000e+02
26231	3.22994e+02	2.62310e+04	2.14350e-01	3.20000e+02
26262	3.22980e+02	2.62620e+04	2.14190e-01	3.20000e+02
26293	3.22983e+02	2.62930e+04	2.13851e-01	3.20000e+02
26324	3.22992e+02	2.63240e+04	2.13537e-01	3.20000e+02
26355	3.22990e+02	2.63550e+04	2.13312e-01	3.20000e+02
26386	3.22987e+02	2.63860e+04	2.13010e-01	3.20000e+02
26417	3.22989e+02	2.64170e+04	2.12699e-01	3.20000e+02
26448	3.22979e+02	2.64480e+04	2.12571e-01	3.20000e+02
26479	3.22971e+02	2.64790e+04	2.12289e-01	3.20000e+02
26510	3.22986e+02	2.65100e+04	2.11890e-01	3.20000e+02
26541	3.22995e+02	2.65410e+04	2.11629e-01	3.20000e+02
26572	3.22979e+02	2.65720e+04	2.11327e-01	3.20000e+02
26603	3.22986e+02	2.66030e+04	2.11225e-01	3.20000e+02
26634	3.22983e+02	2.66340e+04	2.10721e-01	3.20000e+02
26665	3.22989e+02	2.66650e+04	2.10494e-01	3.20000e+02
26696	3.23002e+02	2.66960e+04	2.10271e-01	3.20000e+02
26727	3.22984e+02	2.67270e+04	2.09990e-01	3.20000e+02
26758	3.22981e+02	2.67580e+04	2.09593e-01	3.20000e+02
26789	3.22996e+02	2.67890e+04	2.09311e-01	3.20000e+02
26820	3.22982e+02	2.68200e+04	2.08979e-01	3.20000e+02
26851	3.22981e+02	2.68510e+04	2.08741e-01	3.20000e+02
26882	3.22971e+02	2.68820e+04	2.08591e-01	3.20000e+02
26913	3.22974e+02	2.69130e+04	2.08368e-01	3.20000e+02
26944	3.22986e+02	2.69440e+04	2.08028e-01	3.20000e+02
26975	3.22987e+02	2.69750e+04	2.07692e-01	3.20000e+02
27006	3.22980e+02	2.70060e+04	2.07430e-01	3.20000e+02
27037	3.22979e+02	2.70370e+04	2.07105e-01	3.20000e+02
27068	3.22978e+02	2.70680e+04	2.06912e-01	3.20000e+02
27099	3.22973e+02	2.70990e+04	2.06904e-01	3.20000e+02
27130	3.22986e+02	2.71300e+04	2.06402e-01	3.20000e+02
27161	3.22987e+02	2.71610e+04	2.06185e-01	3.20000e+02
27192	3.22982e+02	2.71920e+04	2.05858e-01	3.20000e+02
27223	3.22983e+02	2.72230e+04	2.05652e-01	3.20000e+02
27254	3.22991e+02	2.72540e+04	2.05401e-01	3.20000e+02
27285	3.22981e+02	2.72850e+04	2.05263e-01	3.20000e+02
27316	3.22979e+02	2.73160e+04	2.04923e-01	3.20000e+02
27347	3.22978e+02	2.73470e+04	2.04685e-01	3.20000e+02
27378	3.22988e+02	2.73780e+04	2.04109e-01	3.20000e+02
27409	3.23001e+02	2.74090e+04	2.04038e-01	3.20000e+02
27440	3.22980e+02	2.74400e+04	2.03680e-01	3.20000e+02
27471	3.22983e+02	2.74710e+04	2.03392e-01	3.20000e+02
27502	3.22988e+02	2.75020e+04	2.03203e-01	3.20000e+02
27533	3.22977e+02	2.75330e+04	2.03001e-01	3.20000e+02
27564	3.22986e+02	2.75640e+04	2.02690e-01	3.20000e+02
27595	3.22983e+02	2.75950e+04	2.02522e-01	3.20000e+02
27626	3.22995e+02	2.76260e+04	2.02297e-01	3.20000e+02
27657	3.22980e+02	2.76570e+04	2.01903e-01	3.20000e+02
27688	3.22993e+02	2.76880e+04	2.01791e-01	3.20000e+02
27719	3.22979e+02	2.77190e+04	2.01554e-01	3.20000e+02
27750	3.22978e+02	2.77500e+04	2.01284e-01	3.20000e+02
27781	3.22968e+02	2.77810e+04	2.01047e-01	3.20000e+02
27812	3.22975e+02	2.78120e+04	2.00762e-01	3.20000e+02
27843	3.22973e+02	2.78430e+04	2.00563e-01	3.20000e+02
27874	3.22974e+02	2.78740e+04	2.00302e-01	3.20000e+02
27905	3.22981e+02	2.79050e+04	1.99976e-01	3.20000e+02
27936	3.22980e+02	2.79360e+04	1.99696e-01	3.20000e+02
27967	3.22982e+02	2.79670e+04	1.99301e-01	3.20000e+02
27998	3.22978e+02	2.79980e+04	1.99324e-01	3.20000e+02
28029	3.22990e+02	2.80290e+04	1.98806e-01	3.20000e+02
28060	3.22983e+02	2.80600e+04	1.98598e-01	3.20000e+02
28091	3.22978e+02	2.80910e+04	1.98500e-01	3.20000e+02
28122	3.22977e+02	2.81220e+04	1.98281e-01	3.20000e+02
28153	3.22981e+02	2.81530e+04	1.97990e-01	3.20000e+02
28184	3.22979e+02	2.81840e+04	1.97800e-01	3.20000e+02
28215	3.22986e+02	2.82150e+04	1.97550e-01	3.20000e+02
28246	3.22988e+02	2.82460e+04	1.97388e-01	3.20000e+02
28277	3.22981e+02	2.82770e+04	1.97264e-01	3.20000e+02
28308	3.22983e+02	2.83080e+04	1.96775e-01	3.20000e+02
28339	3.22982e+02	2.83390e+04	1.96715e-01	3.20000e+02
28370	3.22988e+02	2.83700e+04	1.96539e-01	3.20000e+02
28401	3.22990e+02	2.84010e+04	1.96172e-01	3.20000e+02
28432	3.22996e+02	2.84320e+04	1.95791e-01	3.20000e+02
28463	3.22987e+02	2.84630e+04	1.95764e-01	3.20000e+02
28494	3.22990e+02	2.84940e+04	1.95412e-01	3.20000e+02
28525	3.22970e+02	2.85250e+04	1.95236e-01	3.20000e+02
28556	3.22992e+02	2.85560e+04	1.94969e-01	3.20000e+02
28587	3.22994e+02	2.85870e+04	1.94596e-01	3.20000e+02
28618	3.23000e+02	2.86180e+04	1.94450e-01	3.20000e+02
28649	3.22987e+02	2.86490e+04	1.94351e-01	3.20000e+02
28680	3.22991e+02	2.86800e+04	1.93895e-01	3.20000e+02
28711	3.22989e+02	2.87110e+04	1.93730e-01	3.20000e+02
28742	3.22985e+02	2.87420e+04	1.93490e-01	3.20000e+02
28773	3.22998e+02	2.87730e+04	1.93366e-01	3.20000e+02
28804	3.22988e+02	2.88040e+04	1.92966e-01	3.20000e+02
28835	3.22994e+02	2.88350e+04	1.92469e-01	3.20000e+02
28866	3.22988e+02	2.88660e+04	1.92494e-01	3.20000e+02
28897	3.22996e+02	2.88970e+04	1.92283e-01	3.20000e+02
28928	3.22994e+02	2.89280e+04	1.92057e-01	3.20000e+02
28959	3.22993e+02	2.89590e+04	1.91747e-01	3.20000e+02
28990	3.22987e+02	2.89900e+04	1.91751e-01	3.20000e+02
29021	3.22989e+02	2.90210e+04	1.91440e-01	3.20000e+02
29052	3.22984e+02	2.90520e+04	1.91161e-01	3.20000e+02
29083	3.22985e+02	2.90830e+04	1.90843e-01	3.20000e+02
29114	3.22996e+02	2.91140e+04	1.90628e-01	3.20000e+02
29145	3.22991e+02	2.91450e+04	1.90512e-01	3.20000e+02
29176	3.22985e+02	2.91760e+04	1.90246e-01	3.20000e+02
29207	3.22995e+02	2.92070e+04	1.90091e-01	3.20000e+02
29238	3.23007e+02	2.92380e+04	1.89796e-01	3.20000e+02
29269	3.22978e+02	2.92690e+04	1.89663e-01	3.20000e+02
29300	3.22994e+02	2.93000e+04	1.89361e-01	3.20000e+02
29331	3.22998e+02	2.93310e+04	1.89117e-01	3.20000e+02
29362	3.22991e+02	2.93620e+04	1.88906e-01	3.20000e+02
29393	3.22989e+02	2.93930e+04	1.88553e-01	3.20000e+02
29424	3.22992e+02	2.94240e+04	1.88690e-01	3.20000e+02
29455	3.22993e+02	2.94550e+04	1.88301e-01	3.20000e+02
29486	3.22987e+02	2.94860e+04	1.88008e-01	3.20000e+02
29517	3.23005e+02	2.95170e+04	1.87775e-01	3.20000e+02
29548	3.23000e+02	2.95480e+04	1.87434e-01	3.20000e+02
29579	3.22997e+02	2.95790e+04	1.87383e-01	3.20000e+02
29610	3.23000e+02	2.96100e+04	1.86897e-01	3.20000e+02
29641	3.22996e+02	2.96410e+04	1.86844e-01	3.20000e+02
29672	3.22988e+02	2.96720e+04	1.86734e-01	3.20000e+02
29703	3.22988e+02	2.97030e+04	1.86495e-01	3.20000e+02
29731	3.22981e+02	2.97310e+04	1.86071e-01	3.20000e+02