File: Experiments/TUBS/tga_isotherm/tga_isotherm_n2_iso300_powder_3mg_r3.txt
index	ts	t	weight	tr
[#]	[°C]	[s]	[mg]	[°C]
900	1.21772e+02	9.00000e+02	3.05921e+00	9.00000e+01
937	1.82480e+02	9.37000e+02	3.03207e+00	3.00000e+02
968	2.28903e+02	9.68000e+02	2.94058e+00	3.00000e+02
999	2.53820e+02	9.99000e+02	2.91894e+00	3.00000e+02
1030	2.69611e+02	1.03000e+03	2.90834e+00	3.00000e+02
1061	2.80762e+02	1.06100e+03	2.89762e+00	3.00000e+02
1092	2.88170e+02	1.09200e+03	2.88137e+00	3.00000e+02
1123	2.93364e+02	1.12300e+03	2.86038e+00	3.00000e+02
1154	2.96712e+02	1.15400e+03	2.83804e+00	3.00000e+02
1185	2.98975e+02	1.18500e+03	2.81634e+00	3.00000e+02
1216	3.00446e+02	1.21600e+03	2.79824e+00	3.00000e+02
1247	3.01465e+02	1.24700e+03	2.78266e+00	3.00000e+02
1278	3.02108e+02	1.27800e+03	2.76861e+00	3.00000e+02
1309	3.02507e+02	1.30900e+03	2.75644e+00	3.00000e+02
1340	3.02746e+02	1.34000e+03	2.74559e+00	3.00000e+02
1371	3.02925e+02	1.37100e+03	2.73530e+00	3.00000e+02
1402	3.03037e+02	1.40200e+03	2.72583e+00	3.00000e+02
1433	3.03107e+02	1.43300e+03	2.71687e+00	3.00000e+02
1464	3.03149e+02	1.46400e+03	2.70846e+00	3.00000e+02
1495	3.03187e+02	1.49500e+03	2.70028e+00	3.00000e+02
1526	3.03199e+02	1.52600e+03	2.69233e+00	3.00000e+02
1557	3.03200e+02	1.55700e+03	2.68455e+00	3.00000e+02
1588	3.03207e+02	1.58800e+03	2.67748e+00	3.00000e+02
1619	3.03218e+02	1.61900e+03	2.67023e+00	3.00000e+02
1650	3.03220e+02	1.65000e+03	2.66314e+00	3.00000e+02
1681	3.03206e+02	1.68100e+03	2.65603e+00	3.00000e+02
1712	3.03214e+02	1.71200e+03	2.64918e+00	3.00000e+02
1743	3.03202e+02	1.74300e+03	2.64282e+00	3.00000e+02
1774	3.03193e+02	1.77400e+03	2.63625e+00	3.00000e+02
1805	3.03192e+02	1.80500e+03	2.62978e+00	3.00000e+02
1836	3.03188e+02	1.83600e+03	2.62345e+00	3.00000e+02
1867	3.03181e+02	1.86700e+03	2.61736e+00	3.00000e+02
1898	3.03175e+02	1.89800e+03	2.61098e+00	3.00000e+02
1929	3.03167e+02	1.92900e+03	2.60470e+00	3.00000e+02
1960	3.03169e+02	1.96000e+03	2.59894e+00	3.00000e+02
1991	3.03154e+02	1.99100e+03	2.59317e+00	3.00000e+02
2022	3.03154e+02	2.02200e+03	2.58727e+00	3.00000e+02
2053	3.03151e+02	2.05300e+03	2.58161e+00	3.00000e+02
2084	3.03158e+02	2.08400e+03	2.57578e+00	3.00000e+02
2115	3.03144e+02	2.11500e+03	2.57043e+00	3.00000e+02
2146	3.03153e+02	2.14600e+03	2.56466e+00	3.00000e+02
2177	3.03146e+02	2.17700e+03	2.55936e+00	3.00000e+02
2208	3.03144e+02	2.20800e+03	2.55384e+00	3.00000e+02
2239	3.03148e+02	2.23900e+03	2.54819e+00	3.00000e+02
2270	3.03158e+02	2.27000e+03	2.54313e+00	3.00000e+02
2301	3.03144e+02	2.30100e+03	2.53810e+00	3.00000e+02
2332	3.03147e+02	2.33200e+03	2.53265e+00	3.00000e+02
2363	3.03147e+02	2.36300e+03	2.52766e+00	3.00000e+02
2394	3.03145e+02	2.39400e+03	2.52234e+00	3.00000e+02
2425	3.03135e+02	2.42500e+03	2.51761e+00	3.00000e+02
2456	3.03125e+02	2.45600e+03	2.51215e+00	3.00000e+02
2487	3.03145e+02	2.48700e+03	2.50741e+00	3.00000e+02
2518	3.03135e+02	2.51800e+03	2.50270e+00	3.00000e+02
2549	3.03128e+02	2.54900e+03	2.49773e+00	3.00000e+02
2580	3.03143e+02	2.58000e+03	2.49283e+00	3.00000e+02
2611	3.03144e+02	2.61100e+03	2.48809e+00	3.00000e+02
2642	3.03128e+02	2.64200e+03	2.48350e+00	3.00000e+02
2673	3.03131e+02	2.67300e+03	2.47882e+00	3.00000e+02
2704	3.03144e+02	2.70400e+03	2.47396e+00	3.00000e+02
2735	3.03131e+02	2.73500e+03	2.46961e+00	3.00000e+02
2766	3.03136e+02	2.76600e+03	2.46469e+00	3.00000e+02
2797	3.03143e+02	2.79700e+03	2.46040e+00	3.00000e+02
2828	3.03128e+02	2.82800e+03	2.45571e+00	3.00000e+02
2859	3.03131e+02	2.85900e+03	2.45126e+00	3.00000e+02
2890	3.03134e+02	2.89000e+03	2.44694e+00	3.00000e+02
2921	3.03121e+02	2.92100e+03	2.44254e+00	3.00000e+02
2952	3.03121e+02	2.95200e+03	2.43810e+00	3.00000e+02
2983	3.03123e+02	2.98300e+03	2.43400e+00	3.00000e+02
3014	3.03119e+02	3.01400e+03	2.42943e+00	3.00000e+02
3045	3.03129e+02	3.04500e+03	2.42500e+00	3.00000e+02
3076	3.03119e+02	3.07600e+03	2.42098e+00	3.00000e+02
3107	3.03119e+02	3.10700e+03	2.41643e+00	3.00000e+02
3138	3.03128e+02	3.13800e+03	2.41245e+00	3.00000e+02
3169	3.03124e+02	3.16900e+03	2.40815e+00	3.00000e+02
3200	3.03121e+02	3.20000e+03	2.40402e+00	3.00000e+02
3231	3.03119e+02	3.23100e+03	2.39993e+00	3.00000e+02
3262	3.03117e+02	3.26200e+03	2.39575e+00	3.00000e+02
3293	3.03111e+02	3.29300e+03	2.39172e+00	3.00000e+02
3324	3.03112e+02	3.32400e+03	2.38763e+00	3.00000e+02
3355	3.03118e+02	3.35500e+03	2.38378e+00	3.00000e+02
3386	3.03116e+02	3.38600e+03	2.37960e+00	3.00000e+02
3417	3.03111e+02	3.41700e+03	2.37569e+00	3.00000e+02
3448	3.03119e+02	3.44800e+03	2.37162e+00	3.00000e+02
3479	3.03117e+02	3.47900e+03	2.36754e+00	3.00000e+02
3510	3.03105e+02	3.51000e+03	2.36373e+00	3.00000e+02
3541	3.03118e+02	3.54100e+03	2.35976e+00	3.00000e+02
3572	3.03111e+02	3.57200e+03	2.35601e+00	3.00000e+02
3603	3.03120e+02	3.60300e+03	2.35202e+00	3.00000e+02
3634	3.03115e+02	3.63400e+03	2.34817e+00	3.00000e+02
3665	3.03114e+02	3.66500e+03	2.34444e+00	3.00000e+02
3696	3.03121e+02	3.69600e+03	2.34072e+00	3.00000e+02
3727	3.03115e+02	3.72700e+03	2.33693e+00	3.00000e+02
3758	3.03116e+02	3.75800e+03	2.33300e+00	3.00000e+02
3789	3.03115e+02	3.78900e+03	2.32937e+00	3.00000e+02
3820	3.03095e+02	3.82000e+03	2.32545e+00	3.00000e+02
3851	3.03092e+02	3.85100e+03	2.32192e+00	3.00000e+02
3882	3.03099e+02	3.88200e+03	2.31818e+00	3.00000e+02
3913	3.03108e+02	3.91300e+03	2.31452e+00	3.00000e+02
3944	3.03104e+02	3.94400e+03	2.31078e+00	3.00000e+02
3975	3.03109e+02	3.97500e+03	2.30716e+00	3.00000e+02
4006	3.03110e+02	4.00600e+03	2.30355e+00	3.00000e+02
4037	3.03100e+02	4.03700e+03	2.29972e+00	3.00000e+02
4068	3.03097e+02	4.06800e+03	2.29626e+00	3.00000e+02
4099	3.03106e+02	4.09900e+03	2.29257e+00	3.00000e+02
4130	3.03108e+02	4.13000e+03	2.28903e+00	3.00000e+02
4161	3.03113e+02	4.16100e+03	2.28569e+00	3.00000e+02
4192	3.03104e+02	4.19200e+03	2.28203e+00	3.00000e+02
4223	3.03106e+02	4.22300e+03	2.27800e+00	3.00000e+02
4254	3.03108e+02	4.25400e+03	2.27511e+00	3.00000e+02
4285	3.03112e+02	4.28500e+03	2.27136e+00	3.00000e+02
4316	3.03107e+02	4.31600e+03	2.26789e+00	3.00000e+02
4347	3.03114e+02	4.34700e+03	2.26436e+00	3.00000e+02
4378	3.03116e+02	4.37800e+03	2.26100e+00	3.00000e+02
4409	3.03124e+02	4.40900e+03	2.25726e+00	3.00000e+02
4440	3.03122e+02	4.44000e+03	2.25390e+00	3.00000e+02
4471	3.03129e+02	4.47100e+03	2.25032e+00	3.00000e+02
4502	3.03117e+02	4.50200e+03	2.24703e+00	3.00000e+02
4533	3.03118e+02	4.53300e+03	2.24364e+00	3.00000e+02
4564	3.03115e+02	4.56400e+03	2.24047e+00	3.00000e+02
4595	3.03124e+02	4.59500e+03	2.23689e+00	3.00000e+02
4626	3.03125e+02	4.62600e+03	2.23359e+00	3.00000e+02
4657	3.03135e+02	4.65700e+03	2.23025e+00	3.00000e+02
4688	3.03123e+02	4.68800e+03	2.22692e+00	3.00000e+02
4719	3.03122e+02	4.71900e+03	2.22337e+00	3.00000e+02
4750	3.03121e+02	4.75000e+03	2.21994e+00	3.00000e+02
4781	3.03123e+02	4.78100e+03	2.21678e+00	3.00000e+02
4812	3.03113e+02	4.81200e+03	2.21356e+00	3.00000e+02
4843	3.03122e+02	4.84300e+03	2.21031e+00	3.00000e+02
4874	3.03120e+02	4.87400e+03	2.20703e+00	3.00000e+02
4905	3.03111e+02	4.90500e+03	2.20374e+00	3.00000e+02
4936	3.03121e+02	4.93600e+03	2.20072e+00	3.00000e+02
4967	3.03121e+02	4.96700e+03	2.19747e+00	3.00000e+02
4998	3.03117e+02	4.99800e+03	2.19423e+00	3.00000e+02
5029	3.03108e+02	5.02900e+03	2.19102e+00	3.00000e+02
5060	3.03120e+02	5.06000e+03	2.18783e+00	3.00000e+02
5091	3.03113e+02	5.09100e+03	2.18446e+00	3.00000e+02
5122	3.03097e+02	5.12200e+03	2.18141e+00	3.00000e+02
5153	3.03109e+02	5.15300e+03	2.17836e+00	3.00000e+02
5184	3.03102e+02	5.18400e+03	2.17512e+00	3.00000e+02
5215	3.03113e+02	5.21500e+03	2.17183e+00	3.00000e+02
5246	3.03100e+02	5.24600e+03	2.16886e+00	3.00000e+02
5277	3.03114e+02	5.27700e+03	2.16562e+00	3.00000e+02
5308	3.03108e+02	5.30800e+03	2.16269e+00	3.00000e+02
5339	3.03117e+02	5.33900e+03	2.15947e+00	3.00000e+02
5370	3.03107e+02	5.37000e+03	2.15619e+00	3.00000e+02
5401	3.03104e+02	5.40100e+03	2.15354e+00	3.00000e+02
5432	3.03098e+02	5.43200e+03	2.15035e+00	3.00000e+02
5463	3.03122e+02	5.46300e+03	2.14720e+00	3.00000e+02
5494	3.03118e+02	5.49400e+03	2.14448e+00	3.00000e+02
5525	3.03122e+02	5.52500e+03	2.14112e+00	3.00000e+02
5556	3.03109e+02	5.55600e+03	2.13812e+00	3.00000e+02
5587	3.03116e+02	5.58700e+03	2.13494e+00	3.00000e+02
5618	3.03113e+02	5.61800e+03	2.13203e+00	3.00000e+02
5649	3.03111e+02	5.64900e+03	2.12884e+00	3.00000e+02
5680	3.03103e+02	5.68000e+03	2.12609e+00	3.00000e+02
5711	3.03091e+02	5.71100e+03	2.12317e+00	3.00000e+02
5742	3.03095e+02	5.74200e+03	2.12021e+00	3.00000e+02
5773	3.03106e+02	5.77300e+03	2.11719e+00	3.00000e+02
5804	3.03105e+02	5.80400e+03	2.11416e+00	3.00000e+02
5835	3.03097e+02	5.83500e+03	2.11125e+00	3.00000e+02
5866	3.03100e+02	5.86600e+03	2.10814e+00	3.00000e+02
5897	3.03116e+02	5.89700e+03	2.10516e+00	3.00000e+02
5928	3.03102e+02	5.92800e+03	2.10234e+00	3.00000e+02
5959	3.03101e+02	5.95900e+03	2.09959e+00	3.00000e+02
5990	3.03102e+02	5.99000e+03	2.09681e+00	3.00000e+02
6021	3.03103e+02	6.02100e+03	2.09407e+00	3.00000e+02
6052	3.03105e+02	6.05200e+03	2.09116e+00	3.00000e+02
6083	3.03110e+02	6.08300e+03	2.08815e+00	3.00000e+02
6114	3.03111e+02	6.11400e+03	2.08508e+00	3.00000e+02
6145	3.03104e+02	6.14500e+03	2.08237e+00	3.00000e+02
6176	3.03108e+02	6.17600e+03	2.07970e+00	3.00000e+02
6207	3.03108e+02	6.20700e+03	2.07685e+00	3.00000e+02
6238	3.03100e+02	6.23800e+03	2.07371e+00	3.00000e+02
6269	3.03105e+02	6.26900e+03	2.07095e+00	3.00000e+02
6300	3.03103e+02	6.30000e+03	2.06808e+00	3.00000e+02
6331	3.03112e+02	6.33100e+03	2.06541e+00	3.00000e+02
6362	3.03109e+02	6.36200e+03	2.06261e+00	3.00000e+02
6393	3.03104e+02	6.39300e+03	2.05970e+00	3.00000e+02
6424	3.03111e+02	6.42400e+03	2.05707e+00	3.00000e+02
6455	3.03119e+02	6.45500e+03	2.05447e+00	3.00000e+02
6486	3.03104e+02	6.48600e+03	2.05176e+00	3.00000e+02
6517	3.03108e+02	6.51700e+03	2.04920e+00	3.00000e+02
6548	3.03106e+02	6.54800e+03	2.04654e+00	3.00000e+02
6579	3.03116e+02	6.57900e+03	2.04358e+00	3.00000e+02
6610	3.03108e+02	6.61000e+03	2.04081e+00	3.00000e+02
6641	3.03108e+02	6.64100e+03	2.03802e+00	3.00000e+02
6672	3.03104e+02	6.67200e+03	2.03548e+00	3.00000e+02
6703	3.03113e+02	6.70300e+03	2.03266e+00	3.00000e+02
6734	3.03101e+02	6.73400e+03	2.03010e+00	3.00000e+02
6765	3.03099e+02	6.76500e+03	2.02734e+00	3.00000e+02
6796	3.03104e+02	6.79600e+03	2.02451e+00	3.00000e+02
6827	3.03108e+02	6.82700e+03	2.02195e+00	3.00000e+02
6858	3.03104e+02	6.85800e+03	2.01941e+00	3.00000e+02
6889	3.03107e+02	6.88900e+03	2.01688e+00	3.00000e+02
6920	3.03115e+02	6.92000e+03	2.01409e+00	3.00000e+02
6951	3.03104e+02	6.95100e+03	2.01135e+00	3.00000e+02
6982	3.03101e+02	6.98200e+03	2.00875e+00	3.00000e+02
7013	3.03103e+02	7.01300e+03	2.00613e+00	3.00000e+02
7044	3.03110e+02	7.04400e+03	2.00340e+00	3.00000e+02
7075	3.03095e+02	7.07500e+03	2.00096e+00	3.00000e+02
7106	3.03110e+02	7.10600e+03	1.99832e+00	3.00000e+02
7137	3.03108e+02	7.13700e+03	1.99571e+00	3.00000e+02
7168	3.03121e+02	7.16800e+03	1.99320e+00	3.00000e+02
7199	3.03112e+02	7.19900e+03	1.99093e+00	3.00000e+02
7230	3.03108e+02	7.23000e+03	1.98802e+00	3.00000e+02
7261	3.03115e+02	7.26100e+03	1.98539e+00	3.00000e+02
7292	3.03104e+02	7.29200e+03	1.98290e+00	3.00000e+02
7323	3.03113e+02	7.32300e+03	1.98045e+00	3.00000e+02
7354	3.03114e+02	7.35400e+03	1.97785e+00	3.00000e+02
7385	3.03104e+02	7.38500e+03	1.97542e+00	3.00000e+02
7416	3.03111e+02	7.41600e+03	1.97285e+00	3.00000e+02
7447	3.03106e+02	7.44700e+03	1.97025e+00	3.00000e+02
7478	3.03109e+02	7.47800e+03	1.96779e+00	3.00000e+02
7509	3.03107e+02	7.50900e+03	1.96530e+00	3.00000e+02
7540	3.03103e+02	7.54000e+03	1.96285e+00	3.00000e+02
7571	3.03106e+02	7.57100e+03	1.96031e+00	3.00000e+02
7602	3.03121e+02	7.60200e+03	1.95796e+00	3.00000e+02
7633	3.03109e+02	7.63300e+03	1.95551e+00	3.00000e+02
7664	3.03115e+02	7.66400e+03	1.95309e+00	3.00000e+02
7695	3.03120e+02	7.69500e+03	1.95052e+00	3.00000e+02
7726	3.03109e+02	7.72600e+03	1.94808e+00	3.00000e+02
7757	3.03110e+02	7.75700e+03	1.94557e+00	3.00000e+02
7788	3.03116e+02	7.78800e+03	1.94333e+00	3.00000e+02
7819	3.03102e+02	7.81900e+03	1.94069e+00	3.00000e+02
7850	3.03109e+02	7.85000e+03	1.93854e+00	3.00000e+02
7881	3.03119e+02	7.88100e+03	1.93606e+00	3.00000e+02
7912	3.03107e+02	7.91200e+03	1.93340e+00	3.00000e+02
7943	3.03102e+02	7.94300e+03	1.93117e+00	3.00000e+02
7974	3.03118e+02	7.97400e+03	1.92887e+00	3.00000e+02
8005	3.03119e+02	8.00500e+03	1.92634e+00	3.00000e+02
8036	3.03114e+02	8.03600e+03	1.92380e+00	3.00000e+02
8067	3.03111e+02	8.06700e+03	1.92149e+00	3.00000e+02
8098	3.03108e+02	8.09800e+03	1.91929e+00	3.00000e+02
8129	3.03114e+02	8.12900e+03	1.91684e+00	3.00000e+02
8160	3.03111e+02	8.16000e+03	1.91448e+00	3.00000e+02
8191	3.03116e+02	8.19100e+03	1.91217e+00	3.00000e+02
8222	3.03105e+02	8.22200e+03	1.90992e+00	3.00000e+02
8253	3.03102e+02	8.25300e+03	1.90778e+00	3.00000e+02
8284	3.03104e+02	8.28400e+03	1.90532e+00	3.00000e+02
8315	3.03111e+02	8.31500e+03	1.90280e+00	3.00000e+02
8346	3.03107e+02	8.34600e+03	1.90054e+00	3.00000e+02
8377	3.03099e+02	8.37700e+03	1.89824e+00	3.00000e+02
8408	3.03111e+02	8.40800e+03	1.89590e+00	3.00000e+02
8439	3.03109e+02	8.43900e+03	1.89373e+00	3.00000e+02
8470	3.03111e+02	8.47000e+03	1.89123e+00	3.00000e+02
8501	3.03107e+02	8.50100e+03	1.88890e+00	3.00000e+02
8532	3.03104e+02	8.53200e+03	1.88664e+00	3.00000e+02
8563	3.03109e+02	8.56300e+03	1.88435e+00	3.00000e+02
8594	3.03107e+02	8.59400e+03	1.88198e+00	3.00000e+02
8625	3.03100e+02	8.62500e+03	1.87974e+00	3.00000e+02
8656	3.03098e+02	8.65600e+03	1.87777e+00	3.00000e+02
8687	3.03103e+02	8.68700e+03	1.87541e+00	3.00000e+02
8718	3.03103e+02	8.71800e+03	1.87332e+00	3.00000e+02
8749	3.03096e+02	8.74900e+03	1.87110e+00	3.00000e+02
8780	3.03099e+02	8.78000e+03	1.86871e+00	3.00000e+02
8811	3.03102e+02	8.81100e+03	1.86660e+00	3.00000e+02
8842	3.03109e+02	8.84200e+03	1.86428e+00	3.00000e+02
8873	3.03111e+02	8.87300e+03	1.86220e+00	3.00000e+02
8904	3.03122e+02	8.90400e+03	1.85997e+00	3.00000e+02
8935	3.03102e+02	8.93500e+03	1.85754e+00	3.00000e+02
8966	3.03099e+02	8.96600e+03	1.85552e+00	3.00000e+02
8997	3.03106e+02	8.99700e+03	1.85326e+00	3.00000e+02
9028	3.03093e+02	9.02800e+03	1.85123e+00	3.00000e+02
9059	3.03104e+02	9.05900e+03	1.84897e+00	3.00000e+02
9090	3.03108e+02	9.09000e+03	1.84684e+00	3.00000e+02
9121	3.03119e+02	9.12100e+03	1.84478e+00	3.00000e+02
9152	3.03103e+02	9.15200e+03	1.84232e+00	3.00000e+02
9183	3.03098e+02	9.18300e+03	1.84037e+00	3.00000e+02
9214	3.03111e+02	9.21400e+03	1.83824e+00	3.00000e+02
9245	3.03100e+02	9.24500e+03	1.83597e+00	3.00000e+02
9276	3.03101e+02	9.27600e+03	1.83387e+00	3.00000e+02
9307	3.03091e+02	9.30700e+03	1.83186e+00	3.00000e+02
9338	3.03107e+02	9.33800e+03	1.82971e+00	3.00000e+02
9369	3.03098e+02	9.36900e+03	1.82742e+00	3.00000e+02
9400	3.03097e+02	9.40000e+03	1.82527e+00	3.00000e+02
9431	3.03102e+02	9.43100e+03	1.82332e+00	3.00000e+02
9462	3.03114e+02	9.46200e+03	1.82114e+00	3.00000e+02
9493	3.03098e+02	9.49300e+03	1.81908e+00	3.00000e+02
9524	3.03103e+02	9.52400e+03	1.81698e+00	3.00000e+02
9555	3.03114e+02	9.55500e+03	1.81507e+00	3.00000e+02
9586	3.03111e+02	9.58600e+03	1.81290e+00	3.00000e+02
9617	3.03100e+02	9.61700e+03	1.81081e+00	3.00000e+02
9648	3.03107e+02	9.64800e+03	1.80880e+00	3.00000e+02
9679	3.03104e+02	9.67900e+03	1.80682e+00	3.00000e+02
9710	3.03098e+02	9.71000e+03	1.80467e+00	3.00000e+02
9741	3.03105e+02	9.74100e+03	1.80256e+00	3.00000e+02
9772	3.03104e+02	9.77200e+03	1.80051e+00	3.00000e+02
9803	3.03113e+02	9.80300e+03	1.79845e+00	3.00000e+02
9834	3.03100e+02	9.83400e+03	1.79621e+00	3.00000e+02
9865	3.03119e+02	9.86500e+03	1.79438e+00	3.00000e+02
9896	3.03106e+02	9.89600e+03	1.79234e+00	3.00000e+02
9927	3.03099e+02	9.92700e+03	1.79028e+00	3.00000e+02
9958	3.03107e+02	9.95800e+03	1.78811e+00	3.00000e+02
9989	3.03103e+02	9.98900e+03	1.78629e+00	3.00000e+02
10020	3.03104e+02	1.00200e+04	1.78397e+00	3.00000e+02
10051	3.03114e+02	1.00510e+04	1.78222e+00	3.00000e+02
10082	3.03123e+02	1.00820e+04	1.78024e+00	3.00000e+02
10113	3.03109e+02	1.01130e+04	1.77814e+00	3.00000e+02
10144	3.03110e+02	1.01440e+04	1.77612e+00	3.00000e+02
10175	3.03121e+02	1.01750e+04	1.77418e+00	3.00000e+02
10206	3.03108e+02	1.02060e+04	1.77219e+00	3.00000e+02
10237	3.03115e+02	1.02370e+04	1.77021e+00	3.00000e+02
10268	3.03118e+02	1.02680e+04	1.76843e+00	3.00000e+02
10299	3.03104e+02	1.02990e+04	1.76628e+00	3.00000e+02
10330	3.03110e+02	1.03300e+04	1.76443e+00	3.00000e+02
10361	3.03109e+02	1.03610e+04	1.76239e+00	3.00000e+02
10392	3.03112e+02	1.03920e+04	1.76050e+00	3.00000e+02
10423	3.03102e+02	1.04230e+04	1.75840e+00	3.00000e+02
10454	3.03113e+02	1.04540e+04	1.75649e+00	3.00000e+02
10485	3.03092e+02	1.04850e+04	1.75439e+00	3.00000e+02
10516	3.03098e+02	1.05160e+04	1.75256e+00	3.00000e+02
10547	3.03098e+02	1.05470e+04	1.75062e+00	3.00000e+02
10578	3.03105e+02	1.05780e+04	1.74861e+00	3.00000e+02
10609	3.03089e+02	1.06090e+04	1.74647e+00	3.00000e+02
10640	3.03116e+02	1.06400e+04	1.74477e+00	3.00000e+02
10671	3.03097e+02	1.06710e+04	1.74291e+00	3.00000e+02
10702	3.03092e+02	1.07020e+04	1.74075e+00	3.00000e+02
10733	3.03098e+02	1.07330e+04	1.73879e+00	3.00000e+02
10764	3.03094e+02	1.07640e+04	1.73700e+00	3.00000e+02
10795	3.03095e+02	1.07950e+04	1.73530e+00	3.00000e+02
10826	3.03107e+02	1.08260e+04	1.73330e+00	3.00000e+02
10857	3.03118e+02	1.08570e+04	1.73130e+00	3.00000e+02
10888	3.03114e+02	1.08880e+04	1.72939e+00	3.00000e+02
10919	3.03099e+02	1.09190e+04	1.72780e+00	3.00000e+02
10950	3.03091e+02	1.09500e+04	1.72580e+00	3.00000e+02
10981	3.03094e+02	1.09810e+04	1.72383e+00	3.00000e+02
11012	3.03091e+02	1.10120e+04	1.72216e+00	3.00000e+02
11043	3.03091e+02	1.10430e+04	1.72013e+00	3.00000e+02
11074	3.03097e+02	1.10740e+04	1.71816e+00	3.00000e+02
11105	3.03091e+02	1.11050e+04	1.71643e+00	3.00000e+02
11136	3.03103e+02	1.11360e+04	1.71463e+00	3.00000e+02
11167	3.03116e+02	1.11670e+04	1.71287e+00	3.00000e+02
11198	3.03103e+02	1.11980e+04	1.71091e+00	3.00000e+02
11229	3.03094e+02	1.12290e+04	1.70902e+00	3.00000e+02
11260	3.03095e+02	1.12600e+04	1.70718e+00	3.00000e+02
11291	3.03092e+02	1.12910e+04	1.70550e+00	3.00000e+02
11322	3.03090e+02	1.13220e+04	1.70372e+00	3.00000e+02
11353	3.03100e+02	1.13530e+04	1.70154e+00	3.00000e+02
11384	3.03090e+02	1.13840e+04	1.69989e+00	3.00000e+02
11415	3.03100e+02	1.14150e+04	1.69819e+00	3.00000e+02
11446	3.03089e+02	1.14460e+04	1.69630e+00	3.00000e+02
11477	3.03097e+02	1.14770e+04	1.69451e+00	3.00000e+02
11508	3.03096e+02	1.15080e+04	1.69267e+00	3.00000e+02
11539	3.03095e+02	1.15390e+04	1.69098e+00	3.00000e+02
11570	3.03100e+02	1.15700e+04	1.68911e+00	3.00000e+02
11601	3.03084e+02	1.16010e+04	1.68742e+00	3.00000e+02
11632	3.03098e+02	1.16320e+04	1.68560e+00	3.00000e+02
11663	3.03088e+02	1.16630e+04	1.68390e+00	3.00000e+02
11694	3.03093e+02	1.16940e+04	1.68204e+00	3.00000e+02
11725	3.03085e+02	1.17250e+04	1.68036e+00	3.00000e+02
11756	3.03101e+02	1.17560e+04	1.67855e+00	3.00000e+02
11787	3.03097e+02	1.17870e+04	1.67678e+00	3.00000e+02
11818	3.03093e+02	1.18180e+04	1.67510e+00	3.00000e+02
11849	3.03088e+02	1.18490e+04	1.67341e+00	3.00000e+02
11880	3.03084e+02	1.18800e+04	1.67142e+00	3.00000e+02
11911	3.03080e+02	1.19110e+04	1.66977e+00	3.00000e+02
11942	3.03084e+02	1.19420e+04	1.66806e+00	3.00000e+02
11973	3.03084e+02	1.19730e+04	1.66625e+00	3.00000e+02
12004	3.03090e+02	1.20040e+04	1.66450e+00	3.00000e+02
12035	3.03090e+02	1.20350e+04	1.66254e+00	3.00000e+02
12066	3.03094e+02	1.20660e+04	1.66091e+00	3.00000e+02
12097	3.03088e+02	1.20970e+04	1.65937e+00	3.00000e+02
12128	3.03100e+02	1.21280e+04	1.65748e+00	3.00000e+02
12159	3.03094e+02	1.21590e+04	1.65562e+00	3.00000e+02
12190	3.03091e+02	1.21900e+04	1.65400e+00	3.00000e+02
12221	3.03105e+02	1.22210e+04	1.65248e+00	3.00000e+02
12252	3.03102e+02	1.22520e+04	1.65065e+00	3.00000e+02
12283	3.03094e+02	1.22830e+04	1.64894e+00	3.00000e+02
12314	3.03095e+02	1.23140e+04	1.64715e+00	3.00000e+02
12345	3.03098e+02	1.23450e+04	1.64568e+00	3.00000e+02
12376	3.03095e+02	1.23760e+04	1.64382e+00	3.00000e+02
12407	3.03096e+02	1.24070e+04	1.64213e+00	3.00000e+02
12438	3.03099e+02	1.24380e+04	1.64050e+00	3.00000e+02
12469	3.03081e+02	1.24690e+04	1.63881e+00	3.00000e+02
12500	3.03091e+02	1.25000e+04	1.63687e+00	3.00000e+02
12531	3.03096e+02	1.25310e+04	1.63527e+00	3.00000e+02
12562	3.03086e+02	1.25620e+04	1.63376e+00	3.00000e+02
12593	3.03088e+02	1.25930e+04	1.63211e+00	3.00000e+02
12624	3.03098e+02	1.26240e+04	1.63045e+00	3.00000e+02
12655	3.03096e+02	1.26550e+04	1.62866e+00	3.00000e+02
12686	3.03092e+02	1.26860e+04	1.62696e+00	3.00000e+02
12717	3.03090e+02	1.27170e+04	1.62525e+00	3.00000e+02
12748	3.03090e+02	1.27480e+04	1.62347e+00	3.00000e+02
12779	3.03093e+02	1.27790e+04	1.62202e+00	3.00000e+02
12810	3.03097e+02	1.28100e+04	1.62051e+00	3.00000e+02
12841	3.03094e+02	1.28410e+04	1.61873e+00	3.00000e+02
12872	3.03091e+02	1.28720e+04	1.61707e+00	3.00000e+02
12903	3.03088e+02	1.29030e+04	1.61548e+00	3.00000e+02
12934	3.03094e+02	1.29340e+04	1.61382e+00	3.00000e+02
12965	3.03089e+02	1.29650e+04	1.61209e+00	3.00000e+02
12996	3.03090e+02	1.29960e+04	1.61060e+00	3.00000e+02
13027	3.03089e+02	1.30270e+04	1.60888e+00	3.00000e+02
13058	3.03079e+02	1.30580e+04	1.60728e+00	3.00000e+02
13089	3.03087e+02	1.30890e+04	1.60547e+00	3.00000e+02
13120	3.03088e+02	1.31200e+04	1.60405e+00	3.00000e+02
13151	3.03089e+02	1.31510e+04	1.60249e+00	3.00000e+02
13182	3.03085e+02	1.31820e+04	1.60089e+00	3.00000e+02
13213	3.03089e+02	1.32130e+04	1.59919e+00	3.00000e+02
13244	3.03087e+02	1.32440e+04	1.59762e+00	3.00000e+02
13275	3.03082e+02	1.32750e+04	1.59615e+00	3.00000e+02
13306	3.03086e+02	1.33060e+04	1.59405e+00	3.00000e+02
13337	3.03076e+02	1.33370e+04	1.59256e+00	3.00000e+02
13368	3.03067e+02	1.33680e+04	1.59103e+00	3.00000e+02
13399	3.03080e+02	1.33990e+04	1.58955e+00	3.00000e+02
13430	3.03075e+02	1.34300e+04	1.58757e+00	3.00000e+02
13461	3.03098e+02	1.34610e+04	1.58627e+00	3.00000e+02
13492	3.03087e+02	1.34920e+04	1.58462e+00	3.00000e+02
13523	3.03096e+02	1.35230e+04	1.58302e+00	3.00000e+02
13554	3.03085e+02	1.35540e+04	1.58147e+00	3.00000e+02
13585	3.03104e+02	1.35850e+04	1.57981e+00	3.00000e+02
13616	3.03085e+02	1.36160e+04	1.57822e+00	3.00000e+02
13647	3.03083e+02	1.36470e+04	1.57679e+00	3.00000e+02
13678	3.03087e+02	1.36780e+04	1.57521e+00	3.00000e+02
13709	3.03084e+02	1.37090e+04	1.57357e+00	3.00000e+02
13740	3.03079e+02	1.37400e+04	1.57194e+00	3.00000e+02
13771	3.03089e+02	1.37710e+04	1.57041e+00	3.00000e+02
13802	3.03092e+02	1.38020e+04	1.56885e+00	3.00000e+02
13833	3.03091e+02	1.38330e+04	1.56727e+00	3.00000e+02
13864	3.03082e+02	1.38640e+04	1.56566e+00	3.00000e+02
13895	3.03086e+02	1.38950e+04	1.56416e+00	3.00000e+02
13926	3.03080e+02	1.39260e+04	1.56258e+00	3.00000e+02
13957	3.03074e+02	1.39570e+04	1.56124e+00	3.00000e+02
13988	3.03085e+02	1.39880e+04	1.55953e+00	3.00000e+02
14019	3.03069e+02	1.40190e+04	1.55818e+00	3.00000e+02
14050	3.03082e+02	1.40500e+04	1.55666e+00	3.00000e+02
14081	3.03075e+02	1.40810e+04	1.55509e+00	3.00000e+02
14112	3.03078e+02	1.41120e+04	1.55359e+00	3.00000e+02
14143	3.03079e+02	1.41430e+04	1.55204e+00	3.00000e+02
14174	3.03080e+02	1.41740e+04	1.55042e+00	3.00000e+02
14205	3.03097e+02	1.42050e+04	1.54893e+00	3.00000e+02
14236	3.03088e+02	1.42360e+04	1.54724e+00	3.00000e+02
14267	3.03092e+02	1.42670e+04	1.54585e+00	3.00000e+02
14298	3.03085e+02	1.42980e+04	1.54440e+00	3.00000e+02
14329	3.03090e+02	1.43290e+04	1.54286e+00	3.00000e+02
14360	3.03078e+02	1.43600e+04	1.54150e+00	3.00000e+02
14391	3.03082e+02	1.43910e+04	1.54005e+00	3.00000e+02
14422	3.03087e+02	1.44220e+04	1.53869e+00	3.00000e+02
14453	3.03080e+02	1.44530e+04	1.53713e+00	3.00000e+02
14484	3.03092e+02	1.44840e+04	1.53551e+00	3.00000e+02
14515	3.03080e+02	1.45150e+04	1.53417e+00	3.00000e+02
14546	3.03082e+02	1.45460e+04	1.53244e+00	3.00000e+02
14577	3.03079e+02	1.45770e+04	1.53115e+00	3.00000e+02
14608	3.03073e+02	1.46080e+04	1.52961e+00	3.00000e+02
14639	3.03077e+02	1.46390e+04	1.52816e+00	3.00000e+02
14670	3.03079e+02	1.46700e+04	1.52663e+00	3.00000e+02
14701	3.03078e+02	1.47010e+04	1.52510e+00	3.00000e+02
14732	3.03077e+02	1.47320e+04	1.52370e+00	3.00000e+02
14763	3.03078e+02	1.47630e+04	1.52232e+00	3.00000e+02
14794	3.03086e+02	1.47940e+04	1.52079e+00	3.00000e+02
14825	3.03087e+02	1.48250e+04	1.51936e+00	3.00000e+02
14856	3.03078e+02	1.48560e+04	1.51789e+00	3.00000e+02
14887	3.03083e+02	1.48870e+04	1.51634e+00	3.00000e+02
14918	3.03082e+02	1.49180e+04	1.51523e+00	3.00000e+02
14949	3.03072e+02	1.49490e+04	1.51351e+00	3.00000e+02
14980	3.03080e+02	1.49800e+04	1.51206e+00	3.00000e+02
15011	3.03087e+02	1.50110e+04	1.51075e+00	3.00000e+02
15042	3.03089e+02	1.50420e+04	1.50959e+00	3.00000e+02
15073	3.03086e+02	1.50730e+04	1.50769e+00	3.00000e+02
15104	3.03085e+02	1.51040e+04	1.50656e+00	3.00000e+02
15135	3.03084e+02	1.51350e+04	1.50513e+00	3.00000e+02
15166	3.03081e+02	1.51660e+04	1.50389e+00	3.00000e+02
15197	3.03090e+02	1.51970e+04	1.50211e+00	3.00000e+02
15228	3.03089e+02	1.52280e+04	1.50091e+00	3.00000e+02
15259	3.03086e+02	1.52590e+04	1.49959e+00	3.00000e+02
15290	3.03092e+02	1.52900e+04	1.49809e+00	3.00000e+02
15321	3.03094e+02	1.53210e+04	1.49632e+00	3.00000e+02
15352	3.03102e+02	1.53520e+04	1.49524e+00	3.00000e+02
15383	3.03086e+02	1.53830e+04	1.49388e+00	3.00000e+02
15414	3.03087e+02	1.54140e+04	1.49252e+00	3.00000e+02
15445	3.03093e+02	1.54450e+04	1.49093e+00	3.00000e+02
15476	3.03104e+02	1.54760e+04	1.48965e+00	3.00000e+02
15507	3.03089e+02	1.55070e+04	1.48827e+00	3.00000e+02
15538	3.03086e+02	1.55380e+04	1.48688e+00	3.00000e+02
15569	3.03095e+02	1.55690e+04	1.48551e+00	3.00000e+02
15600	3.03090e+02	1.56000e+04	1.48410e+00	3.00000e+02
15631	3.03092e+02	1.56310e+04	1.48271e+00	3.00000e+02
15662	3.03094e+02	1.56620e+04	1.48143e+00	3.00000e+02
15693	3.03085e+02	1.56930e+04	1.47990e+00	3.00000e+02
15724	3.03083e+02	1.57240e+04	1.47863e+00	3.00000e+02
15755	3.03084e+02	1.57550e+04	1.47714e+00	3.00000e+02
15786	3.03079e+02	1.57860e+04	1.47581e+00	3.00000e+02
15817	3.03086e+02	1.58170e+04	1.47444e+00	3.00000e+02
15848	3.03077e+02	1.58480e+04	1.47308e+00	3.00000e+02
15879	3.03084e+02	1.58790e+04	1.47165e+00	3.00000e+02
15910	3.03085e+02	1.59100e+04	1.47052e+00	3.00000e+02
15941	3.03078e+02	1.59410e+04	1.46888e+00	3.00000e+02
15972	3.03087e+02	1.59720e+04	1.46779e+00	3.00000e+02
16003	3.03084e+02	1.60030e+04	1.46634e+00	3.00000e+02
16034	3.03077e+02	1.60340e+04	1.46502e+00	3.00000e+02
16065	3.03078e+02	1.60650e+04	1.46378e+00	3.00000e+02
16096	3.03075e+02	1.60960e+04	1.46218e+00	3.00000e+02
16127	3.03077e+02	1.61270e+04	1.46075e+00	3.00000e+02
16158	3.03076e+02	1.61580e+04	1.45938e+00	3.00000e+02
16189	3.03072e+02	1.61890e+04	1.45797e+00	3.00000e+02
16220	3.03078e+02	1.62200e+04	1.45661e+00	3.00000e+02
16251	3.03084e+02	1.62510e+04	1.45558e+00	3.00000e+02
16282	3.03075e+02	1.62820e+04	1.45410e+00	3.00000e+02
16313	3.03068e+02	1.63130e+04	1.45276e+00	3.00000e+02
16344	3.03078e+02	1.63440e+04	1.45110e+00	3.00000e+02
16375	3.03059e+02	1.63750e+04	1.44990e+00	3.00000e+02
16406	3.03073e+02	1.64060e+04	1.44882e+00	3.00000e+02
16437	3.03069e+02	1.64370e+04	1.44724e+00	3.00000e+02
16468	3.03074e+02	1.64680e+04	1.44585e+00	3.00000e+02
16499	3.03073e+02	1.64990e+04	1.44463e+00	3.00000e+02
16530	3.03070e+02	1.65300e+04	1.44345e+00	3.00000e+02
16561	3.03081e+02	1.65610e+04	1.44223e+00	3.00000e+02
16592	3.03066e+02	1.65920e+04	1.44057e+00	3.00000e+02
16623	3.03073e+02	1.66230e+04	1.43941e+00	3.00000e+02
16654	3.03078e+02	1.66540e+04	1.43832e+00	3.00000e+02
16685	3.03070e+02	1.66850e+04	1.43689e+00	3.00000e+02
16716	3.03068e+02	1.67160e+04	1.43569e+00	3.00000e+02
16747	3.03070e+02	1.67470e+04	1.43418e+00	3.00000e+02
16778	3.03066e+02	1.67780e+04	1.43306e+00	3.00000e+02
16809	3.03079e+02	1.68090e+04	1.43155e+00	3.00000e+02
16840	3.03077e+02	1.68400e+04	1.43031e+00	3.00000e+02
16871	3.03065e+02	1.68710e+04	1.42896e+00	3.00000e+02
16902	3.03084e+02	1.69020e+04	1.42774e+00	3.00000e+02
16933	3.03089e+02	1.69330e+04	1.42633e+00	3.00000e+02
16964	3.03093e+02	1.69640e+04	1.42513e+00	3.00000e+02
16995	3.03077e+02	1.69950e+04	1.42372e+00	3.00000e+02
17026	3.03082e+02	1.70260e+04	1.42242e+00	3.00000e+02
17057	3.03080e+02	1.70570e+04	1.42102e+00	3.00000e+02
17088	3.03075e+02	1.70880e+04	1.41994e+00	3.00000e+02
17119	3.03077e+02	1.71190e+04	1.41868e+00	3.00000e+02
17150	3.03072e+02	1.71500e+04	1.41735e+00	3.00000e+02
17181	3.03079e+02	1.71810e+04	1.41600e+00	3.00000e+02
17212	3.03081e+02	1.72120e+04	1.41497e+00	3.00000e+02
17243	3.03092e+02	1.72430e+04	1.41363e+00	3.00000e+02
17274	3.03084e+02	1.72740e+04	1.41232e+00	3.00000e+02
17305	3.03076e+02	1.73050e+04	1.41100e+00	3.00000e+02
17336	3.03075e+02	1.73360e+04	1.40982e+00	3.00000e+02
17367	3.03084e+02	1.73670e+04	1.40854e+00	3.00000e+02
17398	3.03075e+02	1.73980e+04	1.40724e+00	3.00000e+02
17429	3.03089e+02	1.74290e+04	1.40593e+00	3.00000e+02
17460	3.03083e+02	1.74600e+04	1.40469e+00	3.00000e+02
17491	3.03084e+02	1.74910e+04	1.40340e+00	3.00000e+02
17522	3.03074e+02	1.75220e+04	1.40204e+00	3.00000e+02
17553	3.03072e+02	1.75530e+04	1.40079e+00	3.00000e+02
17584	3.03072e+02	1.75840e+04	1.39956e+00	3.00000e+02
17615	3.03079e+02	1.76150e+04	1.39841e+00	3.00000e+02
17646	3.03078e+02	1.76460e+04	1.39709e+00	3.00000e+02
17677	3.03078e+02	1.76770e+04	1.39593e+00	3.00000e+02
17708	3.03079e+02	1.77080e+04	1.39473e+00	3.00000e+02
17739	3.03076e+02	1.77390e+04	1.39335e+00	3.00000e+02
17770	3.03087e+02	1.77700e+04	1.39213e+00	3.00000e+02
17801	3.03084e+02	1.78010e+04	1.39092e+00	3.00000e+02
17832	3.03079e+02	1.78320e+04	1.38982e+00	3.00000e+02
17863	3.03067e+02	1.78630e+04	1.38854e+00	3.00000e+02
17894	3.03085e+02	1.78940e+04	1.38725e+00	3.00000e+02
17925	3.03078e+02	1.79250e+04	1.38614e+00	3.00000e+02
17956	3.03081e+02	1.79560e+04	1.38479e+00	3.00000e+02
17987	3.03075e+02	1.79870e+04	1.38376e+00	3.00000e+02
18018	3.03068e+02	1.80180e+04	1.38272e+00	3.00000e+02
18049	3.03074e+02	1.80490e+04	1.38159e+00	3.00000e+02
18080	3.03076e+02	1.80800e+04	1.37996e+00	3.00000e+02
18111	3.03086e+02	1.81110e+04	1.37890e+00	3.00000e+02
18142	3.03069e+02	1.81420e+04	1.37748e+00	3.00000e+02
18173	3.03078e+02	1.81730e+04	1.37610e+00	3.00000e+02
18204	3.03067e+02	1.82040e+04	1.37523e+00	3.00000e+02
18235	3.03067e+02	1.82350e+04	1.37396e+00	3.00000e+02
18266	3.03065e+02	1.82660e+04	1.37281e+00	3.00000e+02
18297	3.03075e+02	1.82970e+04	1.37181e+00	3.00000e+02
18328	3.03067e+02	1.83280e+04	1.37047e+00	3.00000e+02
18359	3.03075e+02	1.83590e+04	1.36924e+00	3.00000e+02
18390	3.03074e+02	1.83900e+04	1.36808e+00	3.00000e+02
18421	3.03070e+02	1.84210e+04	1.36691e+00	3.00000e+02
18452	3.03070e+02	1.84520e+04	1.36567e+00	3.00000e+02
18483	3.03075e+02	1.84830e+04	1.36461e+00	3.00000e+02
18514	3.03083e+02	1.85140e+04	1.36351e+00	3.00000e+02
18545	3.03083e+02	1.85450e+04	1.36218e+00	3.00000e+02
18576	3.03080e+02	1.85760e+04	1.36102e+00	3.00000e+02
18607	3.03075e+02	1.86070e+04	1.35989e+00	3.00000e+02
18638	3.03085e+02	1.86380e+04	1.35873e+00	3.00000e+02
18669	3.03081e+02	1.86690e+04	1.35766e+00	3.00000e+02
18700	3.03081e+02	1.87000e+04	1.35643e+00	3.00000e+02
18731	3.03086e+02	1.87310e+04	1.35522e+00	3.00000e+02
18762	3.03085e+02	1.87620e+04	1.35412e+00	3.00000e+02
18793	3.03088e+02	1.87930e+04	1.35294e+00	3.00000e+02
18824	3.03079e+02	1.88240e+04	1.35174e+00	3.00000e+02
18855	3.03083e+02	1.88550e+04	1.35056e+00	3.00000e+02
18886	3.03085e+02	1.88860e+04	1.34951e+00	3.00000e+02
18917	3.03083e+02	1.89170e+04	1.34836e+00	3.00000e+02
18948	3.03077e+02	1.89480e+04	1.34705e+00	3.00000e+02
18979	3.03083e+02	1.89790e+04	1.34590e+00	3.00000e+02
19010	3.03074e+02	1.90100e+04	1.34494e+00	3.00000e+02
19041	3.03084e+02	1.90410e+04	1.34378e+00	3.00000e+02
19072	3.03084e+02	1.90720e+04	1.34257e+00	3.00000e+02
19103	3.03063e+02	1.91030e+04	1.34139e+00	3.00000e+02
19134	3.03068e+02	1.91340e+04	1.34013e+00	3.00000e+02
19165	3.03076e+02	1.91650e+04	1.33906e+00	3.00000e+02
19196	3.03070e+02	1.91960e+04	1.33785e+00	3.00000e+02
19227	3.03080e+02	1.92270e+04	1.33679e+00	3.00000e+02
19258	3.03070e+02	1.92580e+04	1.33561e+00	3.00000e+02
19289	3.03080e+02	1.92890e+04	1.33451e+00	3.00000e+02
19320	3.03090e+02	1.93200e+04	1.33342e+00	3.00000e+02
19351	3.03087e+02	1.93510e+04	1.33227e+00	3.00000e+02
19382	3.03084e+02	1.93820e+04	1.33098e+00	3.00000e+02
19413	3.03086e+02	1.94130e+04	1.33003e+00	3.00000e+02
19444	3.03084e+02	1.94440e+04	1.32852e+00	3.00000e+02
19475	3.03084e+02	1.94750e+04	1.32749e+00	3.00000e+02
19506	3.03081e+02	1.95060e+04	1.32639e+00	3.00000e+02
19537	3.03079e+02	1.95370e+04	1.32532e+00	3.00000e+02
19568	3.03076e+02	1.95680e+04	1.32415e+00	3.00000e+02
19599	3.03081e+02	1.95990e+04	1.32312e+00	3.00000e+02
19630	3.03084e+02	1.96300e+04	1.32177e+00	3.00000e+02
19661	3.03083e+02	1.96610e+04	1.32068e+00	3.00000e+02
19692	3.03086e+02	1.96920e+04	1.31966e+00	3.00000e+02
19723	3.03080e+02	1.97230e+04	1.31857e+00	3.00000e+02
19754	3.03079e+02	1.97540e+04	1.31754e+00	3.00000e+02
19785	3.03075e+02	1.97850e+04	1.31610e+00	3.00000e+02
19816	3.03081e+02	1.98160e+04	1.31517e+00	3.00000e+02
19847	3.03074e+02	1.98470e+04	1.31400e+00	3.00000e+02
19878	3.03061e+02	1.98780e+04	1.31296e+00	3.00000e+02
19909	3.03077e+02	1.99090e+04	1.31197e+00	3.00000e+02
19940	3.03087e+02	1.99400e+04	1.31091e+00	3.00000e+02
19971	3.03087e+02	1.99710e+04	1.30960e+00	3.00000e+02
20002	3.03074e+02	2.00020e+04	1.30854e+00	3.00000e+02
20033	3.03082e+02	2.00330e+04	1.30749e+00	3.00000e+02
20064	3.03077e+02	2.00640e+04	1.30655e+00	3.00000e+02
20095	3.03082e+02	2.00950e+04	1.30524e+00	3.00000e+02
20126	3.03073e+02	2.01260e+04	1.30415e+00	3.00000e+02
20157	3.03076e+02	2.01570e+04	1.30315e+00	3.00000e+02
20188	3.03078e+02	2.01880e+04	1.30188e+00	3.00000e+02
20219	3.03073e+02	2.02190e+04	1.30080e+00	3.00000e+02
20250	3.03074e+02	2.02500e+04	1.29975e+00	3.00000e+02
20281	3.03066e+02	2.02810e+04	1.29867e+00	3.00000e+02
20312	3.03073e+02	2.03120e+04	1.29764e+00	3.00000e+02
20343	3.03080e+02	2.03430e+04	1.29637e+00	3.00000e+02
20374	3.03071e+02	2.03740e+04	1.29532e+00	3.00000e+02
20405	3.03084e+02	2.04050e+04	1.29439e+00	3.00000e+02
20436	3.03073e+02	2.04360e+04	1.29315e+00	3.00000e+02
20467	3.03073e+02	2.04670e+04	1.29214e+00	3.00000e+02
20498	3.03070e+02	2.04980e+04	1.29125e+00	3.00000e+02
20529	3.03070e+02	2.05290e+04	1.29000e+00	3.00000e+02
20560	3.03089e+02	2.05600e+04	1.28890e+00	3.00000e+02
20591	3.03073e+02	2.05910e+04	1.28769e+00	3.00000e+02
20622	3.03065e+02	2.06220e+04	1.28658e+00	3.00000e+02
20653	3.03080e+02	2.06530e+04	1.28586e+00	3.00000e+02
20684	3.03070e+02	2.06840e+04	1.28481e+00	3.00000e+02
20715	3.03072e+02	2.07150e+04	1.28367e+00	3.00000e+02
20746	3.03079e+02	2.07460e+04	1.28253e+00	3.00000e+02
20777	3.03078e+02	2.07770e+04	1.28151e+00	3.00000e+02
20808	3.03075e+02	2.08080e+04	1.28042e+00	3.00000e+02
20839	3.03074e+02	2.08390e+04	1.27929e+00	3.00000e+02
20870	3.03077e+02	2.08700e+04	1.27824e+00	3.00000e+02
20901	3.03075e+02	2.09010e+04	1.27728e+00	3.00000e+02
20932	3.03061e+02	2.09320e+04	1.27628e+00	3.00000e+02
20963	3.03075e+02	2.09630e+04	1.27536e+00	3.00000e+02
20994	3.03070e+02	2.09940e+04	1.27416e+00	3.00000e+02
21025	3.03071e+02	2.10250e+04	1.27318e+00	3.00000e+02
21056	3.03057e+02	2.10560e+04	1.27215e+00	3.00000e+02
21087	3.03062e+02	2.10870e+04	1.27112e+00	3.00000e+02
21118	3.03070e+02	2.11180e+04	1.26991e+00	3.00000e+02
21149	3.03061e+02	2.11490e+04	1.26880e+00	3.00000e+02
21180	3.03081e+02	2.11800e+04	1.26792e+00	3.00000e+02
21211	3.03078e+02	2.12110e+04	1.26671e+00	3.00000e+02
21242	3.03083e+02	2.12420e+04	1.26563e+00	3.00000e+02
21273	3.03081e+02	2.12730e+04	1.26474e+00	3.00000e+02
21304	3.03075e+02	2.13040e+04	1.26374e+00	3.00000e+02
21335	3.03067e+02	2.13350e+04	1.26263e+00	3.00000e+02
21366	3.03072e+02	2.13660e+04	1.26181e+00	3.00000e+02
21397	3.03069e+02	2.13970e+04	1.26081e+00	3.00000e+02
21428	3.03069e+02	2.14280e+04	1.25965e+00	3.00000e+02
21459	3.03068e+02	2.14590e+04	1.25861e+00	3.00000e+02
21490	3.03071e+02	2.14900e+04	1.25760e+00	3.00000e+02
21521	3.03072e+02	2.15210e+04	1.25665e+00	3.00000e+02
21552	3.03068e+02	2.15520e+04	1.25585e+00	3.00000e+02
21583	3.03076e+02	2.15830e+04	1.25483e+00	3.00000e+02
21614	3.03073e+02	2.16140e+04	1.25374e+00	3.00000e+02
21645	3.03074e+02	2.16450e+04	1.25268e+00	3.00000e+02
21676	3.03089e+02	2.16760e+04	1.25168e+00	3.00000e+02
21707	3.03077e+02	2.17070e+04	1.25068e+00	3.00000e+02
21738	3.03075e+02	2.17380e+04	1.24976e+00	3.00000e+02
21769	3.03068e+02	2.17690e+04	1.24851e+00	3.00000e+02
21800	3.03070e+02	2.18000e+04	1.24763e+00	3.00000e+02
21831	3.03073e+02	2.18310e+04	1.24642e+00	3.00000e+02
21862	3.03081e+02	2.18620e+04	1.24551e+00	3.00000e+02
21893	3.03067e+02	2.18930e+04	1.24453e+00	3.00000e+02
21924	3.03064e+02	2.19240e+04	1.24347e+00	3.00000e+02
21955	3.03068e+02	2.19550e+04	1.24259e+00	3.00000e+02
21986	3.03083e+02	2.19860e+04	1.24173e+00	3.00000e+02
22017	3.03065e+02	2.20170e+04	1.24054e+00	3.00000e+02
22048	3.03071e+02	2.20480e+04	1.23960e+00	3.00000e+02
22079	3.03069e+02	2.20790e+04	1.23860e+00	3.00000e+02
22110	3.03070e+02	2.21100e+04	1.23766e+00	3.00000e+02
22141	3.03070e+02	2.21410e+04	1.23667e+00	3.00000e+02
22172	3.03079e+02	2.21720e+04	1.23595e+00	3.00000e+02
22203	3.03071e+02	2.22030e+04	1.23485e+00	3.00000e+02
22234	3.03063e+02	2.22340e+04	1.23376e+00	3.00000e+02
22265	3.03063e+02	2.22650e+04	1.23279e+00	3.00000e+02
22296	3.03071e+02	2.22960e+04	1.23188e+00	3.00000e+02
22327	3.03079e+02	2.23270e+04	1.23101e+00	3.00000e+02
22358	3.03074e+02	2.23580e+04	1.22999e+00	3.00000e+02
22389	3.03075e+02	2.23890e+04	1.22884e+00	3.00000e+02
22420	3.03075e+02	2.24200e+04	1.22794e+00	3.00000e+02
22451	3.03064e+02	2.24510e+04	1.22706e+00	3.00000e+02
22482	3.03071e+02	2.24820e+04	1.22605e+00	3.00000e+02
22513	3.03074e+02	2.25130e+04	1.22505e+00	3.00000e+02
22544	3.03076e+02	2.25440e+04	1.22424e+00	3.00000e+02
22575	3.03074e+02	2.25750e+04	1.22331e+00	3.00000e+02
22606	3.03078e+02	2.26060e+04	1.22223e+00	3.00000e+02
22637	3.03068e+02	2.26370e+04	1.22124e+00	3.00000e+02
22668	3.03075e+02	2.26680e+04	1.22021e+00	3.00000e+02
22699	3.03066e+02	2.26990e+04	1.21939e+00	3.00000e+02
22730	3.03072e+02	2.27300e+04	1.21822e+00	3.00000e+02
22761	3.03071e+02	2.27610e+04	1.21727e+00	3.00000e+02
22792	3.03061e+02	2.27920e+04	1.21628e+00	3.00000e+02
22823	3.03070e+02	2.28230e+04	1.21529e+00	3.00000e+02
22854	3.03074e+02	2.28540e+04	1.21428e+00	3.00000e+02
22885	3.03075e+02	2.28850e+04	1.21347e+00	3.00000e+02
22916	3.03073e+02	2.29160e+04	1.21248e+00	3.00000e+02
22947	3.03059e+02	2.29470e+04	1.21150e+00	3.00000e+02
22978	3.03075e+02	2.29780e+04	1.21059e+00	3.00000e+02
23009	3.03067e+02	2.30090e+04	1.20963e+00	3.00000e+02
23040	3.03067e+02	2.30400e+04	1.20858e+00	3.00000e+02
23071	3.03082e+02	2.30710e+04	1.20764e+00	3.00000e+02
23102	3.03064e+02	2.31020e+04	1.20677e+00	3.00000e+02
23133	3.03065e+02	2.31330e+04	1.20609e+00	3.00000e+02
23164	3.03070e+02	2.31640e+04	1.20489e+00	3.00000e+02
23195	3.03079e+02	2.31950e+04	1.20389e+00	3.00000e+02
23226	3.03057e+02	2.32260e+04	1.20289e+00	3.00000e+02
23257	3.03070e+02	2.32570e+04	1.20200e+00	3.00000e+02
23288	3.03077e+02	2.32880e+04	1.20107e+00	3.00000e+02
23319	3.03074e+02	2.33190e+04	1.20007e+00	3.00000e+02
23350	3.03080e+02	2.33500e+04	1.19922e+00	3.00000e+02
23381	3.03061e+02	2.33810e+04	1.19812e+00	3.00000e+02
23412	3.03070e+02	2.34120e+04	1.19721e+00	3.00000e+02
23443	3.03074e+02	2.34430e+04	1.19625e+00	3.00000e+02
23474	3.03066e+02	2.34740e+04	1.19530e+00	3.00000e+02
23505	3.03072e+02	2.35050e+04	1.19431e+00	3.00000e+02
23536	3.03074e+02	2.35360e+04	1.19349e+00	3.00000e+02
23567	3.03068e+02	2.35670e+04	1.19249e+00	3.00000e+02
23598	3.03070e+02	2.35980e+04	1.19182e+00	3.00000e+02
23629	3.03075e+02	2.36290e+04	1.19077e+00	3.00000e+02
23660	3.03062e+02	2.36600e+04	1.18997e+00	3.00000e+02
23691	3.03067e+02	2.36910e+04	1.18906e+00	3.00000e+02
23722	3.03072e+02	2.37220e+04	1.18797e+00	3.00000e+02
23753	3.03075e+02	2.37530e+04	1.18698e+00	3.00000e+02
23784	3.03080e+02	2.37840e+04	1.18627e+00	3.00000e+02
23815	3.03076e+02	2.38150e+04	1.18520e+00	3.00000e+02
23846	3.03074e+02	2.38460e+04	1.18439e+00	3.00000e+02
23877	3.03066e+02	2.38770e+04	1.18337e+00	3.00000e+02
23908	3.03049e+02	2.39080e+04	1.18251e+00	3.00000e+02
23939	3.03080e+02	2.39390e+04	1.18159e+00	3.00000e+02
23970	3.03064e+02	2.39700e+04	1.18060e+00	3.00000e+02
24001	3.03061e+02	2.40010e+04	1.17968e+00	3.00000e+02
24032	3.03067e+02	2.40320e+04	1.17877e+00	3.00000e+02
24063	3.03072e+02	2.40630e+04	1.17794e+00	3.00000e+02
24094	3.03073e+02	2.40940e+04	1.17691e+00	3.00000e+02
24125	3.03072e+02	2.41250e+04	1.17617e+00	3.00000e+02
24156	3.03065e+02	2.41560e+04	1.17524e+00	3.00000e+02
24187	3.03072e+02	2.41870e+04	1.17435e+00	3.00000e+02
24218	3.03070e+02	2.42180e+04	1.17341e+00	3.00000e+02
24249	3.03062e+02	2.42490e+04	1.17253e+00	3.00000e+02
24280	3.03072e+02	2.42800e+04	1.17161e+00	3.00000e+02
24311	3.03069e+02	2.43110e+04	1.17083e+00	3.00000e+02
24342	3.03054e+02	2.43420e+04	1.16987e+00	3.00000e+02
24373	3.03060e+02	2.43730e+04	1.16899e+00	3.00000e+02
24404	3.03078e+02	2.44040e+04	1.16799e+00	3.00000e+02
24435	3.03060e+02	2.44350e+04	1.16712e+00	3.00000e+02
24466	3.03069e+02	2.44660e+04	1.16617e+00	3.00000e+02
24497	3.03068e+02	2.44970e+04	1.16531e+00	3.00000e+02
24528	3.03066e+02	2.45280e+04	1.16448e+00	3.00000e+02
24559	3.03062e+02	2.45590e+04	1.16350e+00	3.00000e+02
24590	3.03070e+02	2.45900e+04	1.16270e+00	3.00000e+02
24621	3.03060e+02	2.46210e+04	1.16175e+00	3.00000e+02
24652	3.03056e+02	2.46520e+04	1.16091e+00	3.00000e+02
24683	3.03084e+02	2.46830e+04	1.15988e+00	3.00000e+02
24714	3.03068e+02	2.47140e+04	1.15902e+00	3.00000e+02
24745	3.03065e+02	2.47450e+04	1.15840e+00	3.00000e+02
24776	3.03064e+02	2.47760e+04	1.15731e+00	3.00000e+02
24807	3.03068e+02	2.48070e+04	1.15649e+00	3.00000e+02
24838	3.03073e+02	2.48380e+04	1.15562e+00	3.00000e+02
24869	3.03065e+02	2.48690e+04	1.15478e+00	3.00000e+02
24900	3.03072e+02	2.49000e+04	1.15384e+00	3.00000e+02
24931	3.03064e+02	2.49310e+04	1.15307e+00	3.00000e+02
24962	3.03072e+02	2.49620e+04	1.15223e+00	3.00000e+02
24993	3.03067e+02	2.49930e+04	1.15145e+00	3.00000e+02
25024	3.03076e+02	2.50240e+04	1.15045e+00	3.00000e+02
25055	3.03068e+02	2.50550e+04	1.14960e+00	3.00000e+02
25086	3.03069e+02	2.50860e+04	1.14878e+00	3.00000e+02
25117	3.03073e+02	2.51170e+04	1.14784e+00	3.00000e+02
25148	3.03067e+02	2.51480e+04	1.14690e+00	3.00000e+02
25179	3.03063e+02	2.51790e+04	1.14604e+00	3.00000e+02
25210	3.03072e+02	2.52100e+04	1.14519e+00	3.00000e+02
25241	3.03075e+02	2.52410e+04	1.14444e+00	3.00000e+02
25272	3.03064e+02	2.52720e+04	1.14352e+00	3.00000e+02
25303	3.03065e+02	2.53030e+04	1.14265e+00	3.00000e+02
25334	3.03058e+02	2.53340e+04	1.14189e+00	3.00000e+02
25365	3.03075e+02	2.53650e+04	1.14104e+00	3.00000e+02
25396	3.03068e+02	2.53960e+04	1.14032e+00	3.00000e+02
25427	3.03067e+02	2.54270e+04	1.13938e+00	3.00000e+02
25458	3.03065e+02	2.54580e+04	1.13834e+00	3.00000e+02
25489	3.03072e+02	2.54890e+04	1.13763e+00	3.00000e+02
25520	3.03069e+02	2.55200e+04	1.13678e+00	3.00000e+02
25551	3.03072e+02	2.55510e+04	1.13593e+00	3.00000e+02
25582	3.03073e+02	2.55820e+04	1.13521e+00	3.00000e+02
25613	3.03078e+02	2.56130e+04	1.13437e+00	3.00000e+02
25644	3.03069e+02	2.56440e+04	1.13344e+00	3.00000e+02
25675	3.03063e+02	2.56750e+04	1.13252e+00	3.00000e+02
25706	3.03063e+02	2.57060e+04	1.13167e+00	3.00000e+02
25737	3.03050e+02	2.57370e+04	1.13101e+00	3.00000e+02
25768	3.03069e+02	2.57680e+04	1.13013e+00	3.00000e+02
25799	3.03071e+02	2.57990e+04	1.12935e+00	3.00000e+02
25830	3.03063e+02	2.58300e+04	1.12834e+00	3.00000e+02
25861	3.03060e+02	2.58610e+04	1.12774e+00	3.00000e+02
25892	3.03056e+02	2.58920e+04	1.12695e+00	3.00000e+02
25923	3.03063e+02	2.59230e+04	1.12597e+00	3.00000e+02
25954	3.03070e+02	2.59540e+04	1.12509e+00	3.00000e+02
25985	3.03071e+02	2.59850e+04	1.12426e+00	3.00000e+02
26016	3.03066e+02	2.60160e+04	1.12359e+00	3.00000e+02
26047	3.03075e+02	2.60470e+04	1.12267e+00	3.00000e+02
26078	3.03069e+02	2.60780e+04	1.12187e+00	3.00000e+02
26109	3.03060e+02	2.61090e+04	1.12101e+00	3.00000e+02
26140	3.03083e+02	2.61400e+04	1.12013e+00	3.00000e+02
26171	3.03072e+02	2.61710e+04	1.11937e+00	3.00000e+02
26202	3.03081e+02	2.62020e+04	1.11871e+00	3.00000e+02
26233	3.03068e+02	2.62330e+04	1.11775e+00	3.00000e+02
26264	3.03061e+02	2.62640e+04	1.11695e+00	3.00000e+02
26295	3.03062e+02	2.62950e+04	1.11600e+00	3.00000e+02
26326	3.03074e+02	2.63260e+04	1.11529e+00	3.00000e+02
26357	3.03068e+02	2.63570e+04	1.11427e+00	3.00000e+02
26388	3.03069e+02	2.63880e+04	1.11362e+00	3.00000e+02
26419	3.03074e+02	2.64190e+04	1.11271e+00	3.00000e+02
26450	3.03069e+02	2.64500e+04	1.11191e+00	3.00000e+02
26481	3.03070e+02	2.64810e+04	1.11115e+00	3.00000e+02
26512	3.03068e+02	2.65120e+04	1.11046e+00	3.00000e+02
26543	3.03083e+02	2.65430e+04	1.10962e+00	3.00000e+02
26574	3.03070e+02	2.65740e+04	1.10881e+00	3.00000e+02
26605	3.03074e+02	2.66050e+04	1.10804e+00	3.00000e+02
26636	3.03073e+02	2.66360e+04	1.10716e+00	3.00000e+02
26667	3.03086e+02	2.66670e+04	1.10635e+00	3.00000e+02
26698	3.03068e+02	2.66980e+04	1.10546e+00	3.00000e+02
26729	3.03063e+02	2.67290e+04	1.10479e+00	3.00000e+02
26760	3.03067e+02	2.67600e+04	1.10402e+00	3.00000e+02
26791	3.03075e+02	2.67910e+04	1.10303e+00	3.00000e+02
26822	3.03066e+02	2.68220e+04	1.10220e+00	3.00000e+02
26853	3.03080e+02	2.68530e+04	1.10139e+00	3.00000e+02
26884	3.03064e+02	2.68840e+04	1.10071e+00	3.00000e+02
26915	3.03066e+02	2.69150e+04	1.09973e+00	3.00000e+02
26946	3.03063e+02	2.69460e+04	1.09903e+00	3.00000e+02
26977	3.03062e+02	2.69770e+04	1.09838e+00	3.00000e+02
27008	3.03061e+02	2.70080e+04	1.09745e+00	3.00000e+02
27039	3.03064e+02	2.70390e+04	1.09669e+00	3.00000e+02
27070	3.03064e+02	2.70700e+04	1.09585e+00	3.00000e+02
27101	3.03065e+02	2.71010e+04	1.09523e+00	3.00000e+02
27132	3.03070e+02	2.71320e+04	1.09432e+00	3.00000e+02
27163	3.03067e+02	2.71630e+04	1.09347e+00	3.00000e+02
27194	3.03070e+02	2.71940e+04	1.09287e+00	3.00000e+02
27225	3.03065e+02	2.72250e+04	1.09203e+00	3.00000e+02
27256	3.03066e+02	2.72560e+04	1.09106e+00	3.00000e+02
27287	3.03055e+02	2.72870e+04	1.09010e+00	3.00000e+02
27318	3.03059e+02	2.73180e+04	1.08959e+00	3.00000e+02
27349	3.03054e+02	2.73490e+04	1.08866e+00	3.00000e+02
27380	3.03051e+02	2.73800e+04	1.08785e+00	3.00000e+02
27411	3.03060e+02	2.74110e+04	1.08722e+00	3.00000e+02
27442	3.03060e+02	2.74420e+04	1.08636e+00	3.00000e+02
27473	3.03064e+02	2.74730e+04	1.08568e+00	3.00000e+02
27504	3.03071e+02	2.75040e+04	1.08487e+00	3.00000e+02
27535	3.03070e+02	2.75350e+04	1.08414e+00	3.00000e+02
27566	3.03058e+02	2.75660e+04	1.08337e+00	3.00000e+02
27597	3.03067e+02	2.75970e+04	1.08273e+00	3.00000e+02
27628	3.03058e+02	2.76280e+04	1.08178e+00	3.00000e+02
27659	3.03060e+02	2.76590e+04	1.08104e+00	3.00000e+02
27690	3.03054e+02	2.76900e+04	1.08029e+00	3.00000e+02
27721	3.03076e+02	2.77210e+04	1.07961e+00	3.00000e+02
27752	3.03060e+02	2.77520e+04	1.07886e+00	3.00000e+02
27783	3.03059e+02	2.77830e+04	1.07799e+00	3.00000e+02
27814	3.03055e+02	2.78140e+04	1.07698e+00	3.00000e+02
27845	3.03066e+02	2.78450e+04	1.07633e+00	3.00000e+02
27876	3.03060e+02	2.78760e+04	1.07560e+00	3.00000e+02
27907	3.03074e+02	2.79070e+04	1.07492e+00	3.00000e+02
27938	3.03058e+02	2.79380e+04	1.07415e+00	3.00000e+02
27969	3.03051e+02	2.79690e+04	1.07340e+00	3.00000e+02
28000	3.03064e+02	2.80000e+04	1.07251e+00	3.00000e+02
28031	3.03068e+02	2.80310e+04	1.07168e+00	3.00000e+02
28062	3.03073e+02	2.80620e+04	1.07110e+00	3.00000e+02
28093	3.03076e+02	2.80930e+04	1.07016e+00	3.00000e+02
28124	3.03064e+02	2.81240e+04	1.06958e+00	3.00000e+02
28155	3.03057e+02	2.81550e+04	1.06891e+00	3.00000e+02
28186	3.03069e+02	2.81860e+04	1.06812e+00	3.00000e+02
28217	3.03049e+02	2.82170e+04	1.06720e+00	3.00000e+02
28248	3.03066e+02	2.82480e+04	1.06637e+00	3.00000e+02
28279	3.03064e+02	2.82790e+04	1.06571e+00	3.00000e+02
28310	3.03060e+02	2.83100e+04	1.06500e+00	3.00000e+02
28341	3.03066e+02	2.83410e+04	1.06426e+00	3.00000e+02
28372	3.03051e+02	2.83720e+04	1.06336e+00	3.00000e+02
28403	3.03053e+02	2.84030e+04	1.06278e+00	3.00000e+02
28434	3.03065e+02	2.84340e+04	1.06199e+00	3.00000e+02
28465	3.03053e+02	2.84650e+04	1.06126e+00	3.00000e+02
28496	3.03056e+02	2.84960e+04	1.06037e+00	3.00000e+02
28527	3.03066e+02	2.85270e+04	1.05986e+00	3.00000e+02
28558	3.03062e+02	2.85580e+04	1.05889e+00	3.00000e+02
28589	3.03062e+02	2.85890e+04	1.05827e+00	3.00000e+02
28620	3.03059e+02	2.86200e+04	1.05743e+00	3.00000e+02
28651	3.03051e+02	2.86510e+04	1.05690e+00	3.00000e+02
28682	3.03060e+02	2.86820e+04	1.05607e+00	3.00000e+02
28713	3.03079e+02	2.87130e+04	1.05548e+00	3.00000e+02
28744	3.03067e+02	2.87440e+04	1.05457e+00	3.00000e+02
28775	3.03062e+02	2.87750e+04	1.05395e+00	3.00000e+02
28806	3.03060e+02	2.88060e+04	1.05323e+00	3.00000e+02
28837	3.03067e+02	2.88370e+04	1.05246e+00	3.00000e+02
28868	3.03053e+02	2.88680e+04	1.05165e+00	3.00000e+02
28899	3.03054e+02	2.88990e+04	1.05086e+00	3.00000e+02
28930	3.03068e+02	2.89300e+04	1.05016e+00	3.00000e+02
28961	3.03063e+02	2.89610e+04	1.04954e+00	3.00000e+02
28992	3.03066e+02	2.89920e+04	1.04875e+00	3.00000e+02
29023	3.03059e+02	2.90230e+04	1.04799e+00	3.00000e+02
29054	3.03069e+02	2.90540e+04	1.04737e+00	3.00000e+02
29085	3.03062e+02	2.90850e+04	1.04658e+00	3.00000e+02
29116	3.03051e+02	2.91160e+04	1.04589e+00	3.00000e+02
29147	3.03056e+02	2.91470e+04	1.04511e+00	3.00000e+02
29178	3.03063e+02	2.91780e+04	1.04454e+00	3.00000e+02
29209	3.03059e+02	2.92090e+04	1.04382e+00	3.00000e+02
29240	3.03067e+02	2.92400e+04	1.04306e+00	3.00000e+02
29271	3.03054e+02	2.92710e+04	1.04239e+00	3.00000e+02
29302	3.03053e+02	2.93020e+04	1.04154e+00	3.00000e+02
29333	3.03051e+02	2.93330e+04	1.04096e+00	3.00000e+02
29364	3.03046e+02	2.93640e+04	1.04017e+00	3.00000e+02
29395	3.03062e+02	2.93950e+04	1.03957e+00	3.00000e+02
29426	3.03056e+02	2.94260e+04	1.03879e+00	3.00000e+02
29457	3.03051e+02	2.94570e+04	1.03793e+00	3.00000e+02
29488	3.03062e+02	2.94880e+04	1.03712e+00	3.00000e+02
29519	3.03064e+02	2.95190e+04	1.03645e+00	3.00000e+02
29550	3.03072e+02	2.95500e+04	1.03570e+00	3.00000e+02
29581	3.03059e+02	2.95810e+04	1.03511e+00	3.00000e+02
29612	3.03060e+02	2.96120e+04	1.03431e+00	3.00000e+02
29643	3.03052e+02	2.96430e+04	1.03357e+00	3.00000e+02
29674	3.03045e+02	2.96740e+04	1.03282e+00	3.00000e+02
29705	3.03058e+02	2.97050e+04	1.03214e+00	3.00000e+02
29731	3.03058e+02	2.97310e+04	1.03138e+00	3.00000e+02