File: Experiments/TUBS/tga_isotherm/tga_isotherm_n2_iso320_powder_3mg_r1.txt
index	ts	t	weight	tr
[#]	[°C]	[s]	[mg]	[°C]
900	1.22345e+02	9.00000e+02	2.98654e+00	9.00000e+01
935	1.77699e+02	9.35000e+02	2.96983e+00	3.20000e+02
966	2.28479e+02	9.66000e+02	2.87385e+00	3.20000e+02
997	2.60290e+02	9.97000e+02	2.84837e+00	3.20000e+02
1028	2.81945e+02	1.02800e+03	2.83291e+00	3.20000e+02
1059	2.96133e+02	1.05900e+03	2.80664e+00	3.20000e+02
1090	3.05478e+02	1.09000e+03	2.76444e+00	3.20000e+02
1121	3.11637e+02	1.12100e+03	2.72235e+00	3.20000e+02
1152	3.15580e+02	1.15200e+03	2.68766e+00	3.20000e+02
1183	3.18155e+02	1.18300e+03	2.65616e+00	3.20000e+02
1214	3.19781e+02	1.21400e+03	2.62485e+00	3.20000e+02
1245	3.20900e+02	1.24500e+03	2.59307e+00	3.20000e+02
1276	3.21585e+02	1.27600e+03	2.56160e+00	3.20000e+02
1307	3.22036e+02	1.30700e+03	2.52980e+00	3.20000e+02
1338	3.22346e+02	1.33800e+03	2.49850e+00	3.20000e+02
1369	3.22528e+02	1.36900e+03	2.46825e+00	3.20000e+02
1400	3.22628e+02	1.40000e+03	2.43831e+00	3.20000e+02
1431	3.22701e+02	1.43100e+03	2.40916e+00	3.20000e+02
1462	3.22761e+02	1.46200e+03	2.38092e+00	3.20000e+02
1493	3.22784e+02	1.49300e+03	2.35350e+00	3.20000e+02
1524	3.22809e+02	1.52400e+03	2.32667e+00	3.20000e+02
1555	3.22817e+02	1.55500e+03	2.30076e+00	3.20000e+02
1586	3.22809e+02	1.58600e+03	2.27556e+00	3.20000e+02
1617	3.22804e+02	1.61700e+03	2.25116e+00	3.20000e+02
1648	3.22814e+02	1.64800e+03	2.22720e+00	3.20000e+02
1679	3.22815e+02	1.67900e+03	2.20398e+00	3.20000e+02
1710	3.22818e+02	1.71000e+03	2.18155e+00	3.20000e+02
1741	3.22813e+02	1.74100e+03	2.15955e+00	3.20000e+02
1772	3.22823e+02	1.77200e+03	2.13806e+00	3.20000e+02
1803	3.22817e+02	1.80300e+03	2.11712e+00	3.20000e+02
1834	3.22802e+02	1.83400e+03	2.09672e+00	3.20000e+02
1865	3.22802e+02	1.86500e+03	2.07679e+00	3.20000e+02
1896	3.22793e+02	1.89600e+03	2.05734e+00	3.20000e+02
1927	3.22807e+02	1.92700e+03	2.03828e+00	3.20000e+02
1958	3.22804e+02	1.95800e+03	2.01957e+00	3.20000e+02
1989	3.22791e+02	1.98900e+03	2.00142e+00	3.20000e+02
2020	3.22793e+02	2.02000e+03	1.98369e+00	3.20000e+02
2051	3.22790e+02	2.05100e+03	1.96626e+00	3.20000e+02
2082	3.22783e+02	2.08200e+03	1.94930e+00	3.20000e+02
2113	3.22782e+02	2.11300e+03	1.93266e+00	3.20000e+02
2144	3.22782e+02	2.14400e+03	1.91634e+00	3.20000e+02
2175	3.22787e+02	2.17500e+03	1.90025e+00	3.20000e+02
2206	3.22784e+02	2.20600e+03	1.88452e+00	3.20000e+02
2237	3.22783e+02	2.23700e+03	1.86907e+00	3.20000e+02
2268	3.22786e+02	2.26800e+03	1.85403e+00	3.20000e+02
2299	3.22792e+02	2.29900e+03	1.83906e+00	3.20000e+02
2330	3.22790e+02	2.33000e+03	1.82443e+00	3.20000e+02
2361	3.22793e+02	2.36100e+03	1.80998e+00	3.20000e+02
2392	3.22770e+02	2.39200e+03	1.79601e+00	3.20000e+02
2423	3.22788e+02	2.42300e+03	1.78193e+00	3.20000e+02
2454	3.22796e+02	2.45400e+03	1.76824e+00	3.20000e+02
2485	3.22772e+02	2.48500e+03	1.75504e+00	3.20000e+02
2516	3.22778e+02	2.51600e+03	1.74193e+00	3.20000e+02
2547	3.22778e+02	2.54700e+03	1.72915e+00	3.20000e+02
2578	3.22789e+02	2.57800e+03	1.71645e+00	3.20000e+02
2609	3.22783e+02	2.60900e+03	1.70389e+00	3.20000e+02
2640	3.22786e+02	2.64000e+03	1.69168e+00	3.20000e+02
2671	3.22777e+02	2.67100e+03	1.67952e+00	3.20000e+02
2702	3.22783e+02	2.70200e+03	1.66751e+00	3.20000e+02
2733	3.22779e+02	2.73300e+03	1.65600e+00	3.20000e+02
2764	3.22785e+02	2.76400e+03	1.64451e+00	3.20000e+02
2795	3.22788e+02	2.79500e+03	1.63310e+00	3.20000e+02
2826	3.22782e+02	2.82600e+03	1.62183e+00	3.20000e+02
2857	3.22786e+02	2.85700e+03	1.61081e+00	3.20000e+02
2888	3.22781e+02	2.88800e+03	1.59999e+00	3.20000e+02
2919	3.22784e+02	2.91900e+03	1.58928e+00	3.20000e+02
2950	3.22777e+02	2.95000e+03	1.57871e+00	3.20000e+02
2981	3.22789e+02	2.98100e+03	1.56837e+00	3.20000e+02
3012	3.22774e+02	3.01200e+03	1.55817e+00	3.20000e+02
3043	3.22773e+02	3.04300e+03	1.54813e+00	3.20000e+02
3074	3.22786e+02	3.07400e+03	1.53809e+00	3.20000e+02
3105	3.22774e+02	3.10500e+03	1.52840e+00	3.20000e+02
3136	3.22784e+02	3.13600e+03	1.51876e+00	3.20000e+02
3167	3.22785e+02	3.16700e+03	1.50925e+00	3.20000e+02
3198	3.22767e+02	3.19800e+03	1.49982e+00	3.20000e+02
3229	3.22785e+02	3.22900e+03	1.49046e+00	3.20000e+02
3260	3.22787e+02	3.26000e+03	1.48132e+00	3.20000e+02
3291	3.22791e+02	3.29100e+03	1.47217e+00	3.20000e+02
3322	3.22776e+02	3.32200e+03	1.46316e+00	3.20000e+02
3353	3.22789e+02	3.35300e+03	1.45447e+00	3.20000e+02
3384	3.22781e+02	3.38400e+03	1.44563e+00	3.20000e+02
3415	3.22771e+02	3.41500e+03	1.43702e+00	3.20000e+02
3446	3.22771e+02	3.44600e+03	1.42844e+00	3.20000e+02
3477	3.22772e+02	3.47700e+03	1.42012e+00	3.20000e+02
3508	3.22776e+02	3.50800e+03	1.41162e+00	3.20000e+02
3539	3.22783e+02	3.53900e+03	1.40327e+00	3.20000e+02
3570	3.22789e+02	3.57000e+03	1.39531e+00	3.20000e+02
3601	3.22786e+02	3.60100e+03	1.38709e+00	3.20000e+02
3632	3.22784e+02	3.63200e+03	1.37900e+00	3.20000e+02
3663	3.22799e+02	3.66300e+03	1.37111e+00	3.20000e+02
3694	3.22789e+02	3.69400e+03	1.36324e+00	3.20000e+02
3725	3.22775e+02	3.72500e+03	1.35543e+00	3.20000e+02
3756	3.22787e+02	3.75600e+03	1.34805e+00	3.20000e+02
3787	3.22791e+02	3.78700e+03	1.34054e+00	3.20000e+02
3818	3.22782e+02	3.81800e+03	1.33329e+00	3.20000e+02
3849	3.22773e+02	3.84900e+03	1.32589e+00	3.20000e+02
3880	3.22785e+02	3.88000e+03	1.31845e+00	3.20000e+02
3911	3.22773e+02	3.91100e+03	1.31142e+00	3.20000e+02
3942	3.22792e+02	3.94200e+03	1.30415e+00	3.20000e+02
3973	3.22783e+02	3.97300e+03	1.29694e+00	3.20000e+02
4004	3.22787e+02	4.00400e+03	1.29003e+00	3.20000e+02
4035	3.22786e+02	4.03500e+03	1.28320e+00	3.20000e+02
4066	3.22781e+02	4.06600e+03	1.27631e+00	3.20000e+02
4097	3.22780e+02	4.09700e+03	1.26949e+00	3.20000e+02
4128	3.22781e+02	4.12800e+03	1.26283e+00	3.20000e+02
4159	3.22782e+02	4.15900e+03	1.25605e+00	3.20000e+02
4190	3.22783e+02	4.19000e+03	1.24944e+00	3.20000e+02
4221	3.22780e+02	4.22100e+03	1.24291e+00	3.20000e+02
4252	3.22782e+02	4.25200e+03	1.23653e+00	3.20000e+02
4283	3.22771e+02	4.28300e+03	1.23024e+00	3.20000e+02
4314	3.22776e+02	4.31400e+03	1.22381e+00	3.20000e+02
4345	3.22782e+02	4.34500e+03	1.21721e+00	3.20000e+02
4376	3.22769e+02	4.37600e+03	1.21112e+00	3.20000e+02
4407	3.22776e+02	4.40700e+03	1.20491e+00	3.20000e+02
4438	3.22788e+02	4.43800e+03	1.19870e+00	3.20000e+02
4469	3.22779e+02	4.46900e+03	1.19250e+00	3.20000e+02
4500	3.22776e+02	4.50000e+03	1.18653e+00	3.20000e+02
4531	3.22779e+02	4.53100e+03	1.18049e+00	3.20000e+02
4562	3.22772e+02	4.56200e+03	1.17451e+00	3.20000e+02
4593	3.22785e+02	4.59300e+03	1.16858e+00	3.20000e+02
4624	3.22793e+02	4.62400e+03	1.16282e+00	3.20000e+02
4655	3.22777e+02	4.65500e+03	1.15712e+00	3.20000e+02
4686	3.22781e+02	4.68600e+03	1.15129e+00	3.20000e+02
4717	3.22777e+02	4.71700e+03	1.14569e+00	3.20000e+02
4748	3.22777e+02	4.74800e+03	1.14020e+00	3.20000e+02
4779	3.22775e+02	4.77900e+03	1.13444e+00	3.20000e+02
4810	3.22776e+02	4.81000e+03	1.12889e+00	3.20000e+02
4841	3.22775e+02	4.84100e+03	1.12341e+00	3.20000e+02
4872	3.22776e+02	4.87200e+03	1.11807e+00	3.20000e+02
4903	3.22768e+02	4.90300e+03	1.11273e+00	3.20000e+02
4934	3.22768e+02	4.93400e+03	1.10748e+00	3.20000e+02
4965	3.22774e+02	4.96500e+03	1.10227e+00	3.20000e+02
4996	3.22779e+02	4.99600e+03	1.09706e+00	3.20000e+02
5027	3.22776e+02	5.02700e+03	1.09201e+00	3.20000e+02
5058	3.22778e+02	5.05800e+03	1.08702e+00	3.20000e+02
5089	3.22760e+02	5.08900e+03	1.08189e+00	3.20000e+02
5120	3.22769e+02	5.12000e+03	1.07698e+00	3.20000e+02
5151	3.22757e+02	5.15100e+03	1.07187e+00	3.20000e+02
5182	3.22778e+02	5.18200e+03	1.06691e+00	3.20000e+02
5213	3.22777e+02	5.21300e+03	1.06187e+00	3.20000e+02
5244	3.22765e+02	5.24400e+03	1.05699e+00	3.20000e+02
5275	3.22770e+02	5.27500e+03	1.05225e+00	3.20000e+02
5306	3.22770e+02	5.30600e+03	1.04750e+00	3.20000e+02
5337	3.22766e+02	5.33700e+03	1.04260e+00	3.20000e+02
5368	3.22766e+02	5.36800e+03	1.03805e+00	3.20000e+02
5399	3.22767e+02	5.39900e+03	1.03334e+00	3.20000e+02
5430	3.22760e+02	5.43000e+03	1.02866e+00	3.20000e+02
5461	3.22766e+02	5.46100e+03	1.02428e+00	3.20000e+02
5492	3.22764e+02	5.49200e+03	1.01979e+00	3.20000e+02
5523	3.22756e+02	5.52300e+03	1.01518e+00	3.20000e+02
5554	3.22756e+02	5.55400e+03	1.01064e+00	3.20000e+02
5585	3.22768e+02	5.58500e+03	1.00619e+00	3.20000e+02
5616	3.22773e+02	5.61600e+03	1.00186e+00	3.20000e+02
5647	3.22764e+02	5.64700e+03	9.97597e-01	3.20000e+02
5678	3.22770e+02	5.67800e+03	9.93206e-01	3.20000e+02
5709	3.22777e+02	5.70900e+03	9.88749e-01	3.20000e+02
5740	3.22772e+02	5.74000e+03	9.84660e-01	3.20000e+02
5771	3.22783e+02	5.77100e+03	9.80517e-01	3.20000e+02
5802	3.22776e+02	5.80200e+03	9.76078e-01	3.20000e+02
5833	3.22773e+02	5.83300e+03	9.71989e-01	3.20000e+02
5864	3.22776e+02	5.86400e+03	9.67880e-01	3.20000e+02
5895	3.22784e+02	5.89500e+03	9.63794e-01	3.20000e+02
5926	3.22783e+02	5.92600e+03	9.59461e-01	3.20000e+02
5957	3.22772e+02	5.95700e+03	9.55575e-01	3.20000e+02
5988	3.22777e+02	5.98800e+03	9.51548e-01	3.20000e+02
6019	3.22773e+02	6.01900e+03	9.47557e-01	3.20000e+02
6050	3.22772e+02	6.05000e+03	9.43584e-01	3.20000e+02
6081	3.22783e+02	6.08100e+03	9.39649e-01	3.20000e+02
6112	3.22777e+02	6.11200e+03	9.35680e-01	3.20000e+02
6143	3.22767e+02	6.14300e+03	9.31822e-01	3.20000e+02
6174	3.22774e+02	6.17400e+03	9.28131e-01	3.20000e+02
6205	3.22777e+02	6.20500e+03	9.24331e-01	3.20000e+02
6236	3.22778e+02	6.23600e+03	9.20353e-01	3.20000e+02
6267	3.22771e+02	6.26700e+03	9.16470e-01	3.20000e+02
6298	3.22761e+02	6.29800e+03	9.12823e-01	3.20000e+02
6329	3.22767e+02	6.32900e+03	9.09135e-01	3.20000e+02
6360	3.22767e+02	6.36000e+03	9.05368e-01	3.20000e+02
6391	3.22769e+02	6.39100e+03	9.01754e-01	3.20000e+02
6422	3.22766e+02	6.42200e+03	8.98104e-01	3.20000e+02
6453	3.22758e+02	6.45300e+03	8.94396e-01	3.20000e+02
6484	3.22768e+02	6.48400e+03	8.90596e-01	3.20000e+02
6515	3.22763e+02	6.51500e+03	8.87007e-01	3.20000e+02
6546	3.22760e+02	6.54600e+03	8.83561e-01	3.20000e+02
6577	3.22762e+02	6.57700e+03	8.79907e-01	3.20000e+02
6608	3.22754e+02	6.60800e+03	8.76494e-01	3.20000e+02
6639	3.22750e+02	6.63900e+03	8.72981e-01	3.20000e+02
6670	3.22747e+02	6.67000e+03	8.69724e-01	3.20000e+02
6701	3.22748e+02	6.70100e+03	8.66335e-01	3.20000e+02
6732	3.22745e+02	6.73200e+03	8.62770e-01	3.20000e+02
6763	3.22731e+02	6.76300e+03	8.59425e-01	3.20000e+02
6794	3.22736e+02	6.79400e+03	8.56107e-01	3.20000e+02
6825	3.22741e+02	6.82500e+03	8.52865e-01	3.20000e+02
6856	3.22741e+02	6.85600e+03	8.49447e-01	3.20000e+02
6887	3.22743e+02	6.88700e+03	8.46044e-01	3.20000e+02
6918	3.22744e+02	6.91800e+03	8.42833e-01	3.20000e+02
6949	3.22745e+02	6.94900e+03	8.39584e-01	3.20000e+02
6980	3.22744e+02	6.98000e+03	8.36242e-01	3.20000e+02
7011	3.22735e+02	7.01100e+03	8.33190e-01	3.20000e+02
7042	3.22735e+02	7.04200e+03	8.29984e-01	3.20000e+02
7073	3.22744e+02	7.07300e+03	8.26859e-01	3.20000e+02
7104	3.22741e+02	7.10400e+03	8.23711e-01	3.20000e+02
7135	3.22748e+02	7.13500e+03	8.20432e-01	3.20000e+02
7166	3.22738e+02	7.16600e+03	8.17730e-01	3.20000e+02
7197	3.22738e+02	7.19700e+03	8.14441e-01	3.20000e+02
7228	3.22739e+02	7.22800e+03	8.11350e-01	3.20000e+02
7259	3.22737e+02	7.25900e+03	8.08274e-01	3.20000e+02
7290	3.22742e+02	7.29000e+03	8.05272e-01	3.20000e+02
7321	3.22741e+02	7.32100e+03	8.02243e-01	3.20000e+02
7352	3.22742e+02	7.35200e+03	7.99162e-01	3.20000e+02
7383	3.22737e+02	7.38300e+03	7.96106e-01	3.20000e+02
7414	3.22746e+02	7.41400e+03	7.93234e-01	3.20000e+02
7445	3.22745e+02	7.44500e+03	7.90216e-01	3.20000e+02
7476	3.22734e+02	7.47600e+03	7.87391e-01	3.20000e+02
7507	3.22732e+02	7.50700e+03	7.84417e-01	3.20000e+02
7538	3.22744e+02	7.53800e+03	7.81513e-01	3.20000e+02
7569	3.22751e+02	7.56900e+03	7.78945e-01	3.20000e+02
7600	3.22745e+02	7.60000e+03	7.76223e-01	3.20000e+02
7631	3.22738e+02	7.63100e+03	7.73199e-01	3.20000e+02
7662	3.22741e+02	7.66200e+03	7.70466e-01	3.20000e+02
7693	3.22739e+02	7.69300e+03	7.67822e-01	3.20000e+02
7724	3.22748e+02	7.72400e+03	7.65068e-01	3.20000e+02
7755	3.22740e+02	7.75500e+03	7.62237e-01	3.20000e+02
7786	3.22740e+02	7.78600e+03	7.59175e-01	3.20000e+02
7817	3.22724e+02	7.81700e+03	7.56822e-01	3.20000e+02
7848	3.22736e+02	7.84800e+03	7.54204e-01	3.20000e+02
7879	3.22732e+02	7.87900e+03	7.51372e-01	3.20000e+02
7910	3.22741e+02	7.91000e+03	7.48898e-01	3.20000e+02
7941	3.22725e+02	7.94100e+03	7.46080e-01	3.20000e+02
7972	3.22739e+02	7.97200e+03	7.43563e-01	3.20000e+02
8003	3.22735e+02	8.00300e+03	7.40910e-01	3.20000e+02
8034	3.22744e+02	8.03400e+03	7.38359e-01	3.20000e+02
8065	3.22743e+02	8.06500e+03	7.35740e-01	3.20000e+02
8096	3.22737e+02	8.09600e+03	7.33139e-01	3.20000e+02
8127	3.22734e+02	8.12700e+03	7.30760e-01	3.20000e+02
8158	3.22732e+02	8.15800e+03	7.28265e-01	3.20000e+02
8189	3.22726e+02	8.18900e+03	7.25601e-01	3.20000e+02
8220	3.22733e+02	8.22000e+03	7.23251e-01	3.20000e+02
8251	3.22732e+02	8.25100e+03	7.20654e-01	3.20000e+02
8282	3.22751e+02	8.28200e+03	7.18290e-01	3.20000e+02
8313	3.22731e+02	8.31300e+03	7.15811e-01	3.20000e+02
8344	3.22729e+02	8.34400e+03	7.13335e-01	3.20000e+02
8375	3.22739e+02	8.37500e+03	7.11088e-01	3.20000e+02
8406	3.22737e+02	8.40600e+03	7.08515e-01	3.20000e+02
8437	3.22728e+02	8.43700e+03	7.06207e-01	3.20000e+02
8468	3.22733e+02	8.46800e+03	7.03766e-01	3.20000e+02
8499	3.22738e+02	8.49900e+03	7.01311e-01	3.20000e+02
8530	3.22737e+02	8.53000e+03	6.99063e-01	3.20000e+02
8561	3.22750e+02	8.56100e+03	6.96716e-01	3.20000e+02
8592	3.22746e+02	8.59200e+03	6.94393e-01	3.20000e+02
8623	3.22728e+02	8.62300e+03	6.92100e-01	3.20000e+02
8654	3.22735e+02	8.65400e+03	6.89839e-01	3.20000e+02
8685	3.22729e+02	8.68500e+03	6.87393e-01	3.20000e+02
8716	3.22737e+02	8.71600e+03	6.85126e-01	3.20000e+02
8747	3.22727e+02	8.74700e+03	6.82973e-01	3.20000e+02
8778	3.22735e+02	8.77800e+03	6.80720e-01	3.20000e+02
8809	3.22736e+02	8.80900e+03	6.78515e-01	3.20000e+02
8840	3.22717e+02	8.84000e+03	6.76335e-01	3.20000e+02
8871	3.22729e+02	8.87100e+03	6.74139e-01	3.20000e+02
8902	3.22737e+02	8.90200e+03	6.72048e-01	3.20000e+02
8933	3.22732e+02	8.93300e+03	6.69837e-01	3.20000e+02
8964	3.22726e+02	8.96400e+03	6.67649e-01	3.20000e+02
8995	3.22733e+02	8.99500e+03	6.65699e-01	3.20000e+02
9026	3.22725e+02	9.02600e+03	6.63294e-01	3.20000e+02
9057	3.22728e+02	9.05700e+03	6.61275e-01	3.20000e+02
9088	3.22729e+02	9.08800e+03	6.59101e-01	3.20000e+02
9119	3.22731e+02	9.11900e+03	6.57099e-01	3.20000e+02
9150	3.22738e+02	9.15000e+03	6.54949e-01	3.20000e+02
9181	3.22735e+02	9.18100e+03	6.52948e-01	3.20000e+02
9212	3.22725e+02	9.21200e+03	6.51027e-01	3.20000e+02
9243	3.22716e+02	9.24300e+03	6.48840e-01	3.20000e+02
9274	3.22721e+02	9.27400e+03	6.46817e-01	3.20000e+02
9305	3.22731e+02	9.30500e+03	6.44757e-01	3.20000e+02
9336	3.22729e+02	9.33600e+03	6.42865e-01	3.20000e+02
9367	3.22738e+02	9.36700e+03	6.40744e-01	3.20000e+02
9398	3.22727e+02	9.39800e+03	6.38627e-01	3.20000e+02
9429	3.22731e+02	9.42900e+03	6.36611e-01	3.20000e+02
9460	3.22749e+02	9.46000e+03	6.34656e-01	3.20000e+02
9491	3.22733e+02	9.49100e+03	6.32742e-01	3.20000e+02
9522	3.22736e+02	9.52200e+03	6.30743e-01	3.20000e+02
9553	3.22737e+02	9.55300e+03	6.28730e-01	3.20000e+02
9584	3.22729e+02	9.58400e+03	6.26732e-01	3.20000e+02
9615	3.22731e+02	9.61500e+03	6.24862e-01	3.20000e+02
9646	3.22741e+02	9.64600e+03	6.22980e-01	3.20000e+02
9677	3.22725e+02	9.67700e+03	6.21004e-01	3.20000e+02
9708	3.22743e+02	9.70800e+03	6.19120e-01	3.20000e+02
9739	3.22726e+02	9.73900e+03	6.17168e-01	3.20000e+02
9770	3.22747e+02	9.77000e+03	6.14988e-01	3.20000e+02
9801	3.22729e+02	9.80100e+03	6.13376e-01	3.20000e+02
9832	3.22728e+02	9.83200e+03	6.11257e-01	3.20000e+02
9863	3.22737e+02	9.86300e+03	6.09412e-01	3.20000e+02
9894	3.22735e+02	9.89400e+03	6.07535e-01	3.20000e+02
9925	3.22730e+02	9.92500e+03	6.05597e-01	3.20000e+02
9956	3.22726e+02	9.95600e+03	6.03960e-01	3.20000e+02
9987	3.22726e+02	9.98700e+03	6.02110e-01	3.20000e+02
10018	3.22713e+02	1.00180e+04	6.00250e-01	3.20000e+02
10049	3.22723e+02	1.00490e+04	5.98499e-01	3.20000e+02
10080	3.22733e+02	1.00800e+04	5.96635e-01	3.20000e+02
10111	3.22726e+02	1.01110e+04	5.94753e-01	3.20000e+02
10142	3.22728e+02	1.01420e+04	5.92983e-01	3.20000e+02
10173	3.22717e+02	1.01730e+04	5.91179e-01	3.20000e+02
10204	3.22733e+02	1.02040e+04	5.89655e-01	3.20000e+02
10235	3.22713e+02	1.02350e+04	5.87750e-01	3.20000e+02
10266	3.22724e+02	1.02660e+04	5.85977e-01	3.20000e+02
10297	3.22719e+02	1.02970e+04	5.84192e-01	3.20000e+02
10328	3.22709e+02	1.03280e+04	5.82627e-01	3.20000e+02
10359	3.22719e+02	1.03590e+04	5.80886e-01	3.20000e+02
10390	3.22711e+02	1.03900e+04	5.79212e-01	3.20000e+02
10421	3.22717e+02	1.04210e+04	5.77562e-01	3.20000e+02
10452	3.22715e+02	1.04520e+04	5.75955e-01	3.20000e+02
10483	3.22710e+02	1.04830e+04	5.74237e-01	3.20000e+02
10514	3.22716e+02	1.05140e+04	5.72492e-01	3.20000e+02
10545	3.22712e+02	1.05450e+04	5.71024e-01	3.20000e+02
10576	3.22712e+02	1.05760e+04	5.69327e-01	3.20000e+02
10607	3.22715e+02	1.06070e+04	5.67737e-01	3.20000e+02
10638	3.22710e+02	1.06380e+04	5.66124e-01	3.20000e+02
10669	3.22711e+02	1.06690e+04	5.64594e-01	3.20000e+02
10700	3.22714e+02	1.07000e+04	5.62875e-01	3.20000e+02
10731	3.22715e+02	1.07310e+04	5.61268e-01	3.20000e+02
10762	3.22711e+02	1.07620e+04	5.59701e-01	3.20000e+02
10793	3.22698e+02	1.07930e+04	5.58206e-01	3.20000e+02
10824	3.22714e+02	1.08240e+04	5.56533e-01	3.20000e+02
10855	3.22707e+02	1.08550e+04	5.54919e-01	3.20000e+02
10886	3.22718e+02	1.08860e+04	5.53379e-01	3.20000e+02
10917	3.22708e+02	1.09170e+04	5.51720e-01	3.20000e+02
10948	3.22700e+02	1.09480e+04	5.50282e-01	3.20000e+02
10979	3.22714e+02	1.09790e+04	5.48785e-01	3.20000e+02
11010	3.22703e+02	1.10100e+04	5.47214e-01	3.20000e+02
11041	3.22700e+02	1.10410e+04	5.45604e-01	3.20000e+02
11072	3.22699e+02	1.10720e+04	5.44052e-01	3.20000e+02
11103	3.22694e+02	1.11030e+04	5.42669e-01	3.20000e+02
11134	3.22692e+02	1.11340e+04	5.41068e-01	3.20000e+02
11165	3.22703e+02	1.11650e+04	5.39604e-01	3.20000e+02
11196	3.22713e+02	1.11960e+04	5.38127e-01	3.20000e+02
11227	3.22696e+02	1.12270e+04	5.36519e-01	3.20000e+02
11258	3.22697e+02	1.12580e+04	5.35133e-01	3.20000e+02
11289	3.22706e+02	1.12890e+04	5.33652e-01	3.20000e+02
11320	3.22698e+02	1.13200e+04	5.32319e-01	3.20000e+02
11351	3.22696e+02	1.13510e+04	5.30890e-01	3.20000e+02
11382	3.22696e+02	1.13820e+04	5.29456e-01	3.20000e+02
11413	3.22702e+02	1.14130e+04	5.27733e-01	3.20000e+02
11444	3.22704e+02	1.14440e+04	5.26447e-01	3.20000e+02
11475	3.22688e+02	1.14750e+04	5.24961e-01	3.20000e+02
11506	3.22706e+02	1.15060e+04	5.23497e-01	3.20000e+02
11537	3.22703e+02	1.15370e+04	5.22276e-01	3.20000e+02
11568	3.22702e+02	1.15680e+04	5.20748e-01	3.20000e+02
11599	3.22695e+02	1.15990e+04	5.19347e-01	3.20000e+02
11630	3.22703e+02	1.16300e+04	5.18035e-01	3.20000e+02
11661	3.22700e+02	1.16610e+04	5.16587e-01	3.20000e+02
11692	3.22704e+02	1.16920e+04	5.15130e-01	3.20000e+02
11723	3.22701e+02	1.17230e+04	5.13882e-01	3.20000e+02
11754	3.22703e+02	1.17540e+04	5.12452e-01	3.20000e+02
11785	3.22706e+02	1.17850e+04	5.11034e-01	3.20000e+02
11816	3.22700e+02	1.18160e+04	5.09611e-01	3.20000e+02
11847	3.22708e+02	1.18470e+04	5.08141e-01	3.20000e+02
11878	3.22713e+02	1.18780e+04	5.06795e-01	3.20000e+02
11909	3.22691e+02	1.19090e+04	5.05657e-01	3.20000e+02
11940	3.22698e+02	1.19400e+04	5.04255e-01	3.20000e+02
11971	3.22706e+02	1.19710e+04	5.02852e-01	3.20000e+02
12002	3.22691e+02	1.20020e+04	5.01630e-01	3.20000e+02
12033	3.22704e+02	1.20330e+04	5.00108e-01	3.20000e+02
12064	3.22704e+02	1.20640e+04	4.99007e-01	3.20000e+02
12095	3.22697e+02	1.20950e+04	4.97811e-01	3.20000e+02
12126	3.22706e+02	1.21260e+04	4.96254e-01	3.20000e+02
12157	3.22695e+02	1.21570e+04	4.95112e-01	3.20000e+02
12188	3.22698e+02	1.21880e+04	4.93781e-01	3.20000e+02
12219	3.22701e+02	1.22190e+04	4.92449e-01	3.20000e+02
12250	3.22697e+02	1.22500e+04	4.91194e-01	3.20000e+02
12281	3.22697e+02	1.22810e+04	4.89977e-01	3.20000e+02
12312	3.22704e+02	1.23120e+04	4.88814e-01	3.20000e+02
12343	3.22701e+02	1.23430e+04	4.87515e-01	3.20000e+02
12374	3.22703e+02	1.23740e+04	4.86107e-01	3.20000e+02
12405	3.22704e+02	1.24050e+04	4.85102e-01	3.20000e+02
12436	3.22702e+02	1.24360e+04	4.83787e-01	3.20000e+02
12467	3.22706e+02	1.24670e+04	4.82456e-01	3.20000e+02
12498	3.22715e+02	1.24980e+04	4.81299e-01	3.20000e+02
12529	3.22711e+02	1.25290e+04	4.80058e-01	3.20000e+02
12560	3.22711e+02	1.25600e+04	4.78932e-01	3.20000e+02
12591	3.22722e+02	1.25910e+04	4.77733e-01	3.20000e+02
12622	3.22711e+02	1.26220e+04	4.76416e-01	3.20000e+02
12653	3.22715e+02	1.26530e+04	4.75224e-01	3.20000e+02
12684	3.22698e+02	1.26840e+04	4.73887e-01	3.20000e+02
12715	3.22703e+02	1.27150e+04	4.73104e-01	3.20000e+02
12746	3.22696e+02	1.27460e+04	4.71600e-01	3.20000e+02
12777	3.22700e+02	1.27770e+04	4.70490e-01	3.20000e+02
12808	3.22703e+02	1.28080e+04	4.69338e-01	3.20000e+02
12839	3.22700e+02	1.28390e+04	4.68152e-01	3.20000e+02
12870	3.22699e+02	1.28700e+04	4.67054e-01	3.20000e+02
12901	3.22706e+02	1.29010e+04	4.66012e-01	3.20000e+02
12932	3.22701e+02	1.29320e+04	4.64665e-01	3.20000e+02
12963	3.22707e+02	1.29630e+04	4.63519e-01	3.20000e+02
12994	3.22702e+02	1.29940e+04	4.62501e-01	3.20000e+02
13025	3.22709e+02	1.30250e+04	4.61363e-01	3.20000e+02
13056	3.22706e+02	1.30560e+04	4.60265e-01	3.20000e+02
13087	3.22698e+02	1.30870e+04	4.59174e-01	3.20000e+02
13118	3.22706e+02	1.31180e+04	4.58075e-01	3.20000e+02
13149	3.22707e+02	1.31490e+04	4.56860e-01	3.20000e+02
13180	3.22721e+02	1.31800e+04	4.55900e-01	3.20000e+02
13211	3.22702e+02	1.32110e+04	4.54672e-01	3.20000e+02
13242	3.22710e+02	1.32420e+04	4.53443e-01	3.20000e+02
13273	3.22709e+02	1.32730e+04	4.52347e-01	3.20000e+02
13304	3.22700e+02	1.33040e+04	4.51322e-01	3.20000e+02
13335	3.22708e+02	1.33350e+04	4.50254e-01	3.20000e+02
13366	3.22716e+02	1.33660e+04	4.49086e-01	3.20000e+02
13397	3.22717e+02	1.33970e+04	4.48005e-01	3.20000e+02
13428	3.22703e+02	1.34280e+04	4.46857e-01	3.20000e+02
13459	3.22702e+02	1.34590e+04	4.45792e-01	3.20000e+02
13490	3.22709e+02	1.34900e+04	4.44909e-01	3.20000e+02
13521	3.22711e+02	1.35210e+04	4.43698e-01	3.20000e+02
13552	3.22707e+02	1.35520e+04	4.42578e-01	3.20000e+02
13583	3.22699e+02	1.35830e+04	4.41602e-01	3.20000e+02
13614	3.22707e+02	1.36140e+04	4.40588e-01	3.20000e+02
13645	3.22709e+02	1.36450e+04	4.39563e-01	3.20000e+02
13676	3.22708e+02	1.36760e+04	4.38423e-01	3.20000e+02
13707	3.22707e+02	1.37070e+04	4.37279e-01	3.20000e+02
13738	3.22705e+02	1.37380e+04	4.36337e-01	3.20000e+02
13769	3.22707e+02	1.37690e+04	4.35447e-01	3.20000e+02
13800	3.22706e+02	1.38000e+04	4.34261e-01	3.20000e+02
13831	3.22706e+02	1.38310e+04	4.33302e-01	3.20000e+02
13862	3.22707e+02	1.38620e+04	4.32097e-01	3.20000e+02
13893	3.22705e+02	1.38930e+04	4.31121e-01	3.20000e+02
13924	3.22702e+02	1.39240e+04	4.30357e-01	3.20000e+02
13955	3.22714e+02	1.39550e+04	4.29107e-01	3.20000e+02
13986	3.22705e+02	1.39860e+04	4.28137e-01	3.20000e+02
14017	3.22704e+02	1.40170e+04	4.27189e-01	3.20000e+02
14048	3.22717e+02	1.40480e+04	4.26381e-01	3.20000e+02
14079	3.22709e+02	1.40790e+04	4.25360e-01	3.20000e+02
14110	3.22721e+02	1.41100e+04	4.24351e-01	3.20000e+02
14141	3.22711e+02	1.41410e+04	4.23346e-01	3.20000e+02
14172	3.22709e+02	1.41720e+04	4.22319e-01	3.20000e+02
14203	3.22713e+02	1.42030e+04	4.21423e-01	3.20000e+02
14234	3.22704e+02	1.42340e+04	4.20514e-01	3.20000e+02
14265	3.22703e+02	1.42650e+04	4.19544e-01	3.20000e+02
14296	3.22707e+02	1.42960e+04	4.18549e-01	3.20000e+02
14327	3.22703e+02	1.43270e+04	4.17597e-01	3.20000e+02
14358	3.22706e+02	1.43580e+04	4.16587e-01	3.20000e+02
14389	3.22713e+02	1.43890e+04	4.15720e-01	3.20000e+02
14420	3.22696e+02	1.44200e+04	4.14748e-01	3.20000e+02
14451	3.22706e+02	1.44510e+04	4.13762e-01	3.20000e+02
14482	3.22705e+02	1.44820e+04	4.12751e-01	3.20000e+02
14513	3.22687e+02	1.45130e+04	4.11855e-01	3.20000e+02
14544	3.22697e+02	1.45440e+04	4.10852e-01	3.20000e+02
14575	3.22704e+02	1.45750e+04	4.09922e-01	3.20000e+02
14606	3.22700e+02	1.46060e+04	4.09114e-01	3.20000e+02
14637	3.22705e+02	1.46370e+04	4.08038e-01	3.20000e+02
14668	3.22698e+02	1.46680e+04	4.07063e-01	3.20000e+02
14699	3.22688e+02	1.46990e+04	4.06315e-01	3.20000e+02
14730	3.22686e+02	1.47300e+04	4.05402e-01	3.20000e+02
14761	3.22686e+02	1.47610e+04	4.04665e-01	3.20000e+02
14792	3.22696e+02	1.47920e+04	4.03791e-01	3.20000e+02
14823	3.22685e+02	1.48230e+04	4.02983e-01	3.20000e+02
14854	3.22690e+02	1.48540e+04	4.02129e-01	3.20000e+02
14885	3.22697e+02	1.48850e+04	4.01039e-01	3.20000e+02
14916	3.22679e+02	1.49160e+04	4.00130e-01	3.20000e+02
14947	3.22683e+02	1.49470e+04	3.99368e-01	3.20000e+02
14978	3.22681e+02	1.49780e+04	3.98303e-01	3.20000e+02
15009	3.22682e+02	1.50090e+04	3.97648e-01	3.20000e+02
15040	3.22679e+02	1.50400e+04	3.96772e-01	3.20000e+02
15071	3.22676e+02	1.50710e+04	3.95855e-01	3.20000e+02
15102	3.22690e+02	1.51020e+04	3.94898e-01	3.20000e+02
15133	3.22681e+02	1.51330e+04	3.93982e-01	3.20000e+02
15164	3.22671e+02	1.51640e+04	3.93103e-01	3.20000e+02
15195	3.22680e+02	1.51950e+04	3.92290e-01	3.20000e+02
15226	3.22685e+02	1.52260e+04	3.91497e-01	3.20000e+02
15257	3.22682e+02	1.52570e+04	3.90680e-01	3.20000e+02
15288	3.22682e+02	1.52880e+04	3.89713e-01	3.20000e+02
15319	3.22681e+02	1.53190e+04	3.88825e-01	3.20000e+02
15350	3.22669e+02	1.53500e+04	3.88066e-01	3.20000e+02
15381	3.22667e+02	1.53810e+04	3.87282e-01	3.20000e+02
15412	3.22671e+02	1.54120e+04	3.86376e-01	3.20000e+02
15443	3.22686e+02	1.54430e+04	3.85397e-01	3.20000e+02
15474	3.22663e+02	1.54740e+04	3.84676e-01	3.20000e+02
15505	3.22665e+02	1.55050e+04	3.83901e-01	3.20000e+02
15536	3.22663e+02	1.55360e+04	3.83185e-01	3.20000e+02
15567	3.22662e+02	1.55670e+04	3.82391e-01	3.20000e+02
15598	3.22656e+02	1.55980e+04	3.81507e-01	3.20000e+02
15629	3.22666e+02	1.56290e+04	3.80806e-01	3.20000e+02
15660	3.22663e+02	1.56600e+04	3.79918e-01	3.20000e+02
15691	3.22664e+02	1.56910e+04	3.79215e-01	3.20000e+02
15722	3.22667e+02	1.57220e+04	3.78235e-01	3.20000e+02
15753	3.22666e+02	1.57530e+04	3.77366e-01	3.20000e+02
15784	3.22660e+02	1.57840e+04	3.76623e-01	3.20000e+02
15815	3.22656e+02	1.58150e+04	3.75911e-01	3.20000e+02
15846	3.22656e+02	1.58460e+04	3.75261e-01	3.20000e+02
15877	3.22653e+02	1.58770e+04	3.74357e-01	3.20000e+02
15908	3.22658e+02	1.59080e+04	3.73532e-01	3.20000e+02
15939	3.22652e+02	1.59390e+04	3.72852e-01	3.20000e+02
15970	3.22650e+02	1.59700e+04	3.72010e-01	3.20000e+02
16001	3.22652e+02	1.60010e+04	3.71175e-01	3.20000e+02
16032	3.22646e+02	1.60320e+04	3.70356e-01	3.20000e+02
16063	3.22653e+02	1.60630e+04	3.69698e-01	3.20000e+02
16094	3.22656e+02	1.60940e+04	3.68992e-01	3.20000e+02
16125	3.22656e+02	1.61250e+04	3.68110e-01	3.20000e+02
16156	3.22659e+02	1.61560e+04	3.67404e-01	3.20000e+02
16187	3.22655e+02	1.61870e+04	3.66650e-01	3.20000e+02
16218	3.22655e+02	1.62180e+04	3.65977e-01	3.20000e+02
16249	3.22658e+02	1.62490e+04	3.65055e-01	3.20000e+02
16280	3.22663e+02	1.62800e+04	3.64303e-01	3.20000e+02
16311	3.22648e+02	1.63110e+04	3.63714e-01	3.20000e+02
16342	3.22649e+02	1.63420e+04	3.62717e-01	3.20000e+02
16373	3.22646e+02	1.63730e+04	3.61983e-01	3.20000e+02
16404	3.22641e+02	1.64040e+04	3.61337e-01	3.20000e+02
16435	3.22651e+02	1.64350e+04	3.60642e-01	3.20000e+02
16466	3.22639e+02	1.64660e+04	3.59980e-01	3.20000e+02
16497	3.22640e+02	1.64970e+04	3.59341e-01	3.20000e+02
16528	3.22651e+02	1.65280e+04	3.58625e-01	3.20000e+02
16559	3.22650e+02	1.65590e+04	3.57859e-01	3.20000e+02
16590	3.22645e+02	1.65900e+04	3.57001e-01	3.20000e+02
16621	3.22651e+02	1.66210e+04	3.56404e-01	3.20000e+02
16652	3.22654e+02	1.66520e+04	3.55626e-01	3.20000e+02
16683	3.22647e+02	1.66830e+04	3.54904e-01	3.20000e+02
16714	3.22653e+02	1.67140e+04	3.54352e-01	3.20000e+02
16745	3.22642e+02	1.67450e+04	3.53544e-01	3.20000e+02
16776	3.22639e+02	1.67760e+04	3.52751e-01	3.20000e+02
16807	3.22631e+02	1.68070e+04	3.51985e-01	3.20000e+02
16838	3.22643e+02	1.68380e+04	3.51546e-01	3.20000e+02
16869	3.22643e+02	1.68690e+04	3.50772e-01	3.20000e+02
16900	3.22639e+02	1.69000e+04	3.50029e-01	3.20000e+02
16931	3.22650e+02	1.69310e+04	3.49360e-01	3.20000e+02
16962	3.22640e+02	1.69620e+04	3.48671e-01	3.20000e+02
16993	3.22633e+02	1.69930e+04	3.48025e-01	3.20000e+02
17024	3.22642e+02	1.70240e+04	3.47212e-01	3.20000e+02
17055	3.22635e+02	1.70550e+04	3.46650e-01	3.20000e+02
17086	3.22641e+02	1.70860e+04	3.45870e-01	3.20000e+02
17117	3.22635e+02	1.71170e+04	3.45274e-01	3.20000e+02
17148	3.22640e+02	1.71480e+04	3.44731e-01	3.20000e+02
17179	3.22638e+02	1.71790e+04	3.44231e-01	3.20000e+02
17210	3.22635e+02	1.72100e+04	3.43439e-01	3.20000e+02
17241	3.22629e+02	1.72410e+04	3.42429e-01	3.20000e+02
17272	3.22640e+02	1.72720e+04	3.41730e-01	3.20000e+02
17303	3.22645e+02	1.73030e+04	3.41306e-01	3.20000e+02
17334	3.22641e+02	1.73340e+04	3.40577e-01	3.20000e+02
17365	3.22649e+02	1.73650e+04	3.40057e-01	3.20000e+02
17396	3.22643e+02	1.73960e+04	3.39340e-01	3.20000e+02
17427	3.22649e+02	1.74270e+04	3.38757e-01	3.20000e+02
17458	3.22647e+02	1.74580e+04	3.38010e-01	3.20000e+02
17489	3.22641e+02	1.74890e+04	3.37359e-01	3.20000e+02
17520	3.22645e+02	1.75200e+04	3.36661e-01	3.20000e+02
17551	3.22638e+02	1.75510e+04	3.35985e-01	3.20000e+02
17582	3.22653e+02	1.75820e+04	3.35345e-01	3.20000e+02
17613	3.22640e+02	1.76130e+04	3.34691e-01	3.20000e+02
17644	3.22649e+02	1.76440e+04	3.33990e-01	3.20000e+02
17675	3.22633e+02	1.76750e+04	3.33426e-01	3.20000e+02
17706	3.22648e+02	1.77060e+04	3.33014e-01	3.20000e+02
17737	3.22646e+02	1.77370e+04	3.32449e-01	3.20000e+02
17768	3.22635e+02	1.77680e+04	3.31620e-01	3.20000e+02
17799	3.22631e+02	1.77990e+04	3.30833e-01	3.20000e+02
17830	3.22634e+02	1.78300e+04	3.30255e-01	3.20000e+02
17861	3.22633e+02	1.78610e+04	3.29682e-01	3.20000e+02
17892	3.22632e+02	1.78920e+04	3.29111e-01	3.20000e+02
17923	3.22648e+02	1.79230e+04	3.28398e-01	3.20000e+02
17954	3.22631e+02	1.79540e+04	3.27867e-01	3.20000e+02
17985	3.22646e+02	1.79850e+04	3.27263e-01	3.20000e+02
18016	3.22633e+02	1.80160e+04	3.26605e-01	3.20000e+02
18047	3.22639e+02	1.80470e+04	3.26119e-01	3.20000e+02
18078	3.22644e+02	1.80780e+04	3.25396e-01	3.20000e+02
18109	3.22642e+02	1.81090e+04	3.24790e-01	3.20000e+02
18140	3.22649e+02	1.81400e+04	3.24296e-01	3.20000e+02
18171	3.22635e+02	1.81710e+04	3.23591e-01	3.20000e+02
18202	3.22641e+02	1.82020e+04	3.23126e-01	3.20000e+02
18233	3.22634e+02	1.82330e+04	3.22421e-01	3.20000e+02
18264	3.22638e+02	1.82640e+04	3.21862e-01	3.20000e+02
18295	3.22626e+02	1.82950e+04	3.21136e-01	3.20000e+02
18326	3.22633e+02	1.83260e+04	3.20506e-01	3.20000e+02
18357	3.22643e+02	1.83570e+04	3.20057e-01	3.20000e+02
18388	3.22631e+02	1.83880e+04	3.19650e-01	3.20000e+02
18419	3.22635e+02	1.84190e+04	3.18969e-01	3.20000e+02
18450	3.22632e+02	1.84500e+04	3.18435e-01	3.20000e+02
18481	3.22626e+02	1.84810e+04	3.17948e-01	3.20000e+02
18512	3.22634e+02	1.85120e+04	3.17289e-01	3.20000e+02
18543	3.22634e+02	1.85430e+04	3.16778e-01	3.20000e+02
18574	3.22606e+02	1.85740e+04	3.16048e-01	3.20000e+02
18605	3.22621e+02	1.86050e+04	3.15554e-01	3.20000e+02
18636	3.22617e+02	1.86360e+04	3.14961e-01	3.20000e+02
18667	3.22626e+02	1.86670e+04	3.14360e-01	3.20000e+02
18698	3.22627e+02	1.86980e+04	3.13792e-01	3.20000e+02
18729	3.22615e+02	1.87290e+04	3.13338e-01	3.20000e+02
18760	3.22625e+02	1.87600e+04	3.12631e-01	3.20000e+02
18791	3.22615e+02	1.87910e+04	3.12094e-01	3.20000e+02
18822	3.22614e+02	1.88220e+04	3.11532e-01	3.20000e+02
18853	3.22618e+02	1.88530e+04	3.10909e-01	3.20000e+02
18884	3.22626e+02	1.88840e+04	3.10456e-01	3.20000e+02
18915	3.22615e+02	1.89150e+04	3.09739e-01	3.20000e+02
18946	3.22611e+02	1.89460e+04	3.09330e-01	3.20000e+02
18977	3.22617e+02	1.89770e+04	3.08883e-01	3.20000e+02
19008	3.22612e+02	1.90080e+04	3.08380e-01	3.20000e+02
19039	3.22601e+02	1.90390e+04	3.07623e-01	3.20000e+02
19070	3.22611e+02	1.90700e+04	3.07276e-01	3.20000e+02
19101	3.22616e+02	1.91010e+04	3.06679e-01	3.20000e+02
19132	3.22606e+02	1.91320e+04	3.06107e-01	3.20000e+02
19163	3.22602e+02	1.91630e+04	3.05589e-01	3.20000e+02
19194	3.22606e+02	1.91940e+04	3.05093e-01	3.20000e+02
19225	3.22615e+02	1.92250e+04	3.04627e-01	3.20000e+02
19256	3.22614e+02	1.92560e+04	3.03994e-01	3.20000e+02
19287	3.22602e+02	1.92870e+04	3.03355e-01	3.20000e+02
19318	3.22613e+02	1.93180e+04	3.02781e-01	3.20000e+02
19349	3.22606e+02	1.93490e+04	3.02282e-01	3.20000e+02
19380	3.22610e+02	1.93800e+04	3.01845e-01	3.20000e+02
19411	3.22611e+02	1.94110e+04	3.01313e-01	3.20000e+02
19442	3.22617e+02	1.94420e+04	3.00802e-01	3.20000e+02
19473	3.22612e+02	1.94730e+04	3.00061e-01	3.20000e+02
19504	3.22596e+02	1.95040e+04	2.99733e-01	3.20000e+02
19535	3.22605e+02	1.95350e+04	2.99281e-01	3.20000e+02
19566	3.22605e+02	1.95660e+04	2.98541e-01	3.20000e+02
19597	3.22607e+02	1.95970e+04	2.98244e-01	3.20000e+02
19628	3.22606e+02	1.96280e+04	2.97736e-01	3.20000e+02
19659	3.22603e+02	1.96590e+04	2.97283e-01	3.20000e+02
19690	3.22611e+02	1.96900e+04	2.96432e-01	3.20000e+02
19721	3.22615e+02	1.97210e+04	2.95966e-01	3.20000e+02
19752	3.22597e+02	1.97520e+04	2.95487e-01	3.20000e+02
19783	3.22603e+02	1.97830e+04	2.94974e-01	3.20000e+02
19814	3.22596e+02	1.98140e+04	2.94296e-01	3.20000e+02
19845	3.22593e+02	1.98450e+04	2.93858e-01	3.20000e+02
19876	3.22594e+02	1.98760e+04	2.93543e-01	3.20000e+02
19907	3.22599e+02	1.99070e+04	2.93081e-01	3.20000e+02
19938	3.22610e+02	1.99380e+04	2.92477e-01	3.20000e+02
19969	3.22602e+02	1.99690e+04	2.92105e-01	3.20000e+02
20000	3.22607e+02	2.00000e+04	2.91543e-01	3.20000e+02
20031	3.22591e+02	2.00310e+04	2.91182e-01	3.20000e+02
20062	3.22601e+02	2.00620e+04	2.90437e-01	3.20000e+02
20093	3.22592e+02	2.00930e+04	2.89837e-01	3.20000e+02
20124	3.22590e+02	2.01240e+04	2.89516e-01	3.20000e+02
20155	3.22595e+02	2.01550e+04	2.88974e-01	3.20000e+02
20186	3.22609e+02	2.01860e+04	2.88419e-01	3.20000e+02
20217	3.22608e+02	2.02170e+04	2.88016e-01	3.20000e+02
20248	3.22599e+02	2.02480e+04	2.87550e-01	3.20000e+02
20279	3.22603e+02	2.02790e+04	2.86887e-01	3.20000e+02
20310	3.22616e+02	2.03100e+04	2.86363e-01	3.20000e+02
20341	3.22607e+02	2.03410e+04	2.85978e-01	3.20000e+02
20372	3.22603e+02	2.03720e+04	2.85409e-01	3.20000e+02
20403	3.22601e+02	2.04030e+04	2.84960e-01	3.20000e+02
20434	3.22595e+02	2.04340e+04	2.84486e-01	3.20000e+02
20465	3.22612e+02	2.04650e+04	2.84223e-01	3.20000e+02
20496	3.22611e+02	2.04960e+04	2.83654e-01	3.20000e+02
20527	3.22601e+02	2.05270e+04	2.83281e-01	3.20000e+02
20558	3.22601e+02	2.05580e+04	2.82646e-01	3.20000e+02
20589	3.22600e+02	2.05890e+04	2.82225e-01	3.20000e+02
20620	3.22604e+02	2.06200e+04	2.81598e-01	3.20000e+02
20651	3.22589e+02	2.06510e+04	2.81324e-01	3.20000e+02
20682	3.22606e+02	2.06820e+04	2.80679e-01	3.20000e+02
20713	3.22591e+02	2.07130e+04	2.80388e-01	3.20000e+02
20744	3.22592e+02	2.07440e+04	2.79974e-01	3.20000e+02
20775	3.22607e+02	2.07750e+04	2.79321e-01	3.20000e+02
20806	3.22597e+02	2.08060e+04	2.79011e-01	3.20000e+02
20837	3.22596e+02	2.08370e+04	2.78675e-01	3.20000e+02
20868	3.22588e+02	2.08680e+04	2.77979e-01	3.20000e+02
20899	3.22607e+02	2.08990e+04	2.77657e-01	3.20000e+02
20930	3.22594e+02	2.09300e+04	2.77145e-01	3.20000e+02
20961	3.22596e+02	2.09610e+04	2.76614e-01	3.20000e+02
20992	3.22592e+02	2.09920e+04	2.76232e-01	3.20000e+02
21023	3.22588e+02	2.10230e+04	2.75866e-01	3.20000e+02
21054	3.22587e+02	2.10540e+04	2.75303e-01	3.20000e+02
21085	3.22597e+02	2.10850e+04	2.74803e-01	3.20000e+02
21116	3.22596e+02	2.11160e+04	2.74445e-01	3.20000e+02
21147	3.22605e+02	2.11470e+04	2.73959e-01	3.20000e+02
21178	3.22599e+02	2.11780e+04	2.73470e-01	3.20000e+02
21209	3.22597e+02	2.12090e+04	2.72953e-01	3.20000e+02
21240	3.22598e+02	2.12400e+04	2.72539e-01	3.20000e+02
21271	3.22596e+02	2.12710e+04	2.71988e-01	3.20000e+02
21302	3.22589e+02	2.13020e+04	2.71495e-01	3.20000e+02
21333	3.22581e+02	2.13330e+04	2.71029e-01	3.20000e+02
21364	3.22591e+02	2.13640e+04	2.70752e-01	3.20000e+02
21395	3.22599e+02	2.13950e+04	2.70286e-01	3.20000e+02
21426	3.22598e+02	2.14260e+04	2.69937e-01	3.20000e+02
21457	3.22592e+02	2.14570e+04	2.69434e-01	3.20000e+02
21488	3.22579e+02	2.14880e+04	2.68993e-01	3.20000e+02
21519	3.22586e+02	2.15190e+04	2.68511e-01	3.20000e+02
21550	3.22590e+02	2.15500e+04	2.68171e-01	3.20000e+02
21581	3.22575e+02	2.15810e+04	2.67750e-01	3.20000e+02
21612	3.22589e+02	2.16120e+04	2.67420e-01	3.20000e+02
21643	3.22597e+02	2.16430e+04	2.67014e-01	3.20000e+02
21674	3.22596e+02	2.16740e+04	2.66426e-01	3.20000e+02
21705	3.22584e+02	2.17050e+04	2.66104e-01	3.20000e+02
21736	3.22575e+02	2.17360e+04	2.65614e-01	3.20000e+02
21767	3.22585e+02	2.17670e+04	2.65131e-01	3.20000e+02
21798	3.22584e+02	2.17980e+04	2.64646e-01	3.20000e+02
21829	3.22576e+02	2.18290e+04	2.64162e-01	3.20000e+02
21860	3.22597e+02	2.18600e+04	2.63989e-01	3.20000e+02
21891	3.22589e+02	2.18910e+04	2.63491e-01	3.20000e+02
21922	3.22581e+02	2.19220e+04	2.63098e-01	3.20000e+02
21953	3.22586e+02	2.19530e+04	2.62706e-01	3.20000e+02
21984	3.22582e+02	2.19840e+04	2.62434e-01	3.20000e+02
22015	3.22576e+02	2.20150e+04	2.61959e-01	3.20000e+02
22046	3.22586e+02	2.20460e+04	2.61638e-01	3.20000e+02
22077	3.22592e+02	2.20770e+04	2.61347e-01	3.20000e+02
22108	3.22586e+02	2.21080e+04	2.60760e-01	3.20000e+02
22139	3.22578e+02	2.21390e+04	2.60233e-01	3.20000e+02
22170	3.22576e+02	2.21700e+04	2.59883e-01	3.20000e+02
22201	3.22585e+02	2.22010e+04	2.59418e-01	3.20000e+02
22232	3.22582e+02	2.22320e+04	2.59172e-01	3.20000e+02
22263	3.22593e+02	2.22630e+04	2.58747e-01	3.20000e+02
22294	3.22596e+02	2.22940e+04	2.58268e-01	3.20000e+02
22325	3.22586e+02	2.23250e+04	2.57879e-01	3.20000e+02
22356	3.22607e+02	2.23560e+04	2.57357e-01	3.20000e+02
22387	3.22594e+02	2.23870e+04	2.57052e-01	3.20000e+02
22418	3.22595e+02	2.24180e+04	2.56821e-01	3.20000e+02
22449	3.22596e+02	2.24490e+04	2.56211e-01	3.20000e+02
22480	3.22595e+02	2.24800e+04	2.55889e-01	3.20000e+02
22511	3.22590e+02	2.25110e+04	2.55574e-01	3.20000e+02
22542	3.22592e+02	2.25420e+04	2.54993e-01	3.20000e+02
22573	3.22581e+02	2.25730e+04	2.54598e-01	3.20000e+02
22604	3.22580e+02	2.26040e+04	2.54252e-01	3.20000e+02
22635	3.22587e+02	2.26350e+04	2.53948e-01	3.20000e+02
22666	3.22583e+02	2.26660e+04	2.53547e-01	3.20000e+02
22697	3.22584e+02	2.26970e+04	2.52981e-01	3.20000e+02
22728	3.22582e+02	2.27280e+04	2.52721e-01	3.20000e+02
22759	3.22580e+02	2.27590e+04	2.52338e-01	3.20000e+02
22790	3.22580e+02	2.27900e+04	2.52007e-01	3.20000e+02
22821	3.22576e+02	2.28210e+04	2.51581e-01	3.20000e+02
22852	3.22577e+02	2.28520e+04	2.51050e-01	3.20000e+02
22883	3.22584e+02	2.28830e+04	2.50536e-01	3.20000e+02
22914	3.22580e+02	2.29140e+04	2.50251e-01	3.20000e+02
22945	3.22591e+02	2.29450e+04	2.49856e-01	3.20000e+02
22976	3.22576e+02	2.29760e+04	2.49519e-01	3.20000e+02
23007	3.22575e+02	2.30070e+04	2.49200e-01	3.20000e+02
23038	3.22572e+02	2.30380e+04	2.48880e-01	3.20000e+02
23069	3.22575e+02	2.30690e+04	2.48594e-01	3.20000e+02
23100	3.22584e+02	2.31000e+04	2.48028e-01	3.20000e+02
23131	3.22589e+02	2.31310e+04	2.47780e-01	3.20000e+02
23162	3.22579e+02	2.31620e+04	2.47485e-01	3.20000e+02
23193	3.22582e+02	2.31930e+04	2.47201e-01	3.20000e+02
23224	3.22577e+02	2.32240e+04	2.46812e-01	3.20000e+02
23255	3.22577e+02	2.32550e+04	2.46489e-01	3.20000e+02
23286	3.22586e+02	2.32860e+04	2.46026e-01	3.20000e+02
23317	3.22581e+02	2.33170e+04	2.45685e-01	3.20000e+02
23348	3.22580e+02	2.33480e+04	2.45441e-01	3.20000e+02
23379	3.22587e+02	2.33790e+04	2.45021e-01	3.20000e+02
23410	3.22581e+02	2.34100e+04	2.44692e-01	3.20000e+02
23441	3.22593e+02	2.34410e+04	2.44250e-01	3.20000e+02
23472	3.22594e+02	2.34720e+04	2.43812e-01	3.20000e+02
23503	3.22590e+02	2.35030e+04	2.43499e-01	3.20000e+02
23534	3.22589e+02	2.35340e+04	2.43207e-01	3.20000e+02
23565	3.22580e+02	2.35650e+04	2.42788e-01	3.20000e+02
23596	3.22589e+02	2.35960e+04	2.42461e-01	3.20000e+02
23627	3.22588e+02	2.36270e+04	2.42011e-01	3.20000e+02
23658	3.22583e+02	2.36580e+04	2.41705e-01	3.20000e+02
23689	3.22588e+02	2.36890e+04	2.41483e-01	3.20000e+02
23720	3.22588e+02	2.37200e+04	2.40959e-01	3.20000e+02
23751	3.22590e+02	2.37510e+04	2.40702e-01	3.20000e+02
23782	3.22586e+02	2.37820e+04	2.40287e-01	3.20000e+02
23813	3.22583e+02	2.38130e+04	2.39890e-01	3.20000e+02
23844	3.22583e+02	2.38440e+04	2.39491e-01	3.20000e+02
23875	3.22577e+02	2.38750e+04	2.39287e-01	3.20000e+02
23906	3.22578e+02	2.39060e+04	2.38959e-01	3.20000e+02
23937	3.22587e+02	2.39370e+04	2.38505e-01	3.20000e+02
23968	3.22583e+02	2.39680e+04	2.37951e-01	3.20000e+02
23999	3.22586e+02	2.39990e+04	2.37689e-01	3.20000e+02
24030	3.22572e+02	2.40300e+04	2.37585e-01	3.20000e+02
24061	3.22583e+02	2.40610e+04	2.37102e-01	3.20000e+02
24092	3.22576e+02	2.40920e+04	2.36635e-01	3.20000e+02
24123	3.22576e+02	2.41230e+04	2.36236e-01	3.20000e+02
24154	3.22557e+02	2.41540e+04	2.36204e-01	3.20000e+02
24185	3.22563e+02	2.41850e+04	2.35955e-01	3.20000e+02
24216	3.22562e+02	2.42160e+04	2.35388e-01	3.20000e+02
24247	3.22572e+02	2.42470e+04	2.35194e-01	3.20000e+02
24278	3.22578e+02	2.42780e+04	2.34951e-01	3.20000e+02
24309	3.22565e+02	2.43090e+04	2.34543e-01	3.20000e+02
24340	3.22566e+02	2.43400e+04	2.34090e-01	3.20000e+02
24371	3.22560e+02	2.43710e+04	2.33899e-01	3.20000e+02
24402	3.22571e+02	2.44020e+04	2.33541e-01	3.20000e+02
24433	3.22570e+02	2.44330e+04	2.33184e-01	3.20000e+02
24464	3.22583e+02	2.44640e+04	2.32691e-01	3.20000e+02
24495	3.22565e+02	2.44950e+04	2.32568e-01	3.20000e+02
24526	3.22578e+02	2.45260e+04	2.32231e-01	3.20000e+02
24557	3.22579e+02	2.45570e+04	2.31808e-01	3.20000e+02
24588	3.22581e+02	2.45880e+04	2.31677e-01	3.20000e+02
24619	3.22587e+02	2.46190e+04	2.31395e-01	3.20000e+02
24650	3.22568e+02	2.46500e+04	2.31036e-01	3.20000e+02
24681	3.22581e+02	2.46810e+04	2.30851e-01	3.20000e+02
24712	3.22565e+02	2.47120e+04	2.30541e-01	3.20000e+02
24743	3.22577e+02	2.47430e+04	2.30202e-01	3.20000e+02
24774	3.22579e+02	2.47740e+04	2.29835e-01	3.20000e+02
24805	3.22576e+02	2.48050e+04	2.29319e-01	3.20000e+02
24836	3.22575e+02	2.48360e+04	2.28997e-01	3.20000e+02
24867	3.22560e+02	2.48670e+04	2.28683e-01	3.20000e+02
24898	3.22564e+02	2.48980e+04	2.28365e-01	3.20000e+02
24929	3.22564e+02	2.49290e+04	2.28047e-01	3.20000e+02
24960	3.22570e+02	2.49600e+04	2.27757e-01	3.20000e+02
24991	3.22585e+02	2.49910e+04	2.27465e-01	3.20000e+02
25022	3.22566e+02	2.50220e+04	2.27269e-01	3.20000e+02
25053	3.22578e+02	2.50530e+04	2.26901e-01	3.20000e+02
25084	3.22572e+02	2.50840e+04	2.26657e-01	3.20000e+02
25115	3.22572e+02	2.51150e+04	2.26092e-01	3.20000e+02
25146	3.22550e+02	2.51460e+04	2.25856e-01	3.20000e+02
25177	3.22568e+02	2.51770e+04	2.25688e-01	3.20000e+02
25208	3.22561e+02	2.52080e+04	2.25163e-01	3.20000e+02
25239	3.22572e+02	2.52390e+04	2.25016e-01	3.20000e+02
25270	3.22564e+02	2.52700e+04	2.24818e-01	3.20000e+02
25301	3.22570e+02	2.53010e+04	2.24374e-01	3.20000e+02
25332	3.22568e+02	2.53320e+04	2.24104e-01	3.20000e+02
25363	3.22574e+02	2.53630e+04	2.23704e-01	3.20000e+02
25394	3.22573e+02	2.53940e+04	2.23424e-01	3.20000e+02
25425	3.22569e+02	2.54250e+04	2.23263e-01	3.20000e+02
25456	3.22574e+02	2.54560e+04	2.22880e-01	3.20000e+02
25487	3.22581e+02	2.54870e+04	2.22508e-01	3.20000e+02
25518	3.22573e+02	2.55180e+04	2.22283e-01	3.20000e+02
25549	3.22572e+02	2.55490e+04	2.22195e-01	3.20000e+02
25580	3.22575e+02	2.55800e+04	2.21876e-01	3.20000e+02
25611	3.22559e+02	2.56110e+04	2.21535e-01	3.20000e+02
25642	3.22571e+02	2.56420e+04	2.21193e-01	3.20000e+02
25673	3.22548e+02	2.56730e+04	2.20960e-01	3.20000e+02
25704	3.22571e+02	2.57040e+04	2.20719e-01	3.20000e+02
25735	3.22560e+02	2.57350e+04	2.20350e-01	3.20000e+02
25766	3.22568e+02	2.57660e+04	2.20077e-01	3.20000e+02
25797	3.22567e+02	2.57970e+04	2.19687e-01	3.20000e+02
25828	3.22559e+02	2.58280e+04	2.19491e-01	3.20000e+02
25859	3.22562e+02	2.58590e+04	2.19099e-01	3.20000e+02
25890	3.22565e+02	2.58900e+04	2.18875e-01	3.20000e+02
25921	3.22559e+02	2.59210e+04	2.18594e-01	3.20000e+02
25952	3.22561e+02	2.59520e+04	2.18190e-01	3.20000e+02
25983	3.22566e+02	2.59830e+04	2.17952e-01	3.20000e+02
26014	3.22567e+02	2.60140e+04	2.17563e-01	3.20000e+02
26045	3.22559e+02	2.60450e+04	2.17368e-01	3.20000e+02
26076	3.22545e+02	2.60760e+04	2.17114e-01	3.20000e+02
26107	3.22569e+02	2.61070e+04	2.16763e-01	3.20000e+02
26138	3.22564e+02	2.61380e+04	2.16507e-01	3.20000e+02
26169	3.22562e+02	2.61690e+04	2.16227e-01	3.20000e+02
26200	3.22559e+02	2.62000e+04	2.15858e-01	3.20000e+02
26231	3.22564e+02	2.62310e+04	2.15590e-01	3.20000e+02
26262	3.22558e+02	2.62620e+04	2.15285e-01	3.20000e+02
26293	3.22555e+02	2.62930e+04	2.14942e-01	3.20000e+02
26324	3.22557e+02	2.63240e+04	2.14759e-01	3.20000e+02
26355	3.22556e+02	2.63550e+04	2.14571e-01	3.20000e+02
26386	3.22572e+02	2.63860e+04	2.14003e-01	3.20000e+02
26417	3.22557e+02	2.64170e+04	2.13785e-01	3.20000e+02
26448	3.22548e+02	2.64480e+04	2.13544e-01	3.20000e+02
26479	3.22551e+02	2.64790e+04	2.13201e-01	3.20000e+02
26510	3.22566e+02	2.65100e+04	2.12896e-01	3.20000e+02
26541	3.22555e+02	2.65410e+04	2.12686e-01	3.20000e+02
26572	3.22565e+02	2.65720e+04	2.12286e-01	3.20000e+02
26603	3.22566e+02	2.66030e+04	2.12250e-01	3.20000e+02
26634	3.22554e+02	2.66340e+04	2.11887e-01	3.20000e+02
26665	3.22560e+02	2.66650e+04	2.11686e-01	3.20000e+02
26696	3.22545e+02	2.66960e+04	2.11214e-01	3.20000e+02
26727	3.22547e+02	2.67270e+04	2.11126e-01	3.20000e+02
26758	3.22553e+02	2.67580e+04	2.10756e-01	3.20000e+02
26789	3.22557e+02	2.67890e+04	2.10488e-01	3.20000e+02
26820	3.22553e+02	2.68200e+04	2.10182e-01	3.20000e+02
26851	3.22551e+02	2.68510e+04	2.09985e-01	3.20000e+02
26882	3.22567e+02	2.68820e+04	2.09614e-01	3.20000e+02
26913	3.22561e+02	2.69130e+04	2.09605e-01	3.20000e+02
26944	3.22547e+02	2.69440e+04	2.09274e-01	3.20000e+02
26975	3.22549e+02	2.69750e+04	2.09051e-01	3.20000e+02
27006	3.22554e+02	2.70060e+04	2.08636e-01	3.20000e+02
27037	3.22546e+02	2.70370e+04	2.08344e-01	3.20000e+02
27068	3.22538e+02	2.70680e+04	2.08189e-01	3.20000e+02
27099	3.22547e+02	2.70990e+04	2.08054e-01	3.20000e+02
27130	3.22547e+02	2.71300e+04	2.07677e-01	3.20000e+02
27161	3.22552e+02	2.71610e+04	2.07316e-01	3.20000e+02
27192	3.22565e+02	2.71920e+04	2.07014e-01	3.20000e+02
27223	3.22557e+02	2.72230e+04	2.06756e-01	3.20000e+02
27254	3.22558e+02	2.72540e+04	2.06675e-01	3.20000e+02
27285	3.22554e+02	2.72850e+04	2.06562e-01	3.20000e+02
27316	3.22541e+02	2.73160e+04	2.06179e-01	3.20000e+02
27347	3.22555e+02	2.73470e+04	2.05966e-01	3.20000e+02
27378	3.22572e+02	2.73780e+04	2.05651e-01	3.20000e+02
27409	3.22558e+02	2.74090e+04	2.05354e-01	3.20000e+02
27440	3.22553e+02	2.74400e+04	2.05251e-01	3.20000e+02
27471	3.22558e+02	2.74710e+04	2.04987e-01	3.20000e+02
27502	3.22559e+02	2.75020e+04	2.04696e-01	3.20000e+02
27533	3.22564e+02	2.75330e+04	2.04480e-01	3.20000e+02
27564	3.22563e+02	2.75640e+04	2.04285e-01	3.20000e+02
27595	3.22569e+02	2.75950e+04	2.03988e-01	3.20000e+02
27626	3.22557e+02	2.76260e+04	2.03713e-01	3.20000e+02
27657	3.22563e+02	2.76570e+04	2.03343e-01	3.20000e+02
27688	3.22568e+02	2.76880e+04	2.03068e-01	3.20000e+02
27719	3.22557e+02	2.77190e+04	2.02872e-01	3.20000e+02
27750	3.22559e+02	2.77500e+04	2.02591e-01	3.20000e+02
27781	3.22563e+02	2.77810e+04	2.02330e-01	3.20000e+02
27812	3.22562e+02	2.78120e+04	2.02060e-01	3.20000e+02
27843	3.22554e+02	2.78430e+04	2.01861e-01	3.20000e+02
27874	3.22566e+02	2.78740e+04	2.01695e-01	3.20000e+02
27905	3.22568e+02	2.79050e+04	2.01253e-01	3.20000e+02
27936	3.22560e+02	2.79360e+04	2.00937e-01	3.20000e+02
27967	3.22555e+02	2.79670e+04	2.00716e-01	3.20000e+02
27998	3.22559e+02	2.79980e+04	2.00704e-01	3.20000e+02
28029	3.22554e+02	2.80290e+04	2.00202e-01	3.20000e+02
28060	3.22560e+02	2.80600e+04	2.00022e-01	3.20000e+02
28091	3.22552e+02	2.80910e+04	1.99878e-01	3.20000e+02
28122	3.22566e+02	2.81220e+04	1.99555e-01	3.20000e+02
28153	3.22564e+02	2.81530e+04	1.99222e-01	3.20000e+02
28184	3.22560e+02	2.81840e+04	1.98935e-01	3.20000e+02
28215	3.22560e+02	2.82150e+04	1.98769e-01	3.20000e+02
28246	3.22566e+02	2.82460e+04	1.98605e-01	3.20000e+02
28277	3.22564e+02	2.82770e+04	1.98465e-01	3.20000e+02
28308	3.22556e+02	2.83080e+04	1.98050e-01	3.20000e+02
28339	3.22556e+02	2.83390e+04	1.97966e-01	3.20000e+02
28370	3.22551e+02	2.83700e+04	1.97684e-01	3.20000e+02
28401	3.22551e+02	2.84010e+04	1.97410e-01	3.20000e+02
28432	3.22559e+02	2.84320e+04	1.97092e-01	3.20000e+02
28463	3.22544e+02	2.84630e+04	1.97077e-01	3.20000e+02
28494	3.22542e+02	2.84940e+04	1.96793e-01	3.20000e+02
28525	3.22538e+02	2.85250e+04	1.96516e-01	3.20000e+02
28556	3.22545e+02	2.85560e+04	1.96457e-01	3.20000e+02
28587	3.22555e+02	2.85870e+04	1.95992e-01	3.20000e+02
28618	3.22540e+02	2.86180e+04	1.95732e-01	3.20000e+02
28649	3.22549e+02	2.86490e+04	1.95564e-01	3.20000e+02
28680	3.22552e+02	2.86800e+04	1.95244e-01	3.20000e+02
28711	3.22550e+02	2.87110e+04	1.94985e-01	3.20000e+02
28742	3.22559e+02	2.87420e+04	1.94737e-01	3.20000e+02
28773	3.22562e+02	2.87730e+04	1.94535e-01	3.20000e+02
28804	3.22560e+02	2.88040e+04	1.94285e-01	3.20000e+02
28835	3.22543e+02	2.88350e+04	1.93938e-01	3.20000e+02
28866	3.22552e+02	2.88660e+04	1.93854e-01	3.20000e+02
28897	3.22553e+02	2.88970e+04	1.93488e-01	3.20000e+02
28928	3.22557e+02	2.89280e+04	1.93248e-01	3.20000e+02
28959	3.22554e+02	2.89590e+04	1.93062e-01	3.20000e+02
28990	3.22542e+02	2.89900e+04	1.92967e-01	3.20000e+02
29021	3.22546e+02	2.90210e+04	1.92707e-01	3.20000e+02
29052	3.22545e+02	2.90520e+04	1.92445e-01	3.20000e+02
29083	3.22549e+02	2.90830e+04	1.92221e-01	3.20000e+02
29114	3.22560e+02	2.91140e+04	1.92047e-01	3.20000e+02
29145	3.22553e+02	2.91450e+04	1.91901e-01	3.20000e+02
29176	3.22552e+02	2.91760e+04	1.91521e-01	3.20000e+02
29207	3.22560e+02	2.92070e+04	1.91485e-01	3.20000e+02
29238	3.22564e+02	2.92380e+04	1.91284e-01	3.20000e+02
29269	3.22551e+02	2.92690e+04	1.90935e-01	3.20000e+02
29300	3.22553e+02	2.93000e+04	1.90724e-01	3.20000e+02
29331	3.22564e+02	2.93310e+04	1.90485e-01	3.20000e+02
29362	3.22558e+02	2.93620e+04	1.90220e-01	3.20000e+02
29393	3.22556e+02	2.93930e+04	1.89999e-01	3.20000e+02
29424	3.22547e+02	2.94240e+04	1.90027e-01	3.20000e+02
29455	3.22571e+02	2.94550e+04	1.89527e-01	3.20000e+02
29486	3.22564e+02	2.94860e+04	1.89441e-01	3.20000e+02
29517	3.22562e+02	2.95170e+04	1.89103e-01	3.20000e+02
29548	3.22557e+02	2.95480e+04	1.88878e-01	3.20000e+02
29579	3.22546e+02	2.95790e+04	1.88685e-01	3.20000e+02
29610	3.22556e+02	2.96100e+04	1.88472e-01	3.20000e+02
29641	3.22557e+02	2.96410e+04	1.88186e-01	3.20000e+02
29672	3.22559e+02	2.96720e+04	1.88011e-01	3.20000e+02
29703	3.22553e+02	2.97030e+04	1.87916e-01	3.20000e+02
29731	3.22560e+02	2.97310e+04	1.87417e-01	3.20000e+02