File: Experiments/TGA/TUBS/tga_nonisotherm/tga_dynamic_n2_dyn10_powder_3mg_r1.txt
index	ts	t	weight	tr
[#]	[°C]	[s]	[mg]	[°C]
843	1.30729e+02	8.43000e+02	3.02599e+00	1.30500e+02
847	1.31407e+02	8.47000e+02	3.02592e+00	1.31167e+02
851	1.32074e+02	8.51000e+02	3.02587e+00	1.31833e+02
855	1.32746e+02	8.55000e+02	3.02578e+00	1.32500e+02
859	1.33407e+02	8.59000e+02	3.02564e+00	1.33167e+02
863	1.34074e+02	8.63000e+02	3.02548e+00	1.33833e+02
867	1.34740e+02	8.67000e+02	3.02528e+00	1.34500e+02
871	1.35410e+02	8.71000e+02	3.02507e+00	1.35167e+02
875	1.36101e+02	8.75000e+02	3.02484e+00	1.35833e+02
879	1.36780e+02	8.79000e+02	3.02453e+00	1.36500e+02
883	1.37428e+02	8.83000e+02	3.02425e+00	1.37167e+02
887	1.38102e+02	8.87000e+02	3.02407e+00	1.37833e+02
891	1.38773e+02	8.91000e+02	3.02392e+00	1.38500e+02
895	1.39443e+02	8.95000e+02	3.02371e+00	1.39167e+02
899	1.40117e+02	8.99000e+02	3.02349e+00	1.39833e+02
903	1.40801e+02	9.03000e+02	3.02324e+00	1.40500e+02
907	1.41481e+02	9.07000e+02	3.02290e+00	1.41167e+02
911	1.42135e+02	9.11000e+02	3.02263e+00	1.41833e+02
915	1.42806e+02	9.15000e+02	3.02251e+00	1.42500e+02
919	1.43469e+02	9.19000e+02	3.02227e+00	1.43167e+02
923	1.44151e+02	9.23000e+02	3.02171e+00	1.43833e+02
927	1.44831e+02	9.27000e+02	3.02130e+00	1.44500e+02
931	1.45491e+02	9.31000e+02	3.02139e+00	1.45167e+02
935	1.46172e+02	9.35000e+02	3.02132e+00	1.45833e+02
939	1.46842e+02	9.39000e+02	3.02084e+00	1.46500e+02
943	1.47510e+02	9.43000e+02	3.02034e+00	1.47167e+02
947	1.48183e+02	9.47000e+02	3.01992e+00	1.47833e+02
951	1.48861e+02	9.51000e+02	3.01950e+00	1.48500e+02
955	1.49536e+02	9.55000e+02	3.01915e+00	1.49167e+02
959	1.50207e+02	9.59000e+02	3.01881e+00	1.49833e+02
963	1.50891e+02	9.63000e+02	3.01835e+00	1.50500e+02
967	1.51556e+02	9.67000e+02	3.01794e+00	1.51167e+02
971	1.52240e+02	9.71000e+02	3.01760e+00	1.51833e+02
975	1.52913e+02	9.75000e+02	3.01720e+00	1.52500e+02
979	1.53579e+02	9.79000e+02	3.01669e+00	1.53167e+02
983	1.54262e+02	9.83000e+02	3.01616e+00	1.53833e+02
987	1.54938e+02	9.87000e+02	3.01568e+00	1.54500e+02
991	1.55603e+02	9.91000e+02	3.01526e+00	1.55167e+02
995	1.56277e+02	9.95000e+02	3.01486e+00	1.55833e+02
999	1.56957e+02	9.99000e+02	3.01439e+00	1.56500e+02
1003	1.57634e+02	1.00300e+03	3.01389e+00	1.57167e+02
1007	1.58310e+02	1.00700e+03	3.01347e+00	1.57833e+02
1011	1.58981e+02	1.01100e+03	3.01305e+00	1.58500e+02
1015	1.59644e+02	1.01500e+03	3.01249e+00	1.59167e+02
1019	1.60337e+02	1.01900e+03	3.01189e+00	1.59833e+02
1023	1.61000e+02	1.02300e+03	3.01134e+00	1.60500e+02
1027	1.61689e+02	1.02700e+03	3.01081e+00	1.61167e+02
1031	1.62350e+02	1.03100e+03	3.01023e+00	1.61833e+02
1035	1.63021e+02	1.03500e+03	3.00953e+00	1.62500e+02
1039	1.63684e+02	1.03900e+03	3.00882e+00	1.63167e+02
1043	1.64363e+02	1.04300e+03	3.00808e+00	1.63833e+02
1047	1.65022e+02	1.04700e+03	3.00733e+00	1.64500e+02
1051	1.65708e+02	1.05100e+03	3.00657e+00	1.65167e+02
1055	1.66393e+02	1.05500e+03	3.00571e+00	1.65833e+02
1059	1.67055e+02	1.05900e+03	3.00476e+00	1.66500e+02
1063	1.67732e+02	1.06300e+03	3.00371e+00	1.67167e+02
1067	1.68401e+02	1.06700e+03	3.00266e+00	1.67833e+02
1071	1.69081e+02	1.07100e+03	3.00164e+00	1.68500e+02
1075	1.69749e+02	1.07500e+03	3.00052e+00	1.69167e+02
1079	1.70425e+02	1.07900e+03	2.99918e+00	1.69833e+02
1083	1.71105e+02	1.08300e+03	2.99770e+00	1.70500e+02
1087	1.71778e+02	1.08700e+03	2.99616e+00	1.71167e+02
1091	1.72446e+02	1.09100e+03	2.99456e+00	1.71833e+02
1095	1.73119e+02	1.09500e+03	2.99297e+00	1.72500e+02
1099	1.73792e+02	1.09900e+03	2.99140e+00	1.73167e+02
1103	1.74474e+02	1.10300e+03	2.98977e+00	1.73833e+02
1107	1.75143e+02	1.10700e+03	2.98796e+00	1.74500e+02
1111	1.75807e+02	1.11100e+03	2.98593e+00	1.75167e+02
1115	1.76477e+02	1.11500e+03	2.98380e+00	1.75833e+02
1119	1.77162e+02	1.11900e+03	2.98171e+00	1.76500e+02
1123	1.77844e+02	1.12300e+03	2.97961e+00	1.77167e+02
1127	1.78507e+02	1.12700e+03	2.97735e+00	1.77833e+02
1131	1.79189e+02	1.13100e+03	2.97497e+00	1.78500e+02
1135	1.79858e+02	1.13500e+03	2.97262e+00	1.79167e+02
1139	1.80527e+02	1.13900e+03	2.97023e+00	1.79833e+02
1143	1.81206e+02	1.14300e+03	2.96773e+00	1.80500e+02
1147	1.81877e+02	1.14700e+03	2.96521e+00	1.81167e+02
1151	1.82552e+02	1.15100e+03	2.96270e+00	1.81833e+02
1155	1.83230e+02	1.15500e+03	2.96024e+00	1.82500e+02
1159	1.83912e+02	1.15900e+03	2.95779e+00	1.83167e+02
1163	1.84596e+02	1.16300e+03	2.95527e+00	1.83833e+02
1167	1.85264e+02	1.16700e+03	2.95280e+00	1.84500e+02
1171	1.85939e+02	1.17100e+03	2.95040e+00	1.85167e+02
1175	1.86629e+02	1.17500e+03	2.94801e+00	1.85833e+02
1179	1.87296e+02	1.17900e+03	2.94575e+00	1.86500e+02
1183	1.87972e+02	1.18300e+03	2.94363e+00	1.87167e+02
1187	1.88636e+02	1.18700e+03	2.94155e+00	1.87833e+02
1191	1.89326e+02	1.19100e+03	2.93952e+00	1.88500e+02
1195	1.90005e+02	1.19500e+03	2.93759e+00	1.89167e+02
1199	1.90688e+02	1.19900e+03	2.93577e+00	1.89833e+02
1203	1.91354e+02	1.20300e+03	2.93409e+00	1.90500e+02
1207	1.92027e+02	1.20700e+03	2.93254e+00	1.91167e+02
1211	1.92704e+02	1.21100e+03	2.93095e+00	1.91833e+02
1215	1.93384e+02	1.21500e+03	2.92935e+00	1.92500e+02
1219	1.94059e+02	1.21900e+03	2.92788e+00	1.93167e+02
1223	1.94731e+02	1.22300e+03	2.92657e+00	1.93833e+02
1227	1.95398e+02	1.22700e+03	2.92533e+00	1.94500e+02
1231	1.96082e+02	1.23100e+03	2.92410e+00	1.95167e+02
1235	1.96756e+02	1.23500e+03	2.92297e+00	1.95833e+02
1239	1.97431e+02	1.23900e+03	2.92216e+00	1.96500e+02
1243	1.98104e+02	1.24300e+03	2.92154e+00	1.97167e+02
1247	1.98773e+02	1.24700e+03	2.92075e+00	1.97833e+02
1251	1.99456e+02	1.25100e+03	2.91995e+00	1.98500e+02
1255	2.00143e+02	1.25500e+03	2.91923e+00	1.99167e+02
1259	2.00819e+02	1.25900e+03	2.91843e+00	1.99833e+02
1263	2.01500e+02	1.26300e+03	2.91770e+00	2.00500e+02
1267	2.02177e+02	1.26700e+03	2.91718e+00	2.01167e+02
1271	2.02840e+02	1.27100e+03	2.91675e+00	2.01833e+02
1275	2.03515e+02	1.27500e+03	2.91631e+00	2.02500e+02
1279	2.04198e+02	1.27900e+03	2.91578e+00	2.03167e+02
1283	2.04871e+02	1.28300e+03	2.91525e+00	2.03833e+02
1287	2.05544e+02	1.28700e+03	2.91473e+00	2.04500e+02
1291	2.06228e+02	1.29100e+03	2.91418e+00	2.05167e+02
1295	2.06899e+02	1.29500e+03	2.91365e+00	2.05833e+02
1299	2.07582e+02	1.29900e+03	2.91320e+00	2.06500e+02
1303	2.08260e+02	1.30300e+03	2.91284e+00	2.07167e+02
1307	2.08944e+02	1.30700e+03	2.91245e+00	2.07833e+02
1311	2.09612e+02	1.31100e+03	2.91183e+00	2.08500e+02
1315	2.10290e+02	1.31500e+03	2.91113e+00	2.09167e+02
1319	2.10970e+02	1.31900e+03	2.91074e+00	2.09833e+02
1323	2.11642e+02	1.32300e+03	2.91066e+00	2.10500e+02
1327	2.12322e+02	1.32700e+03	2.91028e+00	2.11167e+02
1331	2.13001e+02	1.33100e+03	2.90952e+00	2.11833e+02
1335	2.13674e+02	1.33500e+03	2.90889e+00	2.12500e+02
1339	2.14360e+02	1.33900e+03	2.90848e+00	2.13167e+02
1343	2.15019e+02	1.34300e+03	2.90807e+00	2.13833e+02
1347	2.15697e+02	1.34700e+03	2.90762e+00	2.14500e+02
1351	2.16381e+02	1.35100e+03	2.90709e+00	2.15167e+02
1355	2.17041e+02	1.35500e+03	2.90651e+00	2.15833e+02
1359	2.17727e+02	1.35900e+03	2.90589e+00	2.16500e+02
1363	2.18401e+02	1.36300e+03	2.90533e+00	2.17167e+02
1367	2.19077e+02	1.36700e+03	2.90495e+00	2.17833e+02
1371	2.19751e+02	1.37100e+03	2.90460e+00	2.18500e+02
1375	2.20420e+02	1.37500e+03	2.90420e+00	2.19167e+02
1379	2.21095e+02	1.37900e+03	2.90380e+00	2.19833e+02
1383	2.21763e+02	1.38300e+03	2.90345e+00	2.20500e+02
1387	2.22442e+02	1.38700e+03	2.90314e+00	2.21167e+02
1391	2.23119e+02	1.39100e+03	2.90279e+00	2.21833e+02
1395	2.23801e+02	1.39500e+03	2.90236e+00	2.22500e+02
1399	2.24471e+02	1.39900e+03	2.90188e+00	2.23167e+02
1403	2.25143e+02	1.40300e+03	2.90143e+00	2.23833e+02
1407	2.25809e+02	1.40700e+03	2.90107e+00	2.24500e+02
1411	2.26485e+02	1.41100e+03	2.90070e+00	2.25167e+02
1415	2.27153e+02	1.41500e+03	2.90037e+00	2.25833e+02
1419	2.27828e+02	1.41900e+03	2.90012e+00	2.26500e+02
1423	2.28495e+02	1.42300e+03	2.89980e+00	2.27167e+02
1427	2.29153e+02	1.42700e+03	2.89942e+00	2.27833e+02
1431	2.29820e+02	1.43100e+03	2.89912e+00	2.28500e+02
1435	2.30505e+02	1.43500e+03	2.89891e+00	2.29167e+02
1439	2.31179e+02	1.43900e+03	2.89872e+00	2.29833e+02
1443	2.31841e+02	1.44300e+03	2.89855e+00	2.30500e+02
1447	2.32501e+02	1.44700e+03	2.89830e+00	2.31167e+02
1451	2.33174e+02	1.45100e+03	2.89800e+00	2.31833e+02
1455	2.33854e+02	1.45500e+03	2.89778e+00	2.32500e+02
1459	2.34518e+02	1.45900e+03	2.89754e+00	2.33167e+02
1463	2.35197e+02	1.46300e+03	2.89726e+00	2.33833e+02
1467	2.35877e+02	1.46700e+03	2.89696e+00	2.34500e+02
1471	2.36548e+02	1.47100e+03	2.89675e+00	2.35167e+02
1475	2.37208e+02	1.47500e+03	2.89659e+00	2.35833e+02
1479	2.37885e+02	1.47900e+03	2.89644e+00	2.36500e+02
1483	2.38566e+02	1.48300e+03	2.89629e+00	2.37167e+02
1487	2.39236e+02	1.48700e+03	2.89605e+00	2.37833e+02
1491	2.39882e+02	1.49100e+03	2.89581e+00	2.38500e+02
1495	2.40572e+02	1.49500e+03	2.89564e+00	2.39167e+02
1499	2.41232e+02	1.49900e+03	2.89545e+00	2.39833e+02
1503	2.41914e+02	1.50300e+03	2.89521e+00	2.40500e+02
1507	2.42571e+02	1.50700e+03	2.89497e+00	2.41167e+02
1511	2.43232e+02	1.51100e+03	2.89477e+00	2.41833e+02
1515	2.43909e+02	1.51500e+03	2.89457e+00	2.42500e+02
1519	2.44568e+02	1.51900e+03	2.89431e+00	2.43167e+02
1523	2.45233e+02	1.52300e+03	2.89416e+00	2.43833e+02
1527	2.45898e+02	1.52700e+03	2.89419e+00	2.44500e+02
1531	2.46575e+02	1.53100e+03	2.89403e+00	2.45167e+02
1535	2.47225e+02	1.53500e+03	2.89367e+00	2.45833e+02
1539	2.47900e+02	1.53900e+03	2.89336e+00	2.46500e+02
1543	2.48555e+02	1.54300e+03	2.89305e+00	2.47167e+02
1547	2.49237e+02	1.54700e+03	2.89280e+00	2.47833e+02
1551	2.49902e+02	1.55100e+03	2.89255e+00	2.48500e+02
1555	2.50566e+02	1.55500e+03	2.89229e+00	2.49167e+02
1559	2.51245e+02	1.55900e+03	2.89209e+00	2.49833e+02
1563	2.51914e+02	1.56300e+03	2.89189e+00	2.50500e+02
1567	2.52583e+02	1.56700e+03	2.89162e+00	2.51167e+02
1571	2.53245e+02	1.57100e+03	2.89130e+00	2.51833e+02
1575	2.53923e+02	1.57500e+03	2.89100e+00	2.52500e+02
1579	2.54582e+02	1.57900e+03	2.89074e+00	2.53167e+02
1583	2.55257e+02	1.58300e+03	2.89048e+00	2.53833e+02
1587	2.55933e+02	1.58700e+03	2.89023e+00	2.54500e+02
1591	2.56591e+02	1.59100e+03	2.88998e+00	2.55167e+02
1595	2.57276e+02	1.59500e+03	2.88977e+00	2.55833e+02
1599	2.57935e+02	1.59900e+03	2.88954e+00	2.56500e+02
1603	2.58597e+02	1.60300e+03	2.88921e+00	2.57167e+02
1607	2.59263e+02	1.60700e+03	2.88883e+00	2.57833e+02
1611	2.59916e+02	1.61100e+03	2.88841e+00	2.58500e+02
1615	2.60582e+02	1.61500e+03	2.88794e+00	2.59167e+02
1619	2.61242e+02	1.61900e+03	2.88756e+00	2.59833e+02
1623	2.61908e+02	1.62300e+03	2.88721e+00	2.60500e+02
1627	2.62573e+02	1.62700e+03	2.88681e+00	2.61167e+02
1631	2.63239e+02	1.63100e+03	2.88637e+00	2.61833e+02
1635	2.63904e+02	1.63500e+03	2.88596e+00	2.62500e+02
1639	2.64575e+02	1.63900e+03	2.88554e+00	2.63167e+02
1643	2.65255e+02	1.64300e+03	2.88510e+00	2.63833e+02
1647	2.65922e+02	1.64700e+03	2.88456e+00	2.64500e+02
1651	2.66594e+02	1.65100e+03	2.88394e+00	2.65167e+02
1655	2.67275e+02	1.65500e+03	2.88337e+00	2.65833e+02
1659	2.67939e+02	1.65900e+03	2.88279e+00	2.66500e+02
1663	2.68606e+02	1.66300e+03	2.88213e+00	2.67167e+02
1667	2.69283e+02	1.66700e+03	2.88147e+00	2.67833e+02
1671	2.69951e+02	1.67100e+03	2.88079e+00	2.68500e+02
1675	2.70631e+02	1.67500e+03	2.88000e+00	2.69167e+02
1679	2.71292e+02	1.67900e+03	2.87912e+00	2.69833e+02
1683	2.71968e+02	1.68300e+03	2.87833e+00	2.70500e+02
1687	2.72621e+02	1.68700e+03	2.87762e+00	2.71167e+02
1691	2.73298e+02	1.69100e+03	2.87684e+00	2.71833e+02
1695	2.73971e+02	1.69500e+03	2.87605e+00	2.72500e+02
1699	2.74647e+02	1.69900e+03	2.87515e+00	2.73167e+02
1703	2.75321e+02	1.70300e+03	2.87412e+00	2.73833e+02
1707	2.76007e+02	1.70700e+03	2.87305e+00	2.74500e+02
1711	2.76698e+02	1.71100e+03	2.87194e+00	2.75167e+02
1715	2.77363e+02	1.71500e+03	2.87080e+00	2.75833e+02
1719	2.78048e+02	1.71900e+03	2.86963e+00	2.76500e+02
1723	2.78733e+02	1.72300e+03	2.86842e+00	2.77167e+02
1727	2.79420e+02	1.72700e+03	2.86716e+00	2.77833e+02
1731	2.80094e+02	1.73100e+03	2.86586e+00	2.78500e+02
1735	2.80759e+02	1.73500e+03	2.86451e+00	2.79167e+02
1739	2.81452e+02	1.73900e+03	2.86310e+00	2.79833e+02
1743	2.82114e+02	1.74300e+03	2.86162e+00	2.80500e+02
1747	2.82796e+02	1.74700e+03	2.86007e+00	2.81167e+02
1751	2.83466e+02	1.75100e+03	2.85848e+00	2.81833e+02
1755	2.84127e+02	1.75500e+03	2.85682e+00	2.82500e+02
1759	2.84795e+02	1.75900e+03	2.85510e+00	2.83167e+02
1763	2.85450e+02	1.76300e+03	2.85332e+00	2.83833e+02
1767	2.86123e+02	1.76700e+03	2.85147e+00	2.84500e+02
1771	2.86782e+02	1.77100e+03	2.84951e+00	2.85167e+02
1775	2.87450e+02	1.77500e+03	2.84746e+00	2.85833e+02
1779	2.88115e+02	1.77900e+03	2.84534e+00	2.86500e+02
1783	2.88784e+02	1.78300e+03	2.84310e+00	2.87167e+02
1787	2.89448e+02	1.78700e+03	2.84076e+00	2.87833e+02
1791	2.90120e+02	1.79100e+03	2.83841e+00	2.88500e+02
1795	2.90772e+02	1.79500e+03	2.83604e+00	2.89167e+02
1799	2.91445e+02	1.79900e+03	2.83356e+00	2.89833e+02
1803	2.92125e+02	1.80300e+03	2.83103e+00	2.90500e+02
1807	2.92796e+02	1.80700e+03	2.82844e+00	2.91167e+02
1811	2.93465e+02	1.81100e+03	2.82578e+00	2.91833e+02
1815	2.94132e+02	1.81500e+03	2.82307e+00	2.92500e+02
1819	2.94781e+02	1.81900e+03	2.82038e+00	2.93167e+02
1823	2.95440e+02	1.82300e+03	2.81765e+00	2.93833e+02
1827	2.96105e+02	1.82700e+03	2.81474e+00	2.94500e+02
1831	2.96774e+02	1.83100e+03	2.81171e+00	2.95167e+02
1835	2.97448e+02	1.83500e+03	2.80863e+00	2.95833e+02
1839	2.98107e+02	1.83900e+03	2.80553e+00	2.96500e+02
1843	2.98778e+02	1.84300e+03	2.80244e+00	2.97167e+02
1847	2.99439e+02	1.84700e+03	2.79935e+00	2.97833e+02
1851	3.00110e+02	1.85100e+03	2.79626e+00	2.98500e+02
1855	3.00782e+02	1.85500e+03	2.79317e+00	2.99167e+02
1859	3.01435e+02	1.85900e+03	2.79003e+00	2.99833e+02
1863	3.02082e+02	1.86300e+03	2.78678e+00	3.00500e+02
1867	3.02768e+02	1.86700e+03	2.78351e+00	3.01167e+02
1871	3.03428e+02	1.87100e+03	2.78025e+00	3.01833e+02
1875	3.04092e+02	1.87500e+03	2.77696e+00	3.02500e+02
1879	3.04742e+02	1.87900e+03	2.77366e+00	3.03167e+02
1883	3.05404e+02	1.88300e+03	2.77033e+00	3.03833e+02
1887	3.06061e+02	1.88700e+03	2.76698e+00	3.04500e+02
1891	3.06710e+02	1.89100e+03	2.76360e+00	3.05167e+02
1895	3.07374e+02	1.89500e+03	2.76016e+00	3.05833e+02
1899	3.08011e+02	1.89900e+03	2.75675e+00	3.06500e+02
1903	3.08661e+02	1.90300e+03	2.75348e+00	3.07167e+02
1907	3.09309e+02	1.90700e+03	2.75021e+00	3.07833e+02
1911	3.09968e+02	1.91100e+03	2.74666e+00	3.08500e+02
1915	3.10629e+02	1.91500e+03	2.74311e+00	3.09167e+02
1919	3.11275e+02	1.91900e+03	2.73984e+00	3.09833e+02
1923	3.11935e+02	1.92300e+03	2.73652e+00	3.10500e+02
1927	3.12600e+02	1.92700e+03	2.73295e+00	3.11167e+02
1931	3.13266e+02	1.93100e+03	2.72924e+00	3.11833e+02
1935	3.13943e+02	1.93500e+03	2.72557e+00	3.12500e+02
1939	3.14602e+02	1.93900e+03	2.72197e+00	3.13167e+02
1943	3.15281e+02	1.94300e+03	2.71813e+00	3.13833e+02
1947	3.15947e+02	1.94700e+03	2.71403e+00	3.14500e+02
1951	3.16608e+02	1.95100e+03	2.70995e+00	3.15167e+02
1955	3.17271e+02	1.95500e+03	2.70583e+00	3.15833e+02
1959	3.17928e+02	1.95900e+03	2.70147e+00	3.16500e+02
1963	3.18615e+02	1.96300e+03	2.69690e+00	3.17167e+02
1967	3.19276e+02	1.96700e+03	2.69219e+00	3.17833e+02
1971	3.19941e+02	1.97100e+03	2.68736e+00	3.18500e+02
1975	3.20609e+02	1.97500e+03	2.68249e+00	3.19167e+02
1979	3.21272e+02	1.97900e+03	2.67741e+00	3.19833e+02
1983	3.21928e+02	1.98300e+03	2.67189e+00	3.20500e+02
1987	3.22598e+02	1.98700e+03	2.66599e+00	3.21167e+02
1991	3.23269e+02	1.99100e+03	2.66010e+00	3.21833e+02
1995	3.23936e+02	1.99500e+03	2.65416e+00	3.22500e+02
1999	3.24609e+02	1.99900e+03	2.64781e+00	3.23167e+02
2003	3.25263e+02	2.00300e+03	2.64112e+00	3.23833e+02
2007	3.25934e+02	2.00700e+03	2.63420e+00	3.24500e+02
2011	3.26605e+02	2.01100e+03	2.62698e+00	3.25167e+02
2015	3.27264e+02	2.01500e+03	2.61945e+00	3.25833e+02
2019	3.27926e+02	2.01900e+03	2.61164e+00	3.26500e+02
2023	3.28609e+02	2.02300e+03	2.60334e+00	3.27167e+02
2027	3.29266e+02	2.02700e+03	2.59459e+00	3.27833e+02
2031	3.29932e+02	2.03100e+03	2.58561e+00	3.28500e+02
2035	3.30607e+02	2.03500e+03	2.57627e+00	3.29167e+02
2039	3.31275e+02	2.03900e+03	2.56649e+00	3.29833e+02
2043	3.31950e+02	2.04300e+03	2.55648e+00	3.30500e+02
2047	3.32636e+02	2.04700e+03	2.54606e+00	3.31167e+02
2051	3.33303e+02	2.05100e+03	2.53467e+00	3.31833e+02
2055	3.33994e+02	2.05500e+03	2.52246e+00	3.32500e+02
2059	3.34662e+02	2.05900e+03	2.51011e+00	3.33167e+02
2063	3.35323e+02	2.06300e+03	2.49788e+00	3.33833e+02
2067	3.35981e+02	2.06700e+03	2.48519e+00	3.34500e+02
2071	3.36646e+02	2.07100e+03	2.47156e+00	3.35167e+02
2075	3.37298e+02	2.07500e+03	2.45709e+00	3.35833e+02
2079	3.37955e+02	2.07900e+03	2.44202e+00	3.36500e+02
2083	3.38631e+02	2.08300e+03	2.42655e+00	3.37167e+02
2087	3.39273e+02	2.08700e+03	2.41058e+00	3.37833e+02
2091	3.39938e+02	2.09100e+03	2.39400e+00	3.38500e+02
2095	3.40609e+02	2.09500e+03	2.37681e+00	3.39167e+02
2099	3.41262e+02	2.09900e+03	2.35901e+00	3.39833e+02
2103	3.41928e+02	2.10300e+03	2.34060e+00	3.40500e+02
2107	3.42589e+02	2.10700e+03	2.32156e+00	3.41167e+02
2111	3.43254e+02	2.11100e+03	2.30197e+00	3.41833e+02
2115	3.43919e+02	2.11500e+03	2.28175e+00	3.42500e+02
2119	3.44578e+02	2.11900e+03	2.26080e+00	3.43167e+02
2123	3.45249e+02	2.12300e+03	2.23920e+00	3.43833e+02
2127	3.45917e+02	2.12700e+03	2.21698e+00	3.44500e+02
2131	3.46595e+02	2.13100e+03	2.19424e+00	3.45167e+02
2135	3.47237e+02	2.13500e+03	2.17115e+00	3.45833e+02
2139	3.47904e+02	2.13900e+03	2.14764e+00	3.46500e+02
2143	3.48554e+02	2.14300e+03	2.12329e+00	3.47167e+02
2147	3.49217e+02	2.14700e+03	2.09793e+00	3.47833e+02
2151	3.49893e+02	2.15100e+03	2.07205e+00	3.48500e+02
2155	3.50543e+02	2.15500e+03	2.04589e+00	3.49167e+02
2159	3.51198e+02	2.15900e+03	2.01916e+00	3.49833e+02
2163	3.51848e+02	2.16300e+03	1.99179e+00	3.50500e+02
2167	3.52517e+02	2.16700e+03	1.96400e+00	3.51167e+02
2171	3.53187e+02	2.17100e+03	1.93576e+00	3.51833e+02
2175	3.53847e+02	2.17500e+03	1.90697e+00	3.52500e+02
2179	3.54524e+02	2.17900e+03	1.87773e+00	3.53167e+02
2183	3.55183e+02	2.18300e+03	1.84805e+00	3.53833e+02
2187	3.55840e+02	2.18700e+03	1.81792e+00	3.54500e+02
2191	3.56506e+02	2.19100e+03	1.78728e+00	3.55167e+02
2195	3.57176e+02	2.19500e+03	1.75611e+00	3.55833e+02
2199	3.57838e+02	2.19900e+03	1.72455e+00	3.56500e+02
2203	3.58505e+02	2.20300e+03	1.69261e+00	3.57167e+02
2207	3.59173e+02	2.20700e+03	1.66017e+00	3.57833e+02
2211	3.59845e+02	2.21100e+03	1.62751e+00	3.58500e+02
2215	3.60507e+02	2.21500e+03	1.59499e+00	3.59167e+02
2219	3.61185e+02	2.21900e+03	1.56251e+00	3.59833e+02
2223	3.61859e+02	2.22300e+03	1.52992e+00	3.60500e+02
2227	3.62530e+02	2.22700e+03	1.49695e+00	3.61167e+02
2231	3.63202e+02	2.23100e+03	1.46341e+00	3.61833e+02
2235	3.63906e+02	2.23500e+03	1.42977e+00	3.62500e+02
2239	3.64589e+02	2.23900e+03	1.39640e+00	3.63167e+02
2243	3.65284e+02	2.24300e+03	1.36288e+00	3.63833e+02
2247	3.65954e+02	2.24700e+03	1.32877e+00	3.64500e+02
2251	3.66628e+02	2.25100e+03	1.29417e+00	3.65167e+02
2255	3.67310e+02	2.25500e+03	1.25930e+00	3.65833e+02
2259	3.68010e+02	2.25900e+03	1.22384e+00	3.66500e+02
2263	3.68702e+02	2.26300e+03	1.18841e+00	3.67167e+02
2267	3.69376e+02	2.26700e+03	1.15390e+00	3.67833e+02
2271	3.70062e+02	2.27100e+03	1.11999e+00	3.68500e+02
2275	3.70754e+02	2.27500e+03	1.08591e+00	3.69167e+02
2279	3.71434e+02	2.27900e+03	1.05093e+00	3.69833e+02
2283	3.72106e+02	2.28300e+03	1.01578e+00	3.70500e+02
2287	3.72792e+02	2.28700e+03	9.81316e-01	3.71167e+02
2291	3.73482e+02	2.29100e+03	9.47373e-01	3.71833e+02
2295	3.74195e+02	2.29500e+03	9.13980e-01	3.72500e+02
2299	3.74889e+02	2.29900e+03	8.81199e-01	3.73167e+02
2303	3.75636e+02	2.30300e+03	8.48803e-01	3.73833e+02
2307	3.76460e+02	2.30700e+03	8.16675e-01	3.74500e+02
2311	3.77159e+02	2.31100e+03	7.85076e-01	3.75167e+02
2315	3.77842e+02	2.31500e+03	7.54109e-01	3.75833e+02
2319	3.78519e+02	2.31900e+03	7.23755e-01	3.76500e+02
2323	3.79171e+02	2.32300e+03	6.94093e-01	3.77167e+02
2327	3.79826e+02	2.32700e+03	6.65191e-01	3.77833e+02
2331	3.80483e+02	2.33100e+03	6.36943e-01	3.78500e+02
2335	3.81169e+02	2.33500e+03	6.09378e-01	3.79167e+02
2339	3.81822e+02	2.33900e+03	5.82546e-01	3.79833e+02
2343	3.82479e+02	2.34300e+03	5.56448e-01	3.80500e+02
2347	3.83157e+02	2.34700e+03	5.31215e-01	3.81167e+02
2351	3.83827e+02	2.35100e+03	5.06765e-01	3.81833e+02
2355	3.84488e+02	2.35500e+03	4.83139e-01	3.82500e+02
2359	3.85154e+02	2.35900e+03	4.60280e-01	3.83167e+02
2363	3.85852e+02	2.36300e+03	4.37958e-01	3.83833e+02
2367	3.86534e+02	2.36700e+03	4.16237e-01	3.84500e+02
2371	3.87209e+02	2.37100e+03	3.95528e-01	3.85167e+02
2375	3.87867e+02	2.37500e+03	3.76043e-01	3.85833e+02
2379	3.88538e+02	2.37900e+03	3.57374e-01	3.86500e+02
2383	3.89213e+02	2.38300e+03	3.39147e-01	3.87167e+02
2387	3.89878e+02	2.38700e+03	3.21629e-01	3.87833e+02
2391	3.90558e+02	2.39100e+03	3.04965e-01	3.88500e+02
2395	3.91234e+02	2.39500e+03	2.88943e-01	3.89167e+02
2399	3.91905e+02	2.39900e+03	2.73501e-01	3.89833e+02
2403	3.92607e+02	2.40300e+03	2.58701e-01	3.90500e+02
2407	3.93258e+02	2.40700e+03	2.44634e-01	3.91167e+02
2411	3.93952e+02	2.41100e+03	2.31279e-01	3.91833e+02
2415	3.94624e+02	2.41500e+03	2.18557e-01	3.92500e+02
2419	3.95279e+02	2.41900e+03	2.06409e-01	3.93167e+02
2423	3.95918e+02	2.42300e+03	1.94840e-01	3.93833e+02
2427	3.96594e+02	2.42700e+03	1.83862e-01	3.94500e+02
2431	3.97266e+02	2.43100e+03	1.73409e-01	3.95167e+02
2435	3.97936e+02	2.43500e+03	1.63420e-01	3.95833e+02
2439	3.98601e+02	2.43900e+03	1.53957e-01	3.96500e+02
2443	3.99274e+02	2.44300e+03	1.45100e-01	3.97167e+02
2447	3.99948e+02	2.44700e+03	1.36742e-01	3.97833e+02
2451	4.00621e+02	2.45100e+03	1.28783e-01	3.98500e+02
2455	4.01273e+02	2.45500e+03	1.21376e-01	3.99167e+02
2459	4.01942e+02	2.45900e+03	1.14527e-01	3.99833e+02
2463	4.02606e+02	2.46300e+03	1.08013e-01	4.00500e+02
2467	4.03274e+02	2.46700e+03	1.01726e-01	4.01167e+02
2471	4.03928e+02	2.47100e+03	9.58398e-02	4.01833e+02
2475	4.04587e+02	2.47500e+03	9.05830e-02	4.02500e+02
2479	4.05267e+02	2.47900e+03	8.57829e-02	4.03167e+02
2483	4.05939e+02	2.48300e+03	8.11998e-02	4.03833e+02
2487	4.06596e+02	2.48700e+03	7.68597e-02	4.04500e+02
2491	4.07237e+02	2.49100e+03	7.28460e-02	4.05167e+02
2495	4.07898e+02	2.49500e+03	6.91750e-02	4.05833e+02
2499	4.08547e+02	2.49900e+03	6.57909e-02	4.06500e+02
2503	4.09224e+02	2.50300e+03	6.26078e-02	4.07167e+02
2507	4.09882e+02	2.50700e+03	5.96361e-02	4.07833e+02
2511	4.10537e+02	2.51100e+03	5.69025e-02	4.08500e+02
2515	4.11205e+02	2.51500e+03	5.43969e-02	4.09167e+02
2519	4.11874e+02	2.51900e+03	5.20927e-02	4.09833e+02
2523	4.12534e+02	2.52300e+03	4.99094e-02	4.10500e+02
2527	4.13193e+02	2.52700e+03	4.78865e-02	4.11167e+02
2531	4.13865e+02	2.53100e+03	4.61010e-02	4.11833e+02
2535	4.14540e+02	2.53500e+03	4.45165e-02	4.12500e+02
2539	4.15210e+02	2.53900e+03	4.30783e-02	4.13167e+02
2543	4.15864e+02	2.54300e+03	4.17211e-02	4.13833e+02
2547	4.16536e+02	2.54700e+03	4.03765e-02	4.14500e+02
2551	4.17206e+02	2.55100e+03	3.91381e-02	4.15167e+02
2555	4.17849e+02	2.55500e+03	3.80559e-02	4.15833e+02
2559	4.18513e+02	2.55900e+03	3.70131e-02	4.16500e+02
2563	4.19176e+02	2.56300e+03	3.59994e-02	4.17167e+02
2567	4.19832e+02	2.56700e+03	3.50360e-02	4.17833e+02
2571	4.20482e+02	2.57100e+03	3.42013e-02	4.18500e+02
2575	4.21128e+02	2.57500e+03	3.35038e-02	4.19167e+02
2579	4.21797e+02	2.57900e+03	3.28704e-02	4.19833e+02
2583	4.22444e+02	2.58300e+03	3.23387e-02	4.20500e+02
2587	4.23105e+02	2.58700e+03	3.17845e-02	4.21167e+02
2591	4.23767e+02	2.59100e+03	3.12050e-02	4.21833e+02
2595	4.24414e+02	2.59500e+03	3.07070e-02	4.22500e+02
2599	4.25074e+02	2.59900e+03	3.02317e-02	4.23167e+02
2603	4.25726e+02	2.60300e+03	2.97642e-02	4.23833e+02
2607	4.26393e+02	2.60700e+03	2.93151e-02	4.24500e+02
2611	4.27048e+02	2.61100e+03	2.89050e-02	4.25167e+02
2615	4.27705e+02	2.61500e+03	2.85873e-02	4.25833e+02
2619	4.28357e+02	2.61900e+03	2.83537e-02	4.26500e+02
2623	4.29010e+02	2.62300e+03	2.81854e-02	4.27167e+02
2627	4.29664e+02	2.62700e+03	2.80231e-02	4.27833e+02
2631	4.30327e+02	2.63100e+03	2.78159e-02	4.28500e+02
2635	4.30988e+02	2.63500e+03	2.76748e-02	4.29167e+02
2639	4.31639e+02	2.63900e+03	2.75596e-02	4.29833e+02
2643	4.32282e+02	2.64300e+03	2.73167e-02	4.30500e+02
2647	4.32933e+02	2.64700e+03	2.70263e-02	4.31167e+02
2651	4.33577e+02	2.65100e+03	2.68479e-02	4.31833e+02
2655	4.34222e+02	2.65500e+03	2.67307e-02	4.32500e+02
2659	4.34863e+02	2.65900e+03	2.66073e-02	4.33167e+02
2663	4.35520e+02	2.66300e+03	2.64888e-02	4.33833e+02
2667	4.36154e+02	2.66700e+03	2.63865e-02	4.34500e+02
2671	4.36810e+02	2.67100e+03	2.62949e-02	4.35167e+02
2675	4.37468e+02	2.67500e+03	2.62138e-02	4.35833e+02
2679	4.38106e+02	2.67900e+03	2.61657e-02	4.36500e+02
2683	4.38737e+02	2.68300e+03	2.60842e-02	4.37167e+02
2687	4.39350e+02	2.68700e+03	2.59872e-02	4.37833e+02
2691	4.39919e+02	2.69100e+03	2.59421e-02	4.38500e+02
2695	4.40503e+02	2.69500e+03	2.58667e-02	4.39167e+02
2699	4.41107e+02	2.69900e+03	2.57655e-02	4.39833e+02
2703	4.41731e+02	2.70300e+03	2.57811e-02	4.40500e+02
2707	4.42360e+02	2.70700e+03	2.58359e-02	4.41167e+02
2711	4.42997e+02	2.71100e+03	2.57941e-02	4.41833e+02
2715	4.43640e+02	2.71500e+03	2.57136e-02	4.42500e+02
2719	4.44293e+02	2.71900e+03	2.57005e-02	4.43167e+02
2723	4.44945e+02	2.72300e+03	2.57652e-02	4.43833e+02
2727	4.45590e+02	2.72700e+03	2.57752e-02	4.44500e+02
2731	4.46248e+02	2.73100e+03	2.57174e-02	4.45167e+02
2735	4.46914e+02	2.73500e+03	2.56978e-02	4.45833e+02
2739	4.47556e+02	2.73900e+03	2.56653e-02	4.46500e+02
2743	4.48211e+02	2.74300e+03	2.55938e-02	4.47167e+02
2747	4.48866e+02	2.74700e+03	2.55720e-02	4.47833e+02
2751	4.49513e+02	2.75100e+03	2.55983e-02	4.48500e+02
2755	4.50172e+02	2.75500e+03	2.56328e-02	4.49167e+02
2759	4.50818e+02	2.75900e+03	2.56235e-02	4.49833e+02
2763	4.51481e+02	2.76300e+03	2.55912e-02	4.50500e+02
2767	4.52126e+02	2.76700e+03	2.55599e-02	4.51167e+02
2771	4.52778e+02	2.77100e+03	2.55048e-02	4.51833e+02
2775	4.53418e+02	2.77500e+03	2.54298e-02	4.52500e+02
2779	4.54070e+02	2.77900e+03	2.52834e-02	4.53167e+02
2783	4.54716e+02	2.78300e+03	2.51857e-02	4.53833e+02
2787	4.55369e+02	2.78700e+03	2.52451e-02	4.54500e+02
2791	4.56030e+02	2.79100e+03	2.53171e-02	4.55167e+02
2795	4.56691e+02	2.79500e+03	2.53419e-02	4.55833e+02
2799	4.57343e+02	2.79900e+03	2.53199e-02	4.56500e+02
2803	4.57989e+02	2.80300e+03	2.52073e-02	4.57167e+02
2807	4.58650e+02	2.80700e+03	2.50897e-02	4.57833e+02
2811	4.59305e+02	2.81100e+03	2.50622e-02	4.58500e+02
2815	4.59958e+02	2.81500e+03	2.50618e-02	4.59167e+02
2819	4.60613e+02	2.81900e+03	2.49930e-02	4.59833e+02
2823	4.61271e+02	2.82300e+03	2.49391e-02	4.60500e+02
2827	4.61931e+02	2.82700e+03	2.49782e-02	4.61167e+02
2831	4.62585e+02	2.83100e+03	2.50646e-02	4.61833e+02
2835	4.63238e+02	2.83500e+03	2.51237e-02	4.62500e+02
2839	4.63899e+02	2.83900e+03	2.50778e-02	4.63167e+02
2843	4.64550e+02	2.84300e+03	2.49893e-02	4.63833e+02
2847	4.65207e+02	2.84700e+03	2.49982e-02	4.64500e+02
2851	4.65864e+02	2.85100e+03	2.50741e-02	4.65167e+02
2855	4.66533e+02	2.85500e+03	2.51262e-02	4.65833e+02
2859	4.67191e+02	2.85900e+03	2.51201e-02	4.66500e+02
2863	4.67831e+02	2.86300e+03	2.50625e-02	4.67167e+02
2867	4.68496e+02	2.86700e+03	2.50093e-02	4.67833e+02
2871	4.69148e+02	2.87100e+03	2.49810e-02	4.68500e+02
2875	4.69814e+02	2.87500e+03	2.49911e-02	4.69167e+02
2879	4.70456e+02	2.87900e+03	2.50607e-02	4.69833e+02
2883	4.71112e+02	2.88300e+03	2.50870e-02	4.70500e+02
2887	4.71769e+02	2.88700e+03	2.49334e-02	4.71167e+02
2891	4.72436e+02	2.89100e+03	2.47816e-02	4.71833e+02
2895	4.73090e+02	2.89500e+03	2.47648e-02	4.72500e+02
2899	4.73755e+02	2.89900e+03	2.47473e-02	4.73167e+02
2903	4.74403e+02	2.90300e+03	2.47271e-02	4.73833e+02
2907	4.75064e+02	2.90700e+03	2.47557e-02	4.74500e+02
2911	4.75726e+02	2.91100e+03	2.48350e-02	4.75167e+02
2915	4.76376e+02	2.91500e+03	2.49376e-02	4.75833e+02
2919	4.77038e+02	2.91900e+03	2.49292e-02	4.76500e+02
2923	4.77690e+02	2.92300e+03	2.47990e-02	4.77167e+02
2927	4.78336e+02	2.92700e+03	2.47509e-02	4.77833e+02
2931	4.79006e+02	2.93100e+03	2.48059e-02	4.78500e+02
2935	4.79658e+02	2.93500e+03	2.47809e-02	4.79167e+02
2939	4.80309e+02	2.93900e+03	2.47114e-02	4.79833e+02
2943	4.80979e+02	2.94300e+03	2.47841e-02	4.80500e+02
2947	4.81625e+02	2.94700e+03	2.48533e-02	4.81167e+02
2951	4.82279e+02	2.95100e+03	2.47781e-02	4.81833e+02
2955	4.82944e+02	2.95500e+03	2.47898e-02	4.82500e+02
2959	4.83602e+02	2.95900e+03	2.48299e-02	4.83167e+02
2963	4.84254e+02	2.96300e+03	2.47459e-02	4.83833e+02
2967	4.84912e+02	2.96700e+03	2.46652e-02	4.84500e+02
2971	4.85572e+02	2.97100e+03	2.46365e-02	4.85167e+02
2975	4.86233e+02	2.97500e+03	2.46188e-02	4.85833e+02
2979	4.86887e+02	2.97900e+03	2.44896e-02	4.86500e+02
2983	4.87550e+02	2.98300e+03	2.43254e-02	4.87167e+02
2987	4.88201e+02	2.98700e+03	2.43399e-02	4.87833e+02
2991	4.88861e+02	2.99100e+03	2.44602e-02	4.88500e+02
2995	4.89531e+02	2.99500e+03	2.45625e-02	4.89167e+02
2999	4.90199e+02	2.99900e+03	2.46312e-02	4.89833e+02
3003	4.90846e+02	3.00300e+03	2.46960e-02	4.90500e+02
3007	4.91511e+02	3.00700e+03	2.47442e-02	4.91167e+02
3011	4.92176e+02	3.01100e+03	2.47313e-02	4.91833e+02
3015	4.92822e+02	3.01500e+03	2.47556e-02	4.92500e+02
3019	4.93484e+02	3.01900e+03	2.48222e-02	4.93167e+02
3023	4.94130e+02	3.02300e+03	2.48060e-02	4.93833e+02
3027	4.94794e+02	3.02700e+03	2.47613e-02	4.94500e+02
3031	4.95463e+02	3.03100e+03	2.47997e-02	4.95167e+02
3035	4.96123e+02	3.03500e+03	2.47778e-02	4.95833e+02
3039	4.96775e+02	3.03900e+03	2.46672e-02	4.96500e+02
3043	4.97446e+02	3.04300e+03	2.46147e-02	4.97167e+02
3047	4.98110e+02	3.04700e+03	2.45545e-02	4.97833e+02
3051	4.98763e+02	3.05100e+03	2.45158e-02	4.98500e+02
3055	4.99426e+02	3.05500e+03	2.45184e-02	4.99167e+02
3059	5.00083e+02	3.05900e+03	2.45522e-02	4.99833e+02
3063	5.00739e+02	3.06300e+03	2.45857e-02	5.00500e+02
3067	5.01406e+02	3.06700e+03	2.45688e-02	5.01167e+02
3071	5.02068e+02	3.07100e+03	2.45681e-02	5.01833e+02
3075	5.02717e+02	3.07500e+03	2.45471e-02	5.02500e+02
3079	5.03394e+02	3.07900e+03	2.45118e-02	5.03167e+02
3083	5.04042e+02	3.08300e+03	2.45125e-02	5.03833e+02
3087	5.04713e+02	3.08700e+03	2.45294e-02	5.04500e+02
3091	5.05380e+02	3.09100e+03	2.44692e-02	5.05167e+02
3095	5.06034e+02	3.09500e+03	2.43632e-02	5.05833e+02
3099	5.06698e+02	3.09900e+03	2.43332e-02	5.06500e+02
3103	5.07356e+02	3.10300e+03	2.43625e-02	5.07167e+02
3107	5.08030e+02	3.10700e+03	2.44048e-02	5.07833e+02
3111	5.08691e+02	3.11100e+03	2.44077e-02	5.08500e+02
3115	5.09348e+02	3.11500e+03	2.43584e-02	5.09167e+02
3119	5.10005e+02	3.11900e+03	2.42655e-02	5.09833e+02
3123	5.10668e+02	3.12300e+03	2.41917e-02	5.10500e+02
3127	5.11327e+02	3.12700e+03	2.42369e-02	5.11167e+02
3131	5.11990e+02	3.13100e+03	2.43352e-02	5.11833e+02
3135	5.12647e+02	3.13500e+03	2.43972e-02	5.12500e+02
3139	5.13329e+02	3.13900e+03	2.44079e-02	5.13167e+02
3143	5.13982e+02	3.14300e+03	2.43991e-02	5.13833e+02
3147	5.14649e+02	3.14700e+03	2.44757e-02	5.14500e+02
3151	5.15321e+02	3.15100e+03	2.46449e-02	5.15167e+02
3155	5.15991e+02	3.15500e+03	2.47451e-02	5.15833e+02
3159	5.16648e+02	3.15900e+03	2.47036e-02	5.16500e+02
3163	5.17310e+02	3.16300e+03	2.45698e-02	5.17167e+02
3167	5.17965e+02	3.16700e+03	2.44436e-02	5.17833e+02
3171	5.18620e+02	3.17100e+03	2.44401e-02	5.18500e+02
3175	5.19285e+02	3.17500e+03	2.44902e-02	5.19167e+02
3179	5.19943e+02	3.17900e+03	2.44078e-02	5.19833e+02
3183	5.20598e+02	3.18300e+03	2.42531e-02	5.20500e+02
3187	5.21264e+02	3.18700e+03	2.42297e-02	5.21167e+02
3191	5.21932e+02	3.19100e+03	2.42410e-02	5.21833e+02
3195	5.22604e+02	3.19500e+03	2.42177e-02	5.22500e+02
3199	5.23259e+02	3.19900e+03	2.42837e-02	5.23167e+02
3203	5.23918e+02	3.20300e+03	2.43865e-02	5.23833e+02
3207	5.24582e+02	3.20700e+03	2.44701e-02	5.24500e+02
3211	5.25250e+02	3.21100e+03	2.44941e-02	5.25167e+02
3215	5.25911e+02	3.21500e+03	2.43897e-02	5.25833e+02
3219	5.26579e+02	3.21900e+03	2.42572e-02	5.26500e+02
3223	5.27241e+02	3.22300e+03	2.42159e-02	5.27167e+02
3227	5.27904e+02	3.22700e+03	2.42409e-02	5.27833e+02
3231	5.28572e+02	3.23100e+03	2.42427e-02	5.28500e+02
3235	5.29235e+02	3.23500e+03	2.42231e-02	5.29167e+02
3239	5.29905e+02	3.23900e+03	2.42148e-02	5.29833e+02
3243	5.30563e+02	3.24300e+03	2.41635e-02	5.30500e+02
3247	5.31236e+02	3.24700e+03	2.41575e-02	5.31167e+02
3251	5.31915e+02	3.25100e+03	2.42458e-02	5.31833e+02
3255	5.32580e+02	3.25500e+03	2.43140e-02	5.32500e+02
3259	5.33253e+02	3.25900e+03	2.43364e-02	5.33167e+02
3263	5.33921e+02	3.26300e+03	2.43167e-02	5.33833e+02
3267	5.34587e+02	3.26700e+03	2.42920e-02	5.34500e+02
3271	5.35247e+02	3.27100e+03	2.43189e-02	5.35167e+02
3275	5.35927e+02	3.27500e+03	2.43318e-02	5.35833e+02
3279	5.36584e+02	3.27900e+03	2.42592e-02	5.36500e+02
3283	5.37268e+02	3.28300e+03	2.41430e-02	5.37167e+02
3287	5.37935e+02	3.28700e+03	2.40899e-02	5.37833e+02
3291	5.38604e+02	3.29100e+03	2.41191e-02	5.38500e+02
3295	5.39276e+02	3.29500e+03	2.41429e-02	5.39167e+02
3299	5.39954e+02	3.29900e+03	2.41676e-02	5.39833e+02
3303	5.40628e+02	3.30300e+03	2.42090e-02	5.40500e+02
3307	5.41289e+02	3.30700e+03	2.42143e-02	5.41167e+02
3311	5.41959e+02	3.31100e+03	2.41397e-02	5.41833e+02
3315	5.42629e+02	3.31500e+03	2.39990e-02	5.42500e+02
3319	5.43300e+02	3.31900e+03	2.38451e-02	5.43167e+02
3323	5.43972e+02	3.32300e+03	2.38525e-02	5.43833e+02
3327	5.44628e+02	3.32700e+03	2.41367e-02	5.44500e+02
3331	5.45305e+02	3.33100e+03	2.44291e-02	5.45167e+02
3335	5.45968e+02	3.33500e+03	2.44331e-02	5.45833e+02
3339	5.46642e+02	3.33900e+03	2.42614e-02	5.46500e+02
3343	5.47304e+02	3.34300e+03	2.41972e-02	5.47167e+02
3347	5.47971e+02	3.34700e+03	2.42394e-02	5.47833e+02
3351	5.48637e+02	3.35100e+03	2.42450e-02	5.48500e+02
3355	5.49296e+02	3.35500e+03	2.42151e-02	5.49167e+02
3359	5.49961e+02	3.35900e+03	2.42071e-02	5.49833e+02
3363	5.50622e+02	3.36300e+03	2.42178e-02	5.50500e+02
3367	5.51277e+02	3.36700e+03	2.42103e-02	5.51167e+02
3371	5.51932e+02	3.37100e+03	2.41433e-02	5.51833e+02
3375	5.52594e+02	3.37500e+03	2.40774e-02	5.52500e+02
3379	5.53250e+02	3.37900e+03	2.41500e-02	5.53167e+02
3383	5.53906e+02	3.38300e+03	2.42980e-02	5.53833e+02
3387	5.54555e+02	3.38700e+03	2.43439e-02	5.54500e+02
3391	5.55217e+02	3.39100e+03	2.42785e-02	5.55167e+02
3395	5.55883e+02	3.39500e+03	2.41472e-02	5.55833e+02
3399	5.56535e+02	3.39900e+03	2.39582e-02	5.56500e+02
3403	5.57192e+02	3.40300e+03	2.38257e-02	5.57167e+02
3407	5.57858e+02	3.40700e+03	2.38540e-02	5.57833e+02
3411	5.58512e+02	3.41100e+03	2.39618e-02	5.58500e+02
3415	5.59188e+02	3.41500e+03	2.40517e-02	5.59167e+02
3419	5.59842e+02	3.41900e+03	2.41297e-02	5.59833e+02
3423	5.60506e+02	3.42300e+03	2.41489e-02	5.60500e+02
3427	5.61174e+02	3.42700e+03	2.40639e-02	5.61167e+02
3431	5.61839e+02	3.43100e+03	2.39320e-02	5.61833e+02
3435	5.62507e+02	3.43500e+03	2.38522e-02	5.62500e+02
3439	5.63170e+02	3.43900e+03	2.38625e-02	5.63167e+02
3443	5.63840e+02	3.44300e+03	2.39006e-02	5.63833e+02
3447	5.64501e+02	3.44700e+03	2.39791e-02	5.64500e+02
3451	5.65163e+02	3.45100e+03	2.40566e-02	5.65167e+02
3455	5.65821e+02	3.45500e+03	2.40166e-02	5.65833e+02
3459	5.66490e+02	3.45900e+03	2.40366e-02	5.66500e+02
3463	5.67154e+02	3.46300e+03	2.41084e-02	5.67167e+02
3467	5.67828e+02	3.46700e+03	2.40565e-02	5.67833e+02
3471	5.68487e+02	3.47100e+03	2.39779e-02	5.68500e+02
3475	5.69149e+02	3.47500e+03	2.39895e-02	5.69167e+02
3479	5.69810e+02	3.47900e+03	2.40156e-02	5.69833e+02
3483	5.70474e+02	3.48300e+03	2.39355e-02	5.70500e+02
3487	5.71138e+02	3.48700e+03	2.38874e-02	5.71167e+02
3491	5.71801e+02	3.49100e+03	2.39422e-02	5.71833e+02
3495	5.72458e+02	3.49500e+03	2.39000e-02	5.72500e+02
3499	5.73117e+02	3.49900e+03	2.38223e-02	5.73167e+02
3503	5.73779e+02	3.50300e+03	2.39078e-02	5.73833e+02
3507	5.74440e+02	3.50700e+03	2.39660e-02	5.74500e+02
3511	5.75086e+02	3.51100e+03	2.38041e-02	5.75167e+02
3515	5.75747e+02	3.51500e+03	2.36291e-02	5.75833e+02
3519	5.76413e+02	3.51900e+03	2.36127e-02	5.76500e+02
3523	5.77074e+02	3.52300e+03	2.36864e-02	5.77167e+02
3527	5.77729e+02	3.52700e+03	2.37590e-02	5.77833e+02
3531	5.78405e+02	3.53100e+03	2.38376e-02	5.78500e+02
3535	5.79065e+02	3.53500e+03	2.39172e-02	5.79167e+02
3539	5.79728e+02	3.53900e+03	2.39113e-02	5.79833e+02
3543	5.80383e+02	3.54300e+03	2.38544e-02	5.80500e+02
3547	5.81047e+02	3.54700e+03	2.38209e-02	5.81167e+02
3551	5.81702e+02	3.55100e+03	2.38393e-02	5.81833e+02
3555	5.82357e+02	3.55500e+03	2.38379e-02	5.82500e+02
3559	5.83019e+02	3.55900e+03	2.38040e-02	5.83167e+02
3563	5.83679e+02	3.56300e+03	2.37992e-02	5.83833e+02
3567	5.84351e+02	3.56700e+03	2.38144e-02	5.84500e+02
3571	5.85001e+02	3.57100e+03	2.38069e-02	5.85167e+02
3575	5.85666e+02	3.57500e+03	2.37501e-02	5.85833e+02
3579	5.86327e+02	3.57900e+03	2.37242e-02	5.86500e+02
3583	5.86987e+02	3.58300e+03	2.37713e-02	5.87167e+02
3587	5.87656e+02	3.58700e+03	2.38720e-02	5.87833e+02
3591	5.88320e+02	3.59100e+03	2.39281e-02	5.88500e+02
3595	5.88972e+02	3.59500e+03	2.38010e-02	5.89167e+02
3599	5.89634e+02	3.59900e+03	2.36116e-02	5.89833e+02
3603	5.90301e+02	3.60300e+03	2.35208e-02	5.90500e+02
3607	5.90951e+02	3.60700e+03	2.35209e-02	5.91167e+02
3611	5.91609e+02	3.61100e+03	2.36048e-02	5.91833e+02
3615	5.92272e+02	3.61500e+03	2.36971e-02	5.92500e+02
3619	5.92922e+02	3.61900e+03	2.37140e-02	5.93167e+02
3623	5.93581e+02	3.62300e+03	2.37027e-02	5.93833e+02
3627	5.94247e+02	3.62700e+03	2.37112e-02	5.94500e+02
3631	5.94903e+02	3.63100e+03	2.37292e-02	5.95167e+02
3635	5.95549e+02	3.63500e+03	2.37633e-02	5.95833e+02
3639	5.96213e+02	3.63900e+03	2.37704e-02	5.96500e+02
3643	5.96875e+02	3.64300e+03	2.37258e-02	5.97167e+02
3647	5.97529e+02	3.64700e+03	2.36556e-02	5.97833e+02
3651	5.98189e+02	3.65100e+03	2.35922e-02	5.98500e+02
3655	5.98853e+02	3.65500e+03	2.36729e-02	5.99167e+02
3659	5.99511e+02	3.65900e+03	2.38488e-02	5.99833e+02
3663	6.00165e+02	3.66300e+03	2.38707e-02	6.00500e+02
3667	6.00834e+02	3.66700e+03	2.37335e-02	6.01167e+02
3671	6.01467e+02	3.67100e+03	2.36513e-02	6.01833e+02
3675	6.02126e+02	3.67500e+03	2.36746e-02	6.02500e+02
3679	6.02787e+02	3.67900e+03	2.36949e-02	6.03167e+02
3683	6.03437e+02	3.68300e+03	2.36515e-02	6.03833e+02
3687	6.04106e+02	3.68700e+03	2.35716e-02	6.04500e+02
3691	6.04753e+02	3.69100e+03	2.35327e-02	6.05167e+02
3695	6.05413e+02	3.69500e+03	2.35049e-02	6.05833e+02
3699	6.06064e+02	3.69900e+03	2.34355e-02	6.06500e+02
3703	6.06723e+02	3.70300e+03	2.34296e-02	6.07167e+02
3707	6.07384e+02	3.70700e+03	2.35163e-02	6.07833e+02
3711	6.08048e+02	3.71100e+03	2.35588e-02	6.08500e+02
3715	6.08707e+02	3.71500e+03	2.35614e-02	6.09167e+02
3719	6.09370e+02	3.71900e+03	2.36289e-02	6.09833e+02
3723	6.10019e+02	3.72300e+03	2.36941e-02	6.10500e+02
3727	6.10682e+02	3.72700e+03	2.36710e-02	6.11167e+02
3731	6.11338e+02	3.73100e+03	2.36445e-02	6.11833e+02
3735	6.11994e+02	3.73500e+03	2.36128e-02	6.12500e+02
3739	6.12656e+02	3.73900e+03	2.35377e-02	6.13167e+02
3743	6.13311e+02	3.74300e+03	2.34880e-02	6.13833e+02
3747	6.13971e+02	3.74700e+03	2.34234e-02	6.14500e+02
3751	6.14622e+02	3.75100e+03	2.33127e-02	6.15167e+02
3755	6.15282e+02	3.75500e+03	2.32384e-02	6.15833e+02
3759	6.15935e+02	3.75900e+03	2.32142e-02	6.16500e+02
3763	6.16602e+02	3.76300e+03	2.32113e-02	6.17167e+02
3767	6.17264e+02	3.76700e+03	2.32566e-02	6.17833e+02
3771	6.17916e+02	3.77100e+03	2.33374e-02	6.18500e+02
3775	6.18583e+02	3.77500e+03	2.33979e-02	6.19167e+02
3779	6.19256e+02	3.77900e+03	2.33961e-02	6.19833e+02
3783	6.19912e+02	3.78300e+03	2.33684e-02	6.20500e+02
3787	6.20585e+02	3.78700e+03	2.34305e-02	6.21167e+02
3791	6.21259e+02	3.79100e+03	2.34964e-02	6.21833e+02
3795	6.21918e+02	3.79500e+03	2.34584e-02	6.22500e+02
3799	6.22585e+02	3.79900e+03	2.34074e-02	6.23167e+02
3803	6.23263e+02	3.80300e+03	2.33716e-02	6.23833e+02
3807	6.23915e+02	3.80700e+03	2.33478e-02	6.24500e+02
3811	6.24576e+02	3.81100e+03	2.33754e-02	6.25167e+02
3815	6.25240e+02	3.81500e+03	2.34131e-02	6.25833e+02
3819	6.25900e+02	3.81900e+03	2.34142e-02	6.26500e+02
3823	6.26569e+02	3.82300e+03	2.33428e-02	6.27167e+02
3827	6.27245e+02	3.82700e+03	2.32593e-02	6.27833e+02
3831	6.27916e+02	3.83100e+03	2.32736e-02	6.28500e+02
3835	6.28583e+02	3.83500e+03	2.33473e-02	6.29167e+02
3839	6.29257e+02	3.83900e+03	2.33568e-02	6.29833e+02
3843	6.29913e+02	3.84300e+03	2.33368e-02	6.30500e+02
3847	6.30589e+02	3.84700e+03	2.33829e-02	6.31167e+02
3851	6.31249e+02	3.85100e+03	2.34035e-02	6.31833e+02
3855	6.31917e+02	3.85500e+03	2.33704e-02	6.32500e+02
3859	6.32588e+02	3.85900e+03	2.33692e-02	6.33167e+02
3863	6.33253e+02	3.86300e+03	2.33485e-02	6.33833e+02
3867	6.33927e+02	3.86700e+03	2.32504e-02	6.34500e+02
3871	6.34599e+02	3.87100e+03	2.31662e-02	6.35167e+02
3875	6.35259e+02	3.87500e+03	2.31563e-02	6.35833e+02
3879	6.35923e+02	3.87900e+03	2.32108e-02	6.36500e+02
3883	6.36602e+02	3.88300e+03	2.32542e-02	6.37167e+02
3887	6.37263e+02	3.88700e+03	2.32912e-02	6.37833e+02
3891	6.37929e+02	3.89100e+03	2.33167e-02	6.38500e+02
3895	6.38592e+02	3.89500e+03	2.33027e-02	6.39167e+02
3899	6.39258e+02	3.89900e+03	2.33152e-02	6.39833e+02
3903	6.39923e+02	3.90300e+03	2.33117e-02	6.40500e+02
3907	6.40592e+02	3.90700e+03	2.32626e-02	6.41167e+02
3911	6.41262e+02	3.91100e+03	2.32654e-02	6.41833e+02
3915	6.41932e+02	3.91500e+03	2.32562e-02	6.42500e+02
3919	6.42601e+02	3.91900e+03	2.31664e-02	6.43167e+02
3923	6.43265e+02	3.92300e+03	2.31088e-02	6.43833e+02
3927	6.43942e+02	3.92700e+03	2.30882e-02	6.44500e+02
3931	6.44609e+02	3.93100e+03	2.30684e-02	6.45167e+02
3935	6.45280e+02	3.93500e+03	2.30832e-02	6.45833e+02
3939	6.45946e+02	3.93900e+03	2.31568e-02	6.46500e+02
3943	6.46618e+02	3.94300e+03	2.32541e-02	6.47167e+02
3947	6.47282e+02	3.94700e+03	2.33163e-02	6.47833e+02
3951	6.47965e+02	3.95100e+03	2.33410e-02	6.48500e+02
3955	6.48621e+02	3.95500e+03	2.33484e-02	6.49167e+02
3959	6.49300e+02	3.95900e+03	2.33032e-02	6.49833e+02
3963	6.49987e+02	3.96300e+03	2.32406e-02	6.50500e+02
3967	6.50648e+02	3.96700e+03	2.31939e-02	6.51167e+02
3971	6.51319e+02	3.97100e+03	2.31163e-02	6.51833e+02
3975	6.51997e+02	3.97500e+03	2.30681e-02	6.52500e+02
3979	6.52673e+02	3.97900e+03	2.30874e-02	6.53167e+02
3983	6.53343e+02	3.98300e+03	2.30851e-02	6.53833e+02
3987	6.54003e+02	3.98700e+03	2.30439e-02	6.54500e+02
3991	6.54667e+02	3.99100e+03	2.30893e-02	6.55167e+02
3995	6.55338e+02	3.99500e+03	2.31775e-02	6.55833e+02
3999	6.55995e+02	3.99900e+03	2.31673e-02	6.56500e+02
4003	6.56647e+02	4.00300e+03	2.31206e-02	6.57167e+02
4007	6.57333e+02	4.00700e+03	2.31448e-02	6.57833e+02
4011	6.57987e+02	4.01100e+03	2.31701e-02	6.58500e+02
4015	6.58664e+02	4.01500e+03	2.31234e-02	6.59167e+02
4019	6.59320e+02	4.01900e+03	2.30665e-02	6.59833e+02
4023	6.59984e+02	4.02300e+03	2.30557e-02	6.60500e+02
4027	6.60649e+02	4.02700e+03	2.30611e-02	6.61167e+02
4031	6.61311e+02	4.03100e+03	2.30131e-02	6.61833e+02
4035	6.61979e+02	4.03500e+03	2.29490e-02	6.62500e+02
4039	6.62643e+02	4.03900e+03	2.29193e-02	6.63167e+02
4043	6.63298e+02	4.04300e+03	2.28927e-02	6.63833e+02
4047	6.63957e+02	4.04700e+03	2.28363e-02	6.64500e+02
4051	6.64626e+02	4.05100e+03	2.28302e-02	6.65167e+02
4055	6.65290e+02	4.05500e+03	2.28912e-02	6.65833e+02
4059	6.65946e+02	4.05900e+03	2.29461e-02	6.66500e+02
4063	6.66616e+02	4.06300e+03	2.30228e-02	6.67167e+02
4067	6.67285e+02	4.06700e+03	2.30788e-02	6.67833e+02
4071	6.67943e+02	4.07100e+03	2.30078e-02	6.68500e+02
4075	6.68613e+02	4.07500e+03	2.28898e-02	6.69167e+02
4079	6.69277e+02	4.07900e+03	2.28723e-02	6.69833e+02
4083	6.69943e+02	4.08300e+03	2.29143e-02	6.70500e+02
4087	6.70606e+02	4.08700e+03	2.29516e-02	6.71167e+02
4091	6.71262e+02	4.09100e+03	2.30114e-02	6.71833e+02
4095	6.71929e+02	4.09500e+03	2.30554e-02	6.72500e+02
4099	6.72588e+02	4.09900e+03	2.30411e-02	6.73167e+02
4103	6.73244e+02	4.10300e+03	2.30307e-02	6.73833e+02
4107	6.73892e+02	4.10700e+03	2.30439e-02	6.74500e+02
4111	6.74553e+02	4.11100e+03	2.29935e-02	6.75167e+02
4115	6.75203e+02	4.11500e+03	2.28649e-02	6.75833e+02
4119	6.75865e+02	4.11900e+03	2.27865e-02	6.76500e+02
4123	6.76531e+02	4.12300e+03	2.27986e-02	6.77167e+02
4127	6.77187e+02	4.12700e+03	2.28206e-02	6.77833e+02
4131	6.77844e+02	4.13100e+03	2.28318e-02	6.78500e+02
4135	6.78509e+02	4.13500e+03	2.28169e-02	6.79167e+02
4139	6.79172e+02	4.13900e+03	2.27507e-02	6.79833e+02
4143	6.79834e+02	4.14300e+03	2.26679e-02	6.80500e+02
4147	6.80497e+02	4.14700e+03	2.26139e-02	6.81167e+02
4151	6.81148e+02	4.15100e+03	2.26086e-02	6.81833e+02
4155	6.81813e+02	4.15500e+03	2.26897e-02	6.82500e+02
4159	6.82467e+02	4.15900e+03	2.27543e-02	6.83167e+02
4163	6.83127e+02	4.16300e+03	2.27068e-02	6.83833e+02
4167	6.83781e+02	4.16700e+03	2.27003e-02	6.84500e+02
4171	6.84441e+02	4.17100e+03	2.26999e-02	6.85167e+02
4175	6.85101e+02	4.17500e+03	2.26236e-02	6.85833e+02
4179	6.85763e+02	4.17900e+03	2.26203e-02	6.86500e+02
4183	6.86419e+02	4.18300e+03	2.26634e-02	6.87167e+02
4187	6.87084e+02	4.18700e+03	2.26771e-02	6.87833e+02
4191	6.87745e+02	4.19100e+03	2.26841e-02	6.88500e+02
4195	6.88409e+02	4.19500e+03	2.27153e-02	6.89167e+02
4199	6.89069e+02	4.19900e+03	2.27992e-02	6.89833e+02
4203	6.89728e+02	4.20300e+03	2.28774e-02	6.90500e+02
4207	6.90395e+02	4.20700e+03	2.28906e-02	6.91167e+02
4211	6.91047e+02	4.21100e+03	2.28266e-02	6.91833e+02
4215	6.91717e+02	4.21500e+03	2.27656e-02	6.92500e+02
4219	6.92378e+02	4.21900e+03	2.27868e-02	6.93167e+02
4223	6.93047e+02	4.22300e+03	2.28528e-02	6.93833e+02
4227	6.93709e+02	4.22700e+03	2.29004e-02	6.94500e+02
4231	6.94373e+02	4.23100e+03	2.28909e-02	6.95167e+02
4235	6.94933e+02	4.23500e+03	2.27899e-02	6.95833e+02
4239	6.95365e+02	4.23900e+03	2.26962e-02	6.96500e+02
4243	6.95837e+02	4.24300e+03	2.27134e-02	6.97167e+02
4247	6.96261e+02	4.24700e+03	2.27502e-02	6.97833e+02
4251	6.96626e+02	4.25100e+03	2.27563e-02	6.98500e+02
4255	6.96954e+02	4.25500e+03	2.27349e-02	6.99167e+02
4259	6.97245e+02	4.25900e+03	2.26718e-02	6.99833e+02
4260	6.97320e+02	4.26000e+03	2.26467e-02	7.00000e+02