File: Experiments/TGA/TUBS/tga_nonisotherm/tga_dynamic_n2_dyn20_piece_2mg_r2.txt
index	ts	t	weight	tr
[#]	[°C]	[s]	[mg]	[°C]
723	1.30263e+02	7.23000e+02	2.04017e+00	1.31000e+02
725	1.30925e+02	7.25000e+02	2.04015e+00	1.31667e+02
727	1.31582e+02	7.27000e+02	2.04013e+00	1.32333e+02
729	1.32261e+02	7.29000e+02	2.04011e+00	1.33000e+02
731	1.32918e+02	7.31000e+02	2.04008e+00	1.33667e+02
733	1.33588e+02	7.33000e+02	2.04005e+00	1.34333e+02
735	1.34248e+02	7.35000e+02	2.04003e+00	1.35000e+02
737	1.34918e+02	7.37000e+02	2.04002e+00	1.35667e+02
739	1.35570e+02	7.39000e+02	2.04001e+00	1.36333e+02
741	1.36238e+02	7.41000e+02	2.04001e+00	1.37000e+02
743	1.36909e+02	7.43000e+02	2.04001e+00	1.37667e+02
745	1.37580e+02	7.45000e+02	2.04001e+00	1.38333e+02
747	1.38241e+02	7.47000e+02	2.04000e+00	1.39000e+02
749	1.38899e+02	7.49000e+02	2.03997e+00	1.39667e+02
751	1.39580e+02	7.51000e+02	2.03994e+00	1.40333e+02
753	1.40228e+02	7.53000e+02	2.03991e+00	1.41000e+02
755	1.40900e+02	7.55000e+02	2.03988e+00	1.41667e+02
757	1.41569e+02	7.57000e+02	2.03987e+00	1.42333e+02
759	1.42242e+02	7.59000e+02	2.03986e+00	1.43000e+02
761	1.42909e+02	7.61000e+02	2.03987e+00	1.43667e+02
763	1.43559e+02	7.63000e+02	2.03985e+00	1.44333e+02
765	1.44253e+02	7.65000e+02	2.03982e+00	1.45000e+02
767	1.44914e+02	7.67000e+02	2.03979e+00	1.45667e+02
769	1.45583e+02	7.69000e+02	2.03976e+00	1.46333e+02
771	1.46252e+02	7.71000e+02	2.03974e+00	1.47000e+02
773	1.46915e+02	7.73000e+02	2.03971e+00	1.47667e+02
775	1.47583e+02	7.75000e+02	2.03968e+00	1.48333e+02
777	1.48242e+02	7.77000e+02	2.03964e+00	1.49000e+02
779	1.48919e+02	7.79000e+02	2.03961e+00	1.49667e+02
781	1.49601e+02	7.81000e+02	2.03958e+00	1.50333e+02
783	1.50254e+02	7.83000e+02	2.03956e+00	1.51000e+02
785	1.50928e+02	7.85000e+02	2.03956e+00	1.51667e+02
787	1.51589e+02	7.87000e+02	2.03954e+00	1.52333e+02
789	1.52262e+02	7.89000e+02	2.03953e+00	1.53000e+02
791	1.52936e+02	7.91000e+02	2.03950e+00	1.53667e+02
793	1.53599e+02	7.93000e+02	2.03946e+00	1.54333e+02
795	1.54269e+02	7.95000e+02	2.03942e+00	1.55000e+02
797	1.54935e+02	7.97000e+02	2.03939e+00	1.55667e+02
799	1.55622e+02	7.99000e+02	2.03935e+00	1.56333e+02
801	1.56279e+02	8.01000e+02	2.03930e+00	1.57000e+02
803	1.56957e+02	8.03000e+02	2.03925e+00	1.57667e+02
805	1.57626e+02	8.05000e+02	2.03920e+00	1.58333e+02
807	1.58284e+02	8.07000e+02	2.03916e+00	1.59000e+02
809	1.58965e+02	8.09000e+02	2.03913e+00	1.59667e+02
811	1.59631e+02	8.11000e+02	2.03909e+00	1.60333e+02
813	1.60292e+02	8.13000e+02	2.03906e+00	1.61000e+02
815	1.60957e+02	8.15000e+02	2.03903e+00	1.61667e+02
817	1.61641e+02	8.17000e+02	2.03902e+00	1.62333e+02
819	1.62318e+02	8.19000e+02	2.03901e+00	1.63000e+02
821	1.62981e+02	8.21000e+02	2.03901e+00	1.63667e+02
823	1.63656e+02	8.23000e+02	2.03901e+00	1.64333e+02
825	1.64320e+02	8.25000e+02	2.03899e+00	1.65000e+02
827	1.65004e+02	8.27000e+02	2.03896e+00	1.65667e+02
829	1.65674e+02	8.29000e+02	2.03893e+00	1.66333e+02
831	1.66343e+02	8.31000e+02	2.03891e+00	1.67000e+02
833	1.67000e+02	8.33000e+02	2.03889e+00	1.67667e+02
835	1.67680e+02	8.35000e+02	2.03887e+00	1.68333e+02
837	1.68354e+02	8.37000e+02	2.03886e+00	1.69000e+02
839	1.69031e+02	8.39000e+02	2.03884e+00	1.69667e+02
841	1.69703e+02	8.41000e+02	2.03882e+00	1.70333e+02
843	1.70364e+02	8.43000e+02	2.03880e+00	1.71000e+02
845	1.71037e+02	8.45000e+02	2.03877e+00	1.71667e+02
847	1.71691e+02	8.47000e+02	2.03873e+00	1.72333e+02
849	1.72378e+02	8.49000e+02	2.03865e+00	1.73000e+02
851	1.73057e+02	8.51000e+02	2.03856e+00	1.73667e+02
853	1.73713e+02	8.53000e+02	2.03844e+00	1.74333e+02
855	1.74390e+02	8.55000e+02	2.03833e+00	1.75000e+02
857	1.75072e+02	8.57000e+02	2.03823e+00	1.75667e+02
859	1.75731e+02	8.59000e+02	2.03813e+00	1.76333e+02
861	1.76414e+02	8.61000e+02	2.03805e+00	1.77000e+02
863	1.77095e+02	8.63000e+02	2.03798e+00	1.77667e+02
865	1.77772e+02	8.65000e+02	2.03792e+00	1.78333e+02
867	1.78436e+02	8.67000e+02	2.03784e+00	1.79000e+02
869	1.79100e+02	8.69000e+02	2.03774e+00	1.79667e+02
871	1.79782e+02	8.71000e+02	2.03764e+00	1.80333e+02
873	1.80443e+02	8.73000e+02	2.03753e+00	1.81000e+02
875	1.81138e+02	8.75000e+02	2.03742e+00	1.81667e+02
877	1.81797e+02	8.77000e+02	2.03728e+00	1.82333e+02
879	1.82468e+02	8.79000e+02	2.03714e+00	1.83000e+02
881	1.83154e+02	8.81000e+02	2.03697e+00	1.83667e+02
883	1.83825e+02	8.83000e+02	2.03681e+00	1.84333e+02
885	1.84505e+02	8.85000e+02	2.03661e+00	1.85000e+02
887	1.85171e+02	8.87000e+02	2.03641e+00	1.85667e+02
889	1.85859e+02	8.89000e+02	2.03618e+00	1.86333e+02
891	1.86524e+02	8.91000e+02	2.03594e+00	1.87000e+02
893	1.87196e+02	8.93000e+02	2.03570e+00	1.87667e+02
895	1.87868e+02	8.95000e+02	2.03544e+00	1.88333e+02
897	1.88550e+02	8.97000e+02	2.03516e+00	1.89000e+02
899	1.89229e+02	8.99000e+02	2.03489e+00	1.89667e+02
901	1.89898e+02	9.01000e+02	2.03461e+00	1.90333e+02
903	1.90560e+02	9.03000e+02	2.03431e+00	1.91000e+02
905	1.91236e+02	9.05000e+02	2.03395e+00	1.91667e+02
907	1.91924e+02	9.07000e+02	2.03358e+00	1.92333e+02
909	1.92605e+02	9.09000e+02	2.03318e+00	1.93000e+02
911	1.93280e+02	9.11000e+02	2.03280e+00	1.93667e+02
913	1.93944e+02	9.13000e+02	2.03243e+00	1.94333e+02
915	1.94633e+02	9.15000e+02	2.03207e+00	1.95000e+02
917	1.95304e+02	9.17000e+02	2.03170e+00	1.95667e+02
919	1.95986e+02	9.19000e+02	2.03132e+00	1.96333e+02
921	1.96656e+02	9.21000e+02	2.03090e+00	1.97000e+02
923	1.97336e+02	9.23000e+02	2.03047e+00	1.97667e+02
925	1.98020e+02	9.25000e+02	2.03001e+00	1.98333e+02
927	1.98685e+02	9.27000e+02	2.02956e+00	1.99000e+02
929	1.99366e+02	9.29000e+02	2.02912e+00	1.99667e+02
931	2.00041e+02	9.31000e+02	2.02866e+00	2.00333e+02
933	2.00725e+02	9.33000e+02	2.02819e+00	2.01000e+02
935	2.01394e+02	9.35000e+02	2.02771e+00	2.01667e+02
937	2.02072e+02	9.37000e+02	2.02719e+00	2.02333e+02
939	2.02755e+02	9.39000e+02	2.02667e+00	2.03000e+02
941	2.03423e+02	9.41000e+02	2.02613e+00	2.03667e+02
943	2.04093e+02	9.43000e+02	2.02562e+00	2.04333e+02
945	2.04781e+02	9.45000e+02	2.02514e+00	2.05000e+02
947	2.05457e+02	9.47000e+02	2.02466e+00	2.05667e+02
949	2.06135e+02	9.49000e+02	2.02419e+00	2.06333e+02
951	2.06817e+02	9.51000e+02	2.02370e+00	2.07000e+02
953	2.07481e+02	9.53000e+02	2.02320e+00	2.07667e+02
955	2.08155e+02	9.55000e+02	2.02270e+00	2.08333e+02
957	2.08835e+02	9.57000e+02	2.02221e+00	2.09000e+02
959	2.09503e+02	9.59000e+02	2.02170e+00	2.09667e+02
961	2.10177e+02	9.61000e+02	2.02120e+00	2.10333e+02
963	2.10860e+02	9.63000e+02	2.02068e+00	2.11000e+02
965	2.11535e+02	9.65000e+02	2.02016e+00	2.11667e+02
967	2.12201e+02	9.67000e+02	2.01964e+00	2.12333e+02
969	2.12895e+02	9.69000e+02	2.01912e+00	2.13000e+02
971	2.13554e+02	9.71000e+02	2.01860e+00	2.13667e+02
973	2.14243e+02	9.73000e+02	2.01807e+00	2.14333e+02
975	2.14928e+02	9.75000e+02	2.01754e+00	2.15000e+02
977	2.15586e+02	9.77000e+02	2.01702e+00	2.15667e+02
979	2.16263e+02	9.79000e+02	2.01651e+00	2.16333e+02
981	2.16935e+02	9.81000e+02	2.01602e+00	2.17000e+02
983	2.17628e+02	9.83000e+02	2.01553e+00	2.17667e+02
985	2.18294e+02	9.85000e+02	2.01503e+00	2.18333e+02
987	2.18979e+02	9.87000e+02	2.01452e+00	2.19000e+02
989	2.19649e+02	9.89000e+02	2.01400e+00	2.19667e+02
991	2.20323e+02	9.91000e+02	2.01351e+00	2.20333e+02
993	2.20999e+02	9.93000e+02	2.01304e+00	2.21000e+02
995	2.21670e+02	9.95000e+02	2.01256e+00	2.21667e+02
997	2.22349e+02	9.97000e+02	2.01206e+00	2.22333e+02
999	2.23015e+02	9.99000e+02	2.01155e+00	2.23000e+02
1001	2.23687e+02	1.00100e+03	2.01100e+00	2.23667e+02
1003	2.24372e+02	1.00300e+03	2.01044e+00	2.24333e+02
1005	2.25056e+02	1.00500e+03	2.00984e+00	2.25000e+02
1007	2.25714e+02	1.00700e+03	2.00925e+00	2.25667e+02
1009	2.26391e+02	1.00900e+03	2.00864e+00	2.26333e+02
1011	2.27075e+02	1.01100e+03	2.00804e+00	2.27000e+02
1013	2.27742e+02	1.01300e+03	2.00745e+00	2.27667e+02
1015	2.28416e+02	1.01500e+03	2.00688e+00	2.28333e+02
1017	2.29083e+02	1.01700e+03	2.00632e+00	2.29000e+02
1019	2.29766e+02	1.01900e+03	2.00576e+00	2.29667e+02
1021	2.30440e+02	1.02100e+03	2.00521e+00	2.30333e+02
1023	2.31118e+02	1.02300e+03	2.00466e+00	2.31000e+02
1025	2.31801e+02	1.02500e+03	2.00410e+00	2.31667e+02
1027	2.32462e+02	1.02700e+03	2.00354e+00	2.32333e+02
1029	2.33146e+02	1.02900e+03	2.00296e+00	2.33000e+02
1031	2.33818e+02	1.03100e+03	2.00237e+00	2.33667e+02
1033	2.34498e+02	1.03300e+03	2.00177e+00	2.34333e+02
1035	2.35168e+02	1.03500e+03	2.00118e+00	2.35000e+02
1037	2.35843e+02	1.03700e+03	2.00060e+00	2.35667e+02
1039	2.36508e+02	1.03900e+03	2.00003e+00	2.36333e+02
1041	2.37186e+02	1.04100e+03	1.99948e+00	2.37000e+02
1043	2.37862e+02	1.04300e+03	1.99891e+00	2.37667e+02
1045	2.38521e+02	1.04500e+03	1.99834e+00	2.38333e+02
1047	2.39203e+02	1.04700e+03	1.99777e+00	2.39000e+02
1049	2.39873e+02	1.04900e+03	1.99720e+00	2.39667e+02
1051	2.40551e+02	1.05100e+03	1.99663e+00	2.40333e+02
1053	2.41219e+02	1.05300e+03	1.99605e+00	2.41000e+02
1055	2.41899e+02	1.05500e+03	1.99547e+00	2.41667e+02
1057	2.42574e+02	1.05700e+03	1.99487e+00	2.42333e+02
1059	2.43253e+02	1.05900e+03	1.99427e+00	2.43000e+02
1061	2.43925e+02	1.06100e+03	1.99368e+00	2.43667e+02
1063	2.44595e+02	1.06300e+03	1.99308e+00	2.44333e+02
1065	2.45270e+02	1.06500e+03	1.99250e+00	2.45000e+02
1067	2.45944e+02	1.06700e+03	1.99191e+00	2.45667e+02
1069	2.46609e+02	1.06900e+03	1.99133e+00	2.46333e+02
1071	2.47289e+02	1.07100e+03	1.99076e+00	2.47000e+02
1073	2.47967e+02	1.07300e+03	1.99021e+00	2.47667e+02
1075	2.48645e+02	1.07500e+03	1.98966e+00	2.48333e+02
1077	2.49317e+02	1.07700e+03	1.98911e+00	2.49000e+02
1079	2.49991e+02	1.07900e+03	1.98856e+00	2.49667e+02
1081	2.50663e+02	1.08100e+03	1.98801e+00	2.50333e+02
1083	2.51340e+02	1.08300e+03	1.98745e+00	2.51000e+02
1085	2.52012e+02	1.08500e+03	1.98689e+00	2.51667e+02
1087	2.52693e+02	1.08700e+03	1.98631e+00	2.52333e+02
1089	2.53353e+02	1.08900e+03	1.98573e+00	2.53000e+02
1091	2.54029e+02	1.09100e+03	1.98514e+00	2.53667e+02
1093	2.54714e+02	1.09300e+03	1.98456e+00	2.54333e+02
1095	2.55378e+02	1.09500e+03	1.98398e+00	2.55000e+02
1097	2.56053e+02	1.09700e+03	1.98340e+00	2.55667e+02
1099	2.56716e+02	1.09900e+03	1.98284e+00	2.56333e+02
1101	2.57407e+02	1.10100e+03	1.98227e+00	2.57000e+02
1103	2.58057e+02	1.10300e+03	1.98170e+00	2.57667e+02
1105	2.58737e+02	1.10500e+03	1.98111e+00	2.58333e+02
1107	2.59407e+02	1.10700e+03	1.98053e+00	2.59000e+02
1109	2.60067e+02	1.10900e+03	1.97993e+00	2.59667e+02
1111	2.60751e+02	1.11100e+03	1.97933e+00	2.60333e+02
1113	2.61420e+02	1.11300e+03	1.97872e+00	2.61000e+02
1115	2.62099e+02	1.11500e+03	1.97811e+00	2.61667e+02
1117	2.62763e+02	1.11700e+03	1.97752e+00	2.62333e+02
1119	2.63440e+02	1.11900e+03	1.97694e+00	2.63000e+02
1121	2.64103e+02	1.12100e+03	1.97640e+00	2.63667e+02
1123	2.64776e+02	1.12300e+03	1.97586e+00	2.64333e+02
1125	2.65452e+02	1.12500e+03	1.97534e+00	2.65000e+02
1127	2.66123e+02	1.12700e+03	1.97481e+00	2.65667e+02
1129	2.66801e+02	1.12900e+03	1.97426e+00	2.66333e+02
1131	2.67467e+02	1.13100e+03	1.97371e+00	2.67000e+02
1133	2.68149e+02	1.13300e+03	1.97314e+00	2.67667e+02
1135	2.68824e+02	1.13500e+03	1.97257e+00	2.68333e+02
1137	2.69487e+02	1.13700e+03	1.97199e+00	2.69000e+02
1139	2.70156e+02	1.13900e+03	1.97142e+00	2.69667e+02
1141	2.70826e+02	1.14100e+03	1.97085e+00	2.70333e+02
1143	2.71493e+02	1.14300e+03	1.97028e+00	2.71000e+02
1145	2.72172e+02	1.14500e+03	1.96973e+00	2.71667e+02
1147	2.72844e+02	1.14700e+03	1.96919e+00	2.72333e+02
1149	2.73514e+02	1.14900e+03	1.96866e+00	2.73000e+02
1151	2.74176e+02	1.15100e+03	1.96811e+00	2.73667e+02
1153	2.74850e+02	1.15300e+03	1.96753e+00	2.74333e+02
1155	2.75520e+02	1.15500e+03	1.96695e+00	2.75000e+02
1157	2.76191e+02	1.15700e+03	1.96636e+00	2.75667e+02
1159	2.76863e+02	1.15900e+03	1.96578e+00	2.76333e+02
1161	2.77526e+02	1.16100e+03	1.96521e+00	2.77000e+02
1163	2.78200e+02	1.16300e+03	1.96462e+00	2.77667e+02
1165	2.78872e+02	1.16500e+03	1.96403e+00	2.78333e+02
1167	2.79549e+02	1.16700e+03	1.96342e+00	2.79000e+02
1169	2.80212e+02	1.16900e+03	1.96278e+00	2.79667e+02
1171	2.80889e+02	1.17100e+03	1.96215e+00	2.80333e+02
1173	2.81560e+02	1.17300e+03	1.96151e+00	2.81000e+02
1175	2.82220e+02	1.17500e+03	1.96086e+00	2.81667e+02
1177	2.82896e+02	1.17700e+03	1.96020e+00	2.82333e+02
1179	2.83571e+02	1.17900e+03	1.95954e+00	2.83000e+02
1181	2.84240e+02	1.18100e+03	1.95887e+00	2.83667e+02
1183	2.84905e+02	1.18300e+03	1.95820e+00	2.84333e+02
1185	2.85570e+02	1.18500e+03	1.95751e+00	2.85000e+02
1187	2.86241e+02	1.18700e+03	1.95680e+00	2.85667e+02
1189	2.86912e+02	1.18900e+03	1.95606e+00	2.86333e+02
1191	2.87585e+02	1.19100e+03	1.95531e+00	2.87000e+02
1193	2.88257e+02	1.19300e+03	1.95451e+00	2.87667e+02
1195	2.88922e+02	1.19500e+03	1.95372e+00	2.88333e+02
1197	2.89599e+02	1.19700e+03	1.95292e+00	2.89000e+02
1199	2.90264e+02	1.19900e+03	1.95212e+00	2.89667e+02
1201	2.90931e+02	1.20100e+03	1.95132e+00	2.90333e+02
1203	2.91600e+02	1.20300e+03	1.95052e+00	2.91000e+02
1205	2.92271e+02	1.20500e+03	1.94969e+00	2.91667e+02
1207	2.92929e+02	1.20700e+03	1.94885e+00	2.92333e+02
1209	2.93608e+02	1.20900e+03	1.94798e+00	2.93000e+02
1211	2.94275e+02	1.21100e+03	1.94709e+00	2.93667e+02
1213	2.94944e+02	1.21300e+03	1.94614e+00	2.94333e+02
1215	2.95617e+02	1.21500e+03	1.94517e+00	2.95000e+02
1217	2.96267e+02	1.21700e+03	1.94413e+00	2.95667e+02
1219	2.96954e+02	1.21900e+03	1.94309e+00	2.96333e+02
1221	2.97620e+02	1.22100e+03	1.94198e+00	2.97000e+02
1223	2.98285e+02	1.22300e+03	1.94087e+00	2.97667e+02
1225	2.98951e+02	1.22500e+03	1.93973e+00	2.98333e+02
1227	2.99618e+02	1.22700e+03	1.93857e+00	2.99000e+02
1229	3.00291e+02	1.22900e+03	1.93739e+00	2.99667e+02
1231	3.00941e+02	1.23100e+03	1.93618e+00	3.00333e+02
1233	3.01637e+02	1.23300e+03	1.93494e+00	3.01000e+02
1235	3.02293e+02	1.23500e+03	1.93368e+00	3.01667e+02
1237	3.02971e+02	1.23700e+03	1.93238e+00	3.02333e+02
1239	3.03637e+02	1.23900e+03	1.93108e+00	3.03000e+02
1241	3.04300e+02	1.24100e+03	1.92974e+00	3.03667e+02
1243	3.04982e+02	1.24300e+03	1.92839e+00	3.04333e+02
1245	3.05644e+02	1.24500e+03	1.92699e+00	3.05000e+02
1247	3.06311e+02	1.24700e+03	1.92558e+00	3.05667e+02
1249	3.06973e+02	1.24900e+03	1.92411e+00	3.06333e+02
1251	3.07637e+02	1.25100e+03	1.92262e+00	3.07000e+02
1253	3.08305e+02	1.25300e+03	1.92106e+00	3.07667e+02
1255	3.08981e+02	1.25500e+03	1.91951e+00	3.08333e+02
1257	3.09646e+02	1.25700e+03	1.91794e+00	3.09000e+02
1259	3.10318e+02	1.25900e+03	1.91639e+00	3.09667e+02
1261	3.10978e+02	1.26100e+03	1.91485e+00	3.10333e+02
1263	3.11652e+02	1.26300e+03	1.91330e+00	3.11000e+02
1265	3.12317e+02	1.26500e+03	1.91174e+00	3.11667e+02
1267	3.12980e+02	1.26700e+03	1.91016e+00	3.12333e+02
1269	3.13652e+02	1.26900e+03	1.90855e+00	3.13000e+02
1271	3.14325e+02	1.27100e+03	1.90693e+00	3.13667e+02
1273	3.15003e+02	1.27300e+03	1.90527e+00	3.14333e+02
1275	3.15672e+02	1.27500e+03	1.90361e+00	3.15000e+02
1277	3.16341e+02	1.27700e+03	1.90194e+00	3.15667e+02
1279	3.17011e+02	1.27900e+03	1.90028e+00	3.16333e+02
1281	3.17672e+02	1.28100e+03	1.89863e+00	3.17000e+02
1283	3.18341e+02	1.28300e+03	1.89698e+00	3.17667e+02
1285	3.18998e+02	1.28500e+03	1.89533e+00	3.18333e+02
1287	3.19682e+02	1.28700e+03	1.89364e+00	3.19000e+02
1289	3.20337e+02	1.28900e+03	1.89189e+00	3.19667e+02
1291	3.21003e+02	1.29100e+03	1.89013e+00	3.20333e+02
1293	3.21658e+02	1.29300e+03	1.88831e+00	3.21000e+02
1295	3.22343e+02	1.29500e+03	1.88649e+00	3.21667e+02
1297	3.23016e+02	1.29700e+03	1.88464e+00	3.22333e+02
1299	3.23680e+02	1.29900e+03	1.88278e+00	3.23000e+02
1301	3.24340e+02	1.30100e+03	1.88086e+00	3.23667e+02
1303	3.25008e+02	1.30300e+03	1.87890e+00	3.24333e+02
1305	3.25671e+02	1.30500e+03	1.87686e+00	3.25000e+02
1307	3.26333e+02	1.30700e+03	1.87480e+00	3.25667e+02
1309	3.27002e+02	1.30900e+03	1.87266e+00	3.26333e+02
1311	3.27678e+02	1.31100e+03	1.87048e+00	3.27000e+02
1313	3.28338e+02	1.31300e+03	1.86822e+00	3.27667e+02
1315	3.29011e+02	1.31500e+03	1.86592e+00	3.28333e+02
1317	3.29670e+02	1.31700e+03	1.86349e+00	3.29000e+02
1319	3.30347e+02	1.31900e+03	1.86102e+00	3.29667e+02
1321	3.31011e+02	1.32100e+03	1.85839e+00	3.30333e+02
1323	3.31672e+02	1.32300e+03	1.85574e+00	3.31000e+02
1325	3.32333e+02	1.32500e+03	1.85292e+00	3.31667e+02
1327	3.32994e+02	1.32700e+03	1.85007e+00	3.32333e+02
1329	3.33653e+02	1.32900e+03	1.84704e+00	3.33000e+02
1331	3.34323e+02	1.33100e+03	1.84395e+00	3.33667e+02
1333	3.34988e+02	1.33300e+03	1.84066e+00	3.34333e+02
1335	3.35662e+02	1.33500e+03	1.83732e+00	3.35000e+02
1337	3.36327e+02	1.33700e+03	1.83377e+00	3.35667e+02
1339	3.36983e+02	1.33900e+03	1.83016e+00	3.36333e+02
1341	3.37652e+02	1.34100e+03	1.82631e+00	3.37000e+02
1343	3.38317e+02	1.34300e+03	1.82237e+00	3.37667e+02
1345	3.38974e+02	1.34500e+03	1.81813e+00	3.38333e+02
1347	3.39642e+02	1.34700e+03	1.81380e+00	3.39000e+02
1349	3.40296e+02	1.34900e+03	1.80914e+00	3.39667e+02
1351	3.40955e+02	1.35100e+03	1.80440e+00	3.40333e+02
1353	3.41634e+02	1.35300e+03	1.79933e+00	3.41000e+02
1355	3.42294e+02	1.35500e+03	1.79420e+00	3.41667e+02
1357	3.42944e+02	1.35700e+03	1.78876e+00	3.42333e+02
1359	3.43609e+02	1.35900e+03	1.78321e+00	3.43000e+02
1361	3.44281e+02	1.36100e+03	1.77728e+00	3.43667e+02
1363	3.44931e+02	1.36300e+03	1.77123e+00	3.44333e+02
1365	3.45604e+02	1.36500e+03	1.76472e+00	3.45000e+02
1367	3.46278e+02	1.36700e+03	1.75809e+00	3.45667e+02
1369	3.46927e+02	1.36900e+03	1.75097e+00	3.46333e+02
1371	3.47580e+02	1.37100e+03	1.74376e+00	3.47000e+02
1373	3.48244e+02	1.37300e+03	1.73610e+00	3.47667e+02
1375	3.48903e+02	1.37500e+03	1.72832e+00	3.48333e+02
1377	3.49557e+02	1.37700e+03	1.72005e+00	3.49000e+02
1379	3.50227e+02	1.37900e+03	1.71162e+00	3.49667e+02
1381	3.50878e+02	1.38100e+03	1.70260e+00	3.50333e+02
1383	3.51540e+02	1.38300e+03	1.69343e+00	3.51000e+02
1385	3.52202e+02	1.38500e+03	1.68364e+00	3.51667e+02
1387	3.52861e+02	1.38700e+03	1.67369e+00	3.52333e+02
1389	3.53527e+02	1.38900e+03	1.66305e+00	3.53000e+02
1391	3.54180e+02	1.39100e+03	1.65221e+00	3.53667e+02
1393	3.54837e+02	1.39300e+03	1.64064e+00	3.54333e+02
1395	3.55499e+02	1.39500e+03	1.62891e+00	3.55000e+02
1397	3.56156e+02	1.39700e+03	1.61646e+00	3.55667e+02
1399	3.56803e+02	1.39900e+03	1.60382e+00	3.56333e+02
1401	3.57457e+02	1.40100e+03	1.59038e+00	3.57000e+02
1403	3.58113e+02	1.40300e+03	1.57672e+00	3.57667e+02
1405	3.58771e+02	1.40500e+03	1.56220e+00	3.58333e+02
1407	3.59435e+02	1.40700e+03	1.54750e+00	3.59000e+02
1409	3.60086e+02	1.40900e+03	1.53199e+00	3.59667e+02
1411	3.60752e+02	1.41100e+03	1.51634e+00	3.60333e+02
1413	3.61409e+02	1.41300e+03	1.49994e+00	3.61000e+02
1415	3.62064e+02	1.41500e+03	1.48335e+00	3.61667e+02
1417	3.62717e+02	1.41700e+03	1.46593e+00	3.62333e+02
1419	3.63382e+02	1.41900e+03	1.44823e+00	3.63000e+02
1421	3.64039e+02	1.42100e+03	1.42956e+00	3.63667e+02
1423	3.64687e+02	1.42300e+03	1.41068e+00	3.64333e+02
1425	3.65345e+02	1.42500e+03	1.39083e+00	3.65000e+02
1427	3.66006e+02	1.42700e+03	1.37075e+00	3.65667e+02
1429	3.66657e+02	1.42900e+03	1.34977e+00	3.66333e+02
1431	3.67313e+02	1.43100e+03	1.32862e+00	3.67000e+02
1433	3.67967e+02	1.43300e+03	1.30670e+00	3.67667e+02
1435	3.68626e+02	1.43500e+03	1.28467e+00	3.68333e+02
1437	3.69277e+02	1.43700e+03	1.26204e+00	3.69000e+02
1439	3.69935e+02	1.43900e+03	1.23932e+00	3.69667e+02
1441	3.70594e+02	1.44100e+03	1.21606e+00	3.70333e+02
1443	3.71270e+02	1.44300e+03	1.19267e+00	3.71000e+02
1445	3.71920e+02	1.44500e+03	1.16872e+00	3.71667e+02
1447	3.72578e+02	1.44700e+03	1.14463e+00	3.72333e+02
1449	3.73241e+02	1.44900e+03	1.11999e+00	3.73000e+02
1451	3.73889e+02	1.45100e+03	1.09528e+00	3.73667e+02
1453	3.74563e+02	1.45300e+03	1.07019e+00	3.74333e+02
1455	3.75216e+02	1.45500e+03	1.04512e+00	3.75000e+02
1457	3.75875e+02	1.45700e+03	1.01984e+00	3.75667e+02
1459	3.76532e+02	1.45900e+03	9.94553e-01	3.76333e+02
1461	3.77194e+02	1.46100e+03	9.69160e-01	3.77000e+02
1463	3.77854e+02	1.46300e+03	9.43822e-01	3.77667e+02
1465	3.78517e+02	1.46500e+03	9.18486e-01	3.78333e+02
1467	3.79180e+02	1.46700e+03	8.93167e-01	3.79000e+02
1469	3.79856e+02	1.46900e+03	8.67868e-01	3.79667e+02
1471	3.80507e+02	1.47100e+03	8.42612e-01	3.80333e+02
1473	3.81183e+02	1.47300e+03	8.17505e-01	3.81000e+02
1475	3.81834e+02	1.47500e+03	7.92549e-01	3.81667e+02
1477	3.82507e+02	1.47700e+03	7.67917e-01	3.82333e+02
1479	3.83171e+02	1.47900e+03	7.43328e-01	3.83000e+02
1481	3.83829e+02	1.48100e+03	7.18988e-01	3.83667e+02
1483	3.84489e+02	1.48300e+03	6.94663e-01	3.84333e+02
1485	3.85153e+02	1.48500e+03	6.70519e-01	3.85000e+02
1487	3.85822e+02	1.48700e+03	6.46415e-01	3.85667e+02
1489	3.86490e+02	1.48900e+03	6.22477e-01	3.86333e+02
1491	3.87160e+02	1.49100e+03	5.98527e-01	3.87000e+02
1493	3.87823e+02	1.49300e+03	5.74627e-01	3.87667e+02
1495	3.88488e+02	1.49500e+03	5.50662e-01	3.88333e+02
1497	3.89152e+02	1.49700e+03	5.26657e-01	3.89000e+02
1499	3.89829e+02	1.49900e+03	5.02713e-01	3.89667e+02
1501	3.90498e+02	1.50100e+03	4.78939e-01	3.90333e+02
1503	3.91165e+02	1.50300e+03	4.55374e-01	3.91000e+02
1505	3.91847e+02	1.50500e+03	4.32313e-01	3.91667e+02
1507	3.92518e+02	1.50700e+03	4.09507e-01	3.92333e+02
1509	3.93190e+02	1.50900e+03	3.87510e-01	3.93000e+02
1511	3.93862e+02	1.51100e+03	3.65823e-01	3.93667e+02
1513	3.94533e+02	1.51300e+03	3.45154e-01	3.94333e+02
1515	3.95209e+02	1.51500e+03	3.24774e-01	3.95000e+02
1517	3.95882e+02	1.51700e+03	3.05519e-01	3.95667e+02
1519	3.96554e+02	1.51900e+03	2.86583e-01	3.96333e+02
1521	3.97238e+02	1.52100e+03	2.68855e-01	3.97000e+02
1523	3.97914e+02	1.52300e+03	2.51410e-01	3.97667e+02
1525	3.98579e+02	1.52500e+03	2.35177e-01	3.98333e+02
1527	3.99255e+02	1.52700e+03	2.19222e-01	3.99000e+02
1529	3.99940e+02	1.52900e+03	2.04500e-01	3.99667e+02
1531	4.00623e+02	1.53100e+03	1.90071e-01	4.00333e+02
1533	4.01292e+02	1.53300e+03	1.76877e-01	4.01000e+02
1535	4.01964e+02	1.53500e+03	1.63943e-01	4.01667e+02
1537	4.02639e+02	1.53700e+03	1.52158e-01	4.02333e+02
1539	4.03304e+02	1.53900e+03	1.40591e-01	4.03000e+02
1541	4.03979e+02	1.54100e+03	1.30082e-01	4.03667e+02
1543	4.04654e+02	1.54300e+03	1.19789e-01	4.04333e+02
1545	4.05330e+02	1.54500e+03	1.10484e-01	4.05000e+02
1547	4.06004e+02	1.54700e+03	1.01371e-01	4.05667e+02
1549	4.06675e+02	1.54900e+03	9.31642e-02	4.06333e+02
1551	4.07358e+02	1.55100e+03	8.51403e-02	4.07000e+02
1553	4.08019e+02	1.55300e+03	7.79533e-02	4.07667e+02
1555	4.08691e+02	1.55500e+03	7.09343e-02	4.08333e+02
1557	4.09357e+02	1.55700e+03	6.46873e-02	4.09000e+02
1559	4.10032e+02	1.55900e+03	5.85953e-02	4.09667e+02
1561	4.10698e+02	1.56100e+03	5.32194e-02	4.10333e+02
1563	4.11372e+02	1.56300e+03	4.79867e-02	4.11000e+02
1565	4.12035e+02	1.56500e+03	4.33937e-02	4.11667e+02
1567	4.12704e+02	1.56700e+03	3.88967e-02	4.12333e+02
1569	4.13377e+02	1.56900e+03	3.49352e-02	4.13000e+02
1571	4.14045e+02	1.57100e+03	3.10693e-02	4.13667e+02
1573	4.14721e+02	1.57300e+03	2.76699e-02	4.14333e+02
1575	4.15378e+02	1.57500e+03	2.43531e-02	4.15000e+02
1577	4.16049e+02	1.57700e+03	2.14396e-02	4.15667e+02
1579	4.16712e+02	1.57900e+03	1.85909e-02	4.16333e+02
1581	4.17383e+02	1.58100e+03	1.60751e-02	4.17000e+02
1583	4.18052e+02	1.58300e+03	1.36110e-02	4.17667e+02
1585	4.18713e+02	1.58500e+03	1.14296e-02	4.18333e+02
1587	4.19374e+02	1.58700e+03	9.30530e-03	4.19000e+02
1589	4.20044e+02	1.58900e+03	7.43799e-03	4.19667e+02
1591	4.20715e+02	1.59100e+03	5.61637e-03	4.20333e+02
1593	4.21380e+02	1.59300e+03	4.01645e-03	4.21000e+02
1595	4.22043e+02	1.59500e+03	2.44816e-03	4.21667e+02
1597	4.22715e+02	1.59700e+03	1.05541e-03	4.22333e+02
1599	4.23377e+02	1.59900e+03	-3.11478e-04	4.23000e+02
1601	4.24042e+02	1.60100e+03	-1.53818e-03	4.23667e+02
1603	4.24708e+02	1.60300e+03	-2.74241e-03	4.24333e+02
1605	4.25374e+02	1.60500e+03	-3.82324e-03	4.25000e+02
1607	4.26029e+02	1.60700e+03	-4.87623e-03	4.25667e+02
1609	4.26700e+02	1.60900e+03	-5.81444e-03	4.26333e+02
1611	4.27360e+02	1.61100e+03	-6.73105e-03	4.27000e+02
1613	4.28015e+02	1.61300e+03	-7.54747e-03	4.27667e+02
1615	4.28682e+02	1.61500e+03	-8.35075e-03	4.28333e+02
1617	4.29341e+02	1.61700e+03	-9.07558e-03	4.29000e+02
1619	4.30007e+02	1.61900e+03	-9.79066e-03	4.29667e+02
1621	4.30675e+02	1.62100e+03	-1.04498e-02	4.30333e+02
1623	4.31338e+02	1.62300e+03	-1.11019e-02	4.31000e+02
1625	4.32001e+02	1.62500e+03	-1.17057e-02	4.31667e+02
1627	4.32660e+02	1.62700e+03	-1.22937e-02	4.32333e+02
1629	4.33326e+02	1.62900e+03	-1.28241e-02	4.33000e+02
1631	4.33980e+02	1.63100e+03	-1.33368e-02	4.33667e+02
1633	4.34644e+02	1.63300e+03	-1.37891e-02	4.34333e+02
1635	4.35304e+02	1.63500e+03	-1.42338e-02	4.35000e+02
1637	4.35967e+02	1.63700e+03	-1.46296e-02	4.35667e+02
1639	4.36628e+02	1.63900e+03	-1.50242e-02	4.36333e+02
1641	4.37280e+02	1.64100e+03	-1.53893e-02	4.37000e+02
1643	4.37956e+02	1.64300e+03	-1.57488e-02	4.37667e+02
1645	4.38611e+02	1.64500e+03	-1.60808e-02	4.38333e+02
1647	4.39285e+02	1.64700e+03	-1.64039e-02	4.39000e+02
1649	4.39935e+02	1.64900e+03	-1.66942e-02	4.39667e+02
1651	4.40590e+02	1.65100e+03	-1.69858e-02	4.40333e+02
1653	4.41259e+02	1.65300e+03	-1.72432e-02	4.41000e+02
1655	4.41919e+02	1.65500e+03	-1.74897e-02	4.41667e+02
1657	4.42580e+02	1.65700e+03	-1.77056e-02	4.42333e+02
1659	4.43233e+02	1.65900e+03	-1.79253e-02	4.43000e+02
1661	4.43903e+02	1.66100e+03	-1.81222e-02	4.43667e+02
1663	4.44566e+02	1.66300e+03	-1.83040e-02	4.44333e+02
1665	4.45229e+02	1.66500e+03	-1.84496e-02	4.45000e+02
1667	4.45883e+02	1.66700e+03	-1.85889e-02	4.45667e+02
1669	4.46541e+02	1.66900e+03	-1.87022e-02	4.46333e+02
1671	4.47201e+02	1.67100e+03	-1.88237e-02	4.47000e+02
1673	4.47860e+02	1.67300e+03	-1.89448e-02	4.47667e+02
1675	4.48520e+02	1.67500e+03	-1.90646e-02	4.48333e+02
1677	4.49187e+02	1.67700e+03	-1.91621e-02	4.49000e+02
1679	4.49843e+02	1.67900e+03	-1.92321e-02	4.49667e+02
1681	4.50510e+02	1.68100e+03	-1.92521e-02	4.50333e+02
1683	4.51167e+02	1.68300e+03	-1.92694e-02	4.51000e+02
1685	4.51826e+02	1.68500e+03	-1.92576e-02	4.51667e+02
1687	4.52485e+02	1.68700e+03	-1.92526e-02	4.52333e+02
1689	4.53147e+02	1.68900e+03	-1.92382e-02	4.53000e+02
1691	4.53809e+02	1.69100e+03	-1.92209e-02	4.53667e+02
1693	4.54466e+02	1.69300e+03	-1.91990e-02	4.54333e+02
1695	4.55126e+02	1.69500e+03	-1.91857e-02	4.55000e+02
1697	4.55789e+02	1.69700e+03	-1.91845e-02	4.55667e+02
1699	4.56449e+02	1.69900e+03	-1.91942e-02	4.56333e+02
1701	4.57108e+02	1.70100e+03	-1.92260e-02	4.57000e+02
1703	4.57776e+02	1.70300e+03	-1.92551e-02	4.57667e+02
1705	4.58428e+02	1.70500e+03	-1.92893e-02	4.58333e+02
1707	4.59083e+02	1.70700e+03	-1.93240e-02	4.59000e+02
1709	4.59742e+02	1.70900e+03	-1.93631e-02	4.59667e+02
1711	4.60402e+02	1.71100e+03	-1.94080e-02	4.60333e+02
1713	4.61060e+02	1.71300e+03	-1.94616e-02	4.61000e+02
1715	4.61719e+02	1.71500e+03	-1.95094e-02	4.61667e+02
1717	4.62376e+02	1.71700e+03	-1.95574e-02	4.62333e+02
1719	4.63041e+02	1.71900e+03	-1.96136e-02	4.63000e+02
1721	4.63694e+02	1.72100e+03	-1.96627e-02	4.63667e+02
1723	4.64361e+02	1.72300e+03	-1.96917e-02	4.64333e+02
1725	4.65019e+02	1.72500e+03	-1.96873e-02	4.65000e+02
1727	4.65675e+02	1.72700e+03	-1.96770e-02	4.65667e+02
1729	4.66335e+02	1.72900e+03	-1.96565e-02	4.66333e+02
1731	4.67002e+02	1.73100e+03	-1.96578e-02	4.67000e+02
1733	4.67657e+02	1.73300e+03	-1.96791e-02	4.67667e+02
1735	4.68319e+02	1.73500e+03	-1.96947e-02	4.68333e+02
1737	4.68985e+02	1.73700e+03	-1.97119e-02	4.69000e+02
1739	4.69637e+02	1.73900e+03	-1.97190e-02	4.69667e+02
1741	4.70297e+02	1.74100e+03	-1.97140e-02	4.70333e+02
1743	4.70963e+02	1.74300e+03	-1.97125e-02	4.71000e+02
1745	4.71631e+02	1.74500e+03	-1.97130e-02	4.71667e+02
1747	4.72284e+02	1.74700e+03	-1.97192e-02	4.72333e+02
1749	4.72949e+02	1.74900e+03	-1.97387e-02	4.73000e+02
1751	4.73593e+02	1.75100e+03	-1.97603e-02	4.73667e+02
1753	4.74259e+02	1.75300e+03	-1.97930e-02	4.74333e+02
1755	4.74913e+02	1.75500e+03	-1.98327e-02	4.75000e+02
1757	4.75581e+02	1.75700e+03	-1.98838e-02	4.75667e+02
1759	4.76236e+02	1.75900e+03	-1.99274e-02	4.76333e+02
1761	4.76898e+02	1.76100e+03	-1.99615e-02	4.77000e+02
1763	4.77553e+02	1.76300e+03	-1.99855e-02	4.77667e+02
1765	4.78214e+02	1.76500e+03	-1.99913e-02	4.78333e+02
1767	4.78883e+02	1.76700e+03	-1.99999e-02	4.79000e+02
1769	4.79538e+02	1.76900e+03	-2.00024e-02	4.79667e+02
1771	4.80203e+02	1.77100e+03	-2.00070e-02	4.80333e+02
1773	4.80857e+02	1.77300e+03	-2.00088e-02	4.81000e+02
1775	4.81514e+02	1.77500e+03	-2.00083e-02	4.81667e+02
1777	4.82171e+02	1.77700e+03	-2.00073e-02	4.82333e+02
1779	4.82824e+02	1.77900e+03	-2.00148e-02	4.83000e+02
1781	4.83494e+02	1.78100e+03	-2.00233e-02	4.83667e+02
1783	4.84155e+02	1.78300e+03	-2.00262e-02	4.84333e+02
1785	4.84817e+02	1.78500e+03	-2.00223e-02	4.85000e+02
1787	4.85479e+02	1.78700e+03	-2.00170e-02	4.85667e+02
1789	4.86130e+02	1.78900e+03	-2.00112e-02	4.86333e+02
1791	4.86793e+02	1.79100e+03	-2.00143e-02	4.87000e+02
1793	4.87451e+02	1.79300e+03	-2.00304e-02	4.87667e+02
1795	4.88116e+02	1.79500e+03	-2.00493e-02	4.88333e+02
1797	4.88773e+02	1.79700e+03	-2.00704e-02	4.89000e+02
1799	4.89424e+02	1.79900e+03	-2.00757e-02	4.89667e+02
1801	4.90088e+02	1.80100e+03	-2.00490e-02	4.90333e+02
1803	4.90753e+02	1.80300e+03	-2.00124e-02	4.91000e+02
1805	4.91410e+02	1.80500e+03	-1.99553e-02	4.91667e+02
1807	4.92075e+02	1.80700e+03	-1.99228e-02	4.92333e+02
1809	4.92740e+02	1.80900e+03	-1.99327e-02	4.93000e+02
1811	4.93398e+02	1.81100e+03	-1.99585e-02	4.93667e+02
1813	4.94057e+02	1.81300e+03	-2.00202e-02	4.94333e+02
1815	4.94712e+02	1.81500e+03	-2.00519e-02	4.95000e+02
1817	4.95381e+02	1.81700e+03	-2.00582e-02	4.95667e+02
1819	4.96026e+02	1.81900e+03	-2.00561e-02	4.96333e+02
1821	4.96695e+02	1.82100e+03	-2.00415e-02	4.97000e+02
1823	4.97356e+02	1.82300e+03	-2.00485e-02	4.97667e+02
1825	4.98018e+02	1.82500e+03	-2.00796e-02	4.98333e+02
1827	4.98679e+02	1.82700e+03	-2.01056e-02	4.99000e+02
1829	4.99325e+02	1.82900e+03	-2.01382e-02	4.99667e+02
1831	4.99999e+02	1.83100e+03	-2.01639e-02	5.00333e+02
1833	5.00655e+02	1.83300e+03	-2.01858e-02	5.01000e+02
1835	5.01316e+02	1.83500e+03	-2.02091e-02	5.01667e+02
1837	5.01976e+02	1.83700e+03	-2.02285e-02	5.02333e+02
1839	5.02633e+02	1.83900e+03	-2.02445e-02	5.03000e+02
1841	5.03293e+02	1.84100e+03	-2.02538e-02	5.03667e+02
1843	5.03953e+02	1.84300e+03	-2.02659e-02	5.04333e+02
1845	5.04615e+02	1.84500e+03	-2.02835e-02	5.05000e+02
1847	5.05277e+02	1.84700e+03	-2.03019e-02	5.05667e+02
1849	5.05937e+02	1.84900e+03	-2.03185e-02	5.06333e+02
1851	5.06606e+02	1.85100e+03	-2.03306e-02	5.07000e+02
1853	5.07250e+02	1.85300e+03	-2.03488e-02	5.07667e+02
1855	5.07931e+02	1.85500e+03	-2.03893e-02	5.08333e+02
1857	5.08593e+02	1.85700e+03	-2.04416e-02	5.09000e+02
1859	5.09246e+02	1.85900e+03	-2.04699e-02	5.09667e+02
1861	5.09903e+02	1.86100e+03	-2.04701e-02	5.10333e+02
1863	5.10571e+02	1.86300e+03	-2.04551e-02	5.11000e+02
1865	5.11233e+02	1.86500e+03	-2.04087e-02	5.11667e+02
1867	5.11878e+02	1.86700e+03	-2.03819e-02	5.12333e+02
1869	5.12546e+02	1.86900e+03	-2.03821e-02	5.13000e+02
1871	5.13207e+02	1.87100e+03	-2.03993e-02	5.13667e+02
1873	5.13872e+02	1.87300e+03	-2.04265e-02	5.14333e+02
1875	5.14528e+02	1.87500e+03	-2.04197e-02	5.15000e+02
1877	5.15193e+02	1.87700e+03	-2.03786e-02	5.15667e+02
1879	5.15852e+02	1.87900e+03	-2.03479e-02	5.16333e+02
1881	5.16512e+02	1.88100e+03	-2.03185e-02	5.17000e+02
1883	5.17174e+02	1.88300e+03	-2.03040e-02	5.17667e+02
1885	5.17843e+02	1.88500e+03	-2.03125e-02	5.18333e+02
1887	5.18505e+02	1.88700e+03	-2.03203e-02	5.19000e+02
1889	5.19167e+02	1.88900e+03	-2.03337e-02	5.19667e+02
1891	5.19817e+02	1.89100e+03	-2.03323e-02	5.20333e+02
1893	5.20482e+02	1.89300e+03	-2.03055e-02	5.21000e+02
1895	5.21142e+02	1.89500e+03	-2.02728e-02	5.21667e+02
1897	5.21814e+02	1.89700e+03	-2.02283e-02	5.22333e+02
1899	5.22469e+02	1.89900e+03	-2.02035e-02	5.23000e+02
1901	5.23121e+02	1.90100e+03	-2.02122e-02	5.23667e+02
1903	5.23794e+02	1.90300e+03	-2.02416e-02	5.24333e+02
1905	5.24459e+02	1.90500e+03	-2.03075e-02	5.25000e+02
1907	5.25127e+02	1.90700e+03	-2.03597e-02	5.25667e+02
1909	5.25783e+02	1.90900e+03	-2.03899e-02	5.26333e+02
1911	5.26452e+02	1.91100e+03	-2.03952e-02	5.27000e+02
1913	5.27112e+02	1.91300e+03	-2.03609e-02	5.27667e+02
1915	5.27783e+02	1.91500e+03	-2.03416e-02	5.28333e+02
1917	5.28426e+02	1.91700e+03	-2.03304e-02	5.29000e+02
1919	5.29099e+02	1.91900e+03	-2.03330e-02	5.29667e+02
1921	5.29755e+02	1.92100e+03	-2.03491e-02	5.30333e+02
1923	5.30404e+02	1.92300e+03	-2.03588e-02	5.31000e+02
1925	5.31074e+02	1.92500e+03	-2.03708e-02	5.31667e+02
1927	5.31736e+02	1.92700e+03	-2.03827e-02	5.32333e+02
1929	5.32399e+02	1.92900e+03	-2.03894e-02	5.33000e+02
1931	5.33057e+02	1.93100e+03	-2.03867e-02	5.33667e+02
1933	5.33725e+02	1.93300e+03	-2.03613e-02	5.34333e+02
1935	5.34377e+02	1.93500e+03	-2.03249e-02	5.35000e+02
1937	5.35048e+02	1.93700e+03	-2.02633e-02	5.35667e+02
1939	5.35703e+02	1.93900e+03	-2.02172e-02	5.36333e+02
1941	5.36376e+02	1.94100e+03	-2.01936e-02	5.37000e+02
1943	5.37018e+02	1.94300e+03	-2.01965e-02	5.37667e+02
1945	5.37683e+02	1.94500e+03	-2.02415e-02	5.38333e+02
1947	5.38349e+02	1.94700e+03	-2.02721e-02	5.39000e+02
1949	5.39015e+02	1.94900e+03	-2.03003e-02	5.39667e+02
1951	5.39673e+02	1.95100e+03	-2.03190e-02	5.40333e+02
1953	5.40348e+02	1.95300e+03	-2.03316e-02	5.41000e+02
1955	5.41004e+02	1.95500e+03	-2.03590e-02	5.41667e+02
1957	5.41659e+02	1.95700e+03	-2.03995e-02	5.42333e+02
1959	5.42327e+02	1.95900e+03	-2.04307e-02	5.43000e+02
1961	5.43000e+02	1.96100e+03	-2.04474e-02	5.43667e+02
1963	5.43657e+02	1.96300e+03	-2.04517e-02	5.44333e+02
1965	5.44312e+02	1.96500e+03	-2.04337e-02	5.45000e+02
1967	5.44974e+02	1.96700e+03	-2.04229e-02	5.45667e+02
1969	5.45637e+02	1.96900e+03	-2.04134e-02	5.46333e+02
1971	5.46312e+02	1.97100e+03	-2.04084e-02	5.47000e+02
1973	5.46961e+02	1.97300e+03	-2.04169e-02	5.47667e+02
1975	5.47629e+02	1.97500e+03	-2.04307e-02	5.48333e+02
1977	5.48293e+02	1.97700e+03	-2.04546e-02	5.49000e+02
1979	5.48949e+02	1.97900e+03	-2.04755e-02	5.49667e+02
1981	5.49621e+02	1.98100e+03	-2.04921e-02	5.50333e+02
1983	5.50284e+02	1.98300e+03	-2.05064e-02	5.51000e+02
1985	5.50939e+02	1.98500e+03	-2.05281e-02	5.51667e+02
1987	5.51612e+02	1.98700e+03	-2.05624e-02	5.52333e+02
1989	5.52275e+02	1.98900e+03	-2.05978e-02	5.53000e+02
1991	5.52941e+02	1.99100e+03	-2.06163e-02	5.53667e+02
1993	5.53592e+02	1.99300e+03	-2.06116e-02	5.54333e+02
1995	5.54266e+02	1.99500e+03	-2.06089e-02	5.55000e+02
1997	5.54911e+02	1.99700e+03	-2.05925e-02	5.55667e+02
1999	5.55589e+02	1.99900e+03	-2.05820e-02	5.56333e+02
2001	5.56253e+02	2.00100e+03	-2.05667e-02	5.57000e+02
2003	5.56915e+02	2.00300e+03	-2.05491e-02	5.57667e+02
2005	5.57576e+02	2.00500e+03	-2.05287e-02	5.58333e+02
2007	5.58240e+02	2.00700e+03	-2.05144e-02	5.59000e+02
2009	5.58902e+02	2.00900e+03	-2.05030e-02	5.59667e+02
2011	5.59566e+02	2.01100e+03	-2.04889e-02	5.60333e+02
2013	5.60228e+02	2.01300e+03	-2.04785e-02	5.61000e+02
2015	5.60899e+02	2.01500e+03	-2.04738e-02	5.61667e+02
2017	5.61555e+02	2.01700e+03	-2.04735e-02	5.62333e+02
2019	5.62220e+02	2.01900e+03	-2.04717e-02	5.63000e+02
2021	5.62880e+02	2.02100e+03	-2.04640e-02	5.63667e+02
2023	5.63548e+02	2.02300e+03	-2.04541e-02	5.64333e+02
2025	5.64208e+02	2.02500e+03	-2.04400e-02	5.65000e+02
2027	5.64868e+02	2.02700e+03	-2.04342e-02	5.65667e+02
2029	5.65528e+02	2.02900e+03	-2.04319e-02	5.66333e+02
2031	5.66191e+02	2.03100e+03	-2.04319e-02	5.67000e+02
2033	5.66863e+02	2.03300e+03	-2.04300e-02	5.67667e+02
2035	5.67529e+02	2.03500e+03	-2.04292e-02	5.68333e+02
2037	5.68183e+02	2.03700e+03	-2.04374e-02	5.69000e+02
2039	5.68846e+02	2.03900e+03	-2.04538e-02	5.69667e+02
2041	5.69512e+02	2.04100e+03	-2.04664e-02	5.70333e+02
2043	5.70177e+02	2.04300e+03	-2.04659e-02	5.71000e+02
2045	5.70842e+02	2.04500e+03	-2.04483e-02	5.71667e+02
2047	5.71497e+02	2.04700e+03	-2.04377e-02	5.72333e+02
2049	5.72171e+02	2.04900e+03	-2.04321e-02	5.73000e+02
2051	5.72823e+02	2.05100e+03	-2.04310e-02	5.73667e+02
2053	5.73493e+02	2.05300e+03	-2.04460e-02	5.74333e+02
2055	5.74156e+02	2.05500e+03	-2.04708e-02	5.75000e+02
2057	5.74818e+02	2.05700e+03	-2.05136e-02	5.75667e+02
2059	5.75480e+02	2.05900e+03	-2.05520e-02	5.76333e+02
2061	5.76153e+02	2.06100e+03	-2.05907e-02	5.77000e+02
2063	5.76804e+02	2.06300e+03	-2.06182e-02	5.77667e+02
2065	5.77471e+02	2.06500e+03	-2.06161e-02	5.78333e+02
2067	5.78131e+02	2.06700e+03	-2.06009e-02	5.79000e+02
2069	5.78806e+02	2.06900e+03	-2.05643e-02	5.79667e+02
2071	5.79458e+02	2.07100e+03	-2.05369e-02	5.80333e+02
2073	5.80131e+02	2.07300e+03	-2.05145e-02	5.81000e+02
2075	5.80787e+02	2.07500e+03	-2.04959e-02	5.81667e+02
2077	5.81456e+02	2.07700e+03	-2.04840e-02	5.82333e+02
2079	5.82111e+02	2.07900e+03	-2.04668e-02	5.83000e+02
2081	5.82793e+02	2.08100e+03	-2.04558e-02	5.83667e+02
2083	5.83464e+02	2.08300e+03	-2.04504e-02	5.84333e+02
2085	5.84119e+02	2.08500e+03	-2.04537e-02	5.85000e+02
2087	5.84781e+02	2.08700e+03	-2.04633e-02	5.85667e+02
2089	5.85441e+02	2.08900e+03	-2.04846e-02	5.86333e+02
2091	5.86108e+02	2.09100e+03	-2.05021e-02	5.87000e+02
2093	5.86761e+02	2.09300e+03	-2.05136e-02	5.87667e+02
2095	5.87436e+02	2.09500e+03	-2.05202e-02	5.88333e+02
2097	5.88097e+02	2.09700e+03	-2.05272e-02	5.89000e+02
2099	5.88760e+02	2.09900e+03	-2.05485e-02	5.89667e+02
2101	5.89426e+02	2.10100e+03	-2.05795e-02	5.90333e+02
2103	5.90094e+02	2.10300e+03	-2.05954e-02	5.91000e+02
2105	5.90748e+02	2.10500e+03	-2.05960e-02	5.91667e+02
2107	5.91414e+02	2.10700e+03	-2.05932e-02	5.92333e+02
2109	5.92077e+02	2.10900e+03	-2.05815e-02	5.93000e+02
2111	5.92754e+02	2.11100e+03	-2.05783e-02	5.93667e+02
2113	5.93407e+02	2.11300e+03	-2.05918e-02	5.94333e+02
2115	5.94071e+02	2.11500e+03	-2.06091e-02	5.95000e+02
2117	5.94729e+02	2.11700e+03	-2.06264e-02	5.95667e+02
2119	5.95397e+02	2.11900e+03	-2.06327e-02	5.96333e+02
2121	5.96062e+02	2.12100e+03	-2.06307e-02	5.97000e+02
2123	5.96729e+02	2.12300e+03	-2.06405e-02	5.97667e+02
2125	5.97379e+02	2.12500e+03	-2.06575e-02	5.98333e+02
2127	5.98046e+02	2.12700e+03	-2.06722e-02	5.99000e+02
2129	5.98710e+02	2.12900e+03	-2.06839e-02	5.99667e+02
2131	5.99381e+02	2.13100e+03	-2.06834e-02	6.00333e+02
2133	6.00042e+02	2.13300e+03	-2.06615e-02	6.01000e+02
2135	6.00708e+02	2.13500e+03	-2.06339e-02	6.01667e+02
2137	6.01377e+02	2.13700e+03	-2.05931e-02	6.02333e+02
2139	6.02045e+02	2.13900e+03	-2.05674e-02	6.03000e+02
2141	6.02709e+02	2.14100e+03	-2.05531e-02	6.03667e+02
2143	6.03364e+02	2.14300e+03	-2.05353e-02	6.04333e+02
2145	6.04030e+02	2.14500e+03	-2.05194e-02	6.05000e+02
2147	6.04694e+02	2.14700e+03	-2.05084e-02	6.05667e+02
2149	6.05361e+02	2.14900e+03	-2.05130e-02	6.06333e+02
2151	6.06011e+02	2.15100e+03	-2.05310e-02	6.07000e+02
2153	6.06689e+02	2.15300e+03	-2.05654e-02	6.07667e+02
2155	6.07354e+02	2.15500e+03	-2.05800e-02	6.08333e+02
2157	6.08013e+02	2.15700e+03	-2.05780e-02	6.09000e+02
2159	6.08675e+02	2.15900e+03	-2.05776e-02	6.09667e+02
2161	6.09339e+02	2.16100e+03	-2.05694e-02	6.10333e+02
2163	6.10004e+02	2.16300e+03	-2.05718e-02	6.11000e+02
2165	6.10674e+02	2.16500e+03	-2.05882e-02	6.11667e+02
2167	6.11336e+02	2.16700e+03	-2.06032e-02	6.12333e+02
2169	6.11999e+02	2.16900e+03	-2.06076e-02	6.13000e+02
2171	6.12654e+02	2.17100e+03	-2.05925e-02	6.13667e+02
2173	6.13318e+02	2.17300e+03	-2.05589e-02	6.14333e+02
2175	6.13991e+02	2.17500e+03	-2.05450e-02	6.15000e+02
2177	6.14662e+02	2.17700e+03	-2.05311e-02	6.15667e+02
2179	6.15322e+02	2.17900e+03	-2.05099e-02	6.16333e+02
2181	6.15986e+02	2.18100e+03	-2.04911e-02	6.17000e+02
2183	6.16652e+02	2.18300e+03	-2.04805e-02	6.17667e+02
2185	6.17318e+02	2.18500e+03	-2.04926e-02	6.18333e+02
2187	6.17978e+02	2.18700e+03	-2.05218e-02	6.19000e+02
2189	6.18655e+02	2.18900e+03	-2.05776e-02	6.19667e+02
2191	6.19305e+02	2.19100e+03	-2.06230e-02	6.20333e+02
2193	6.19970e+02	2.19300e+03	-2.06604e-02	6.21000e+02
2195	6.20638e+02	2.19500e+03	-2.06872e-02	6.21667e+02
2197	6.21309e+02	2.19700e+03	-2.06896e-02	6.22333e+02
2199	6.21969e+02	2.19900e+03	-2.06780e-02	6.23000e+02
2201	6.22627e+02	2.20100e+03	-2.06385e-02	6.23667e+02
2203	6.23291e+02	2.20300e+03	-2.05992e-02	6.24333e+02
2205	6.23966e+02	2.20500e+03	-2.05608e-02	6.25000e+02
2207	6.24628e+02	2.20700e+03	-2.05467e-02	6.25667e+02
2209	6.25295e+02	2.20900e+03	-2.05713e-02	6.26333e+02
2211	6.25953e+02	2.21100e+03	-2.05934e-02	6.27000e+02
2213	6.26624e+02	2.21300e+03	-2.06159e-02	6.27667e+02
2215	6.27283e+02	2.21500e+03	-2.06171e-02	6.28333e+02
2217	6.27943e+02	2.21700e+03	-2.05985e-02	6.29000e+02
2219	6.28606e+02	2.21900e+03	-2.05945e-02	6.29667e+02
2221	6.29279e+02	2.22100e+03	-2.06034e-02	6.30333e+02
2223	6.29947e+02	2.22300e+03	-2.06192e-02	6.31000e+02
2225	6.30607e+02	2.22500e+03	-2.06421e-02	6.31667e+02
2227	6.31278e+02	2.22700e+03	-2.06423e-02	6.32333e+02
2229	6.31939e+02	2.22900e+03	-2.06182e-02	6.33000e+02
2231	6.32605e+02	2.23100e+03	-2.05949e-02	6.33667e+02
2233	6.33275e+02	2.23300e+03	-2.05696e-02	6.34333e+02
2235	6.33937e+02	2.23500e+03	-2.05552e-02	6.35000e+02
2237	6.34608e+02	2.23700e+03	-2.05550e-02	6.35667e+02
2239	6.35273e+02	2.23900e+03	-2.05518e-02	6.36333e+02
2241	6.35940e+02	2.24100e+03	-2.05631e-02	6.37000e+02
2243	6.36607e+02	2.24300e+03	-2.05866e-02	6.37667e+02
2245	6.37278e+02	2.24500e+03	-2.06279e-02	6.38333e+02
2247	6.37943e+02	2.24700e+03	-2.06602e-02	6.39000e+02
2249	6.38607e+02	2.24900e+03	-2.06873e-02	6.39667e+02
2251	6.39276e+02	2.25100e+03	-2.07052e-02	6.40333e+02
2253	6.39935e+02	2.25300e+03	-2.06984e-02	6.41000e+02
2255	6.40595e+02	2.25500e+03	-2.06859e-02	6.41667e+02
2257	6.41267e+02	2.25700e+03	-2.06586e-02	6.42333e+02
2259	6.41922e+02	2.25900e+03	-2.06397e-02	6.43000e+02
2261	6.42597e+02	2.26100e+03	-2.06299e-02	6.43667e+02
2263	6.43259e+02	2.26300e+03	-2.06187e-02	6.44333e+02
2265	6.43923e+02	2.26500e+03	-2.06275e-02	6.45000e+02
2267	6.44585e+02	2.26700e+03	-2.06437e-02	6.45667e+02
2269	6.45252e+02	2.26900e+03	-2.06712e-02	6.46333e+02
2271	6.45916e+02	2.27100e+03	-2.06882e-02	6.47000e+02
2273	6.46586e+02	2.27300e+03	-2.07019e-02	6.47667e+02
2275	6.47241e+02	2.27500e+03	-2.07147e-02	6.48333e+02
2277	6.47925e+02	2.27700e+03	-2.07222e-02	6.49000e+02
2279	6.48586e+02	2.27900e+03	-2.07182e-02	6.49667e+02
2281	6.49253e+02	2.28100e+03	-2.06952e-02	6.50333e+02
2283	6.49917e+02	2.28300e+03	-2.06669e-02	6.51000e+02
2285	6.50569e+02	2.28500e+03	-2.06316e-02	6.51667e+02
2287	6.51243e+02	2.28700e+03	-2.06124e-02	6.52333e+02
2289	6.51908e+02	2.28900e+03	-2.06063e-02	6.53000e+02
2291	6.52567e+02	2.29100e+03	-2.05973e-02	6.53667e+02
2293	6.53238e+02	2.29300e+03	-2.05970e-02	6.54333e+02
2295	6.53913e+02	2.29500e+03	-2.06020e-02	6.55000e+02
2297	6.54562e+02	2.29700e+03	-2.06098e-02	6.55667e+02
2299	6.55240e+02	2.29900e+03	-2.06055e-02	6.56333e+02
2301	6.55891e+02	2.30100e+03	-2.05888e-02	6.57000e+02
2303	6.56579e+02	2.30300e+03	-2.05775e-02	6.57667e+02
2305	6.57233e+02	2.30500e+03	-2.05611e-02	6.58333e+02
2307	6.57909e+02	2.30700e+03	-2.05551e-02	6.59000e+02
2309	6.58561e+02	2.30900e+03	-2.05631e-02	6.59667e+02
2311	6.59232e+02	2.31100e+03	-2.05687e-02	6.60333e+02
2313	6.59888e+02	2.31300e+03	-2.05571e-02	6.61000e+02
2315	6.60565e+02	2.31500e+03	-2.05270e-02	6.61667e+02
2317	6.61218e+02	2.31700e+03	-2.04799e-02	6.62333e+02
2319	6.61888e+02	2.31900e+03	-2.04655e-02	6.63000e+02
2321	6.62549e+02	2.32100e+03	-2.04888e-02	6.63667e+02
2323	6.63208e+02	2.32300e+03	-2.05281e-02	6.64333e+02
2325	6.63875e+02	2.32500e+03	-2.05978e-02	6.65000e+02
2327	6.64543e+02	2.32700e+03	-2.06480e-02	6.65667e+02
2329	6.65203e+02	2.32900e+03	-2.06728e-02	6.66333e+02
2331	6.65873e+02	2.33100e+03	-2.06854e-02	6.67000e+02
2333	6.66527e+02	2.33300e+03	-2.06697e-02	6.67667e+02
2335	6.67197e+02	2.33500e+03	-2.06697e-02	6.68333e+02
2337	6.67865e+02	2.33700e+03	-2.06642e-02	6.69000e+02
2339	6.68537e+02	2.33900e+03	-2.06495e-02	6.69667e+02
2341	6.69201e+02	2.34100e+03	-2.06317e-02	6.70333e+02
2343	6.69858e+02	2.34300e+03	-2.06287e-02	6.71000e+02
2345	6.70531e+02	2.34500e+03	-2.06373e-02	6.71667e+02
2347	6.71190e+02	2.34700e+03	-2.06392e-02	6.72333e+02
2349	6.71862e+02	2.34900e+03	-2.06406e-02	6.73000e+02
2351	6.72520e+02	2.35100e+03	-2.06339e-02	6.73667e+02
2353	6.73194e+02	2.35300e+03	-2.06036e-02	6.74333e+02
2355	6.73854e+02	2.35500e+03	-2.05850e-02	6.75000e+02
2357	6.74526e+02	2.35700e+03	-2.05779e-02	6.75667e+02
2359	6.75184e+02	2.35900e+03	-2.05854e-02	6.76333e+02
2361	6.75855e+02	2.36100e+03	-2.06170e-02	6.77000e+02
2363	6.76518e+02	2.36300e+03	-2.06389e-02	6.77667e+02
2365	6.77185e+02	2.36500e+03	-2.06611e-02	6.78333e+02
2367	6.77852e+02	2.36700e+03	-2.06813e-02	6.79000e+02
2369	6.78516e+02	2.36900e+03	-2.07003e-02	6.79667e+02
2371	6.79177e+02	2.37100e+03	-2.07268e-02	6.80333e+02
2373	6.79855e+02	2.37300e+03	-2.07712e-02	6.81000e+02
2375	6.80514e+02	2.37500e+03	-2.08114e-02	6.81667e+02
2377	6.81196e+02	2.37700e+03	-2.08277e-02	6.82333e+02
2379	6.81853e+02	2.37900e+03	-2.08102e-02	6.83000e+02
2381	6.82527e+02	2.38100e+03	-2.07513e-02	6.83667e+02
2383	6.83189e+02	2.38300e+03	-2.07237e-02	6.84333e+02
2385	6.83863e+02	2.38500e+03	-2.07212e-02	6.85000e+02
2387	6.84521e+02	2.38700e+03	-2.07261e-02	6.85667e+02
2389	6.85184e+02	2.38900e+03	-2.07553e-02	6.86333e+02
2391	6.85857e+02	2.39100e+03	-2.07753e-02	6.87000e+02
2393	6.86515e+02	2.39300e+03	-2.07950e-02	6.87667e+02
2395	6.87193e+02	2.39500e+03	-2.08137e-02	6.88333e+02
2397	6.87851e+02	2.39700e+03	-2.08291e-02	6.89000e+02
2399	6.88525e+02	2.39900e+03	-2.08432e-02	6.89667e+02
2401	6.89191e+02	2.40100e+03	-2.08559e-02	6.90333e+02
2403	6.89854e+02	2.40300e+03	-2.08778e-02	6.91000e+02
2405	6.90337e+02	2.40500e+03	-2.09139e-02	6.91667e+02
2407	6.90654e+02	2.40700e+03	-2.09486e-02	6.92333e+02
2409	6.91154e+02	2.40900e+03	-2.09748e-02	6.93000e+02
2411	6.91625e+02	2.41100e+03	-2.09805e-02	6.93667e+02
2413	6.92073e+02	2.41300e+03	-2.09577e-02	6.94333e+02
2415	6.92489e+02	2.41500e+03	-2.09595e-02	6.95000e+02
2417	6.92865e+02	2.41700e+03	-2.09637e-02	6.95667e+02
2419	6.93234e+02	2.41900e+03	-2.09633e-02	6.96333e+02
2421	6.93575e+02	2.42100e+03	-2.09518e-02	6.97000e+02
2423	6.93893e+02	2.42300e+03	-2.09286e-02	6.97667e+02
2425	6.94191e+02	2.42500e+03	-2.08912e-02	6.98333e+02
2427	6.94482e+02	2.42700e+03	-2.08628e-02	6.99000e+02
2429	6.94737e+02	2.42900e+03	-2.08407e-02	6.99667e+02
2430	6.94878e+02	2.43000e+03	-2.08291e-02	7.00000e+02