File: Experiments/TGA/TUBS/tga_nonisotherm/tga_dynamic_n2_dyn10_powder_3mg_r2.txt
index	ts	t	weight	tr
[#]	[°C]	[s]	[mg]	[°C]
843	1.30879e+02	8.43000e+02	2.98602e+00	1.30500e+02
847	1.31551e+02	8.47000e+02	2.98596e+00	1.31167e+02
851	1.32226e+02	8.51000e+02	2.98582e+00	1.31833e+02
855	1.32907e+02	8.55000e+02	2.98570e+00	1.32500e+02
859	1.33586e+02	8.59000e+02	2.98550e+00	1.33167e+02
863	1.34266e+02	8.63000e+02	2.98519e+00	1.33833e+02
867	1.34945e+02	8.67000e+02	2.98500e+00	1.34500e+02
871	1.35615e+02	8.71000e+02	2.98486e+00	1.35167e+02
875	1.36284e+02	8.75000e+02	2.98468e+00	1.35833e+02
879	1.36964e+02	8.79000e+02	2.98468e+00	1.36500e+02
883	1.37644e+02	8.83000e+02	2.98459e+00	1.37167e+02
887	1.38328e+02	8.87000e+02	2.98403e+00	1.37833e+02
891	1.39005e+02	8.91000e+02	2.98358e+00	1.38500e+02
895	1.39673e+02	8.95000e+02	2.98355e+00	1.39167e+02
899	1.40347e+02	8.99000e+02	2.98347e+00	1.39833e+02
903	1.41033e+02	9.03000e+02	2.98325e+00	1.40500e+02
907	1.41704e+02	9.07000e+02	2.98295e+00	1.41167e+02
911	1.42394e+02	9.11000e+02	2.98267e+00	1.41833e+02
915	1.43058e+02	9.15000e+02	2.98246e+00	1.42500e+02
919	1.43728e+02	9.19000e+02	2.98220e+00	1.43167e+02
923	1.44413e+02	9.23000e+02	2.98172e+00	1.43833e+02
927	1.45086e+02	9.27000e+02	2.98152e+00	1.44500e+02
931	1.45759e+02	9.31000e+02	2.98174e+00	1.45167e+02
935	1.46444e+02	9.35000e+02	2.98146e+00	1.45833e+02
939	1.47121e+02	9.39000e+02	2.98098e+00	1.46500e+02
943	1.47792e+02	9.43000e+02	2.98064e+00	1.47167e+02
947	1.48470e+02	9.47000e+02	2.97983e+00	1.47833e+02
951	1.49161e+02	9.51000e+02	2.97922e+00	1.48500e+02
955	1.49833e+02	9.55000e+02	2.97935e+00	1.49167e+02
959	1.50507e+02	9.59000e+02	2.97892e+00	1.49833e+02
963	1.51186e+02	9.63000e+02	2.97793e+00	1.50500e+02
967	1.51864e+02	9.67000e+02	2.97754e+00	1.51167e+02
971	1.52539e+02	9.71000e+02	2.97757e+00	1.51833e+02
975	1.53235e+02	9.75000e+02	2.97742e+00	1.52500e+02
979	1.53897e+02	9.79000e+02	2.97675e+00	1.53167e+02
983	1.54571e+02	9.83000e+02	2.97604e+00	1.53833e+02
987	1.55253e+02	9.87000e+02	2.97560e+00	1.54500e+02
991	1.55930e+02	9.91000e+02	2.97524e+00	1.55167e+02
995	1.56607e+02	9.95000e+02	2.97489e+00	1.55833e+02
999	1.57278e+02	9.99000e+02	2.97457e+00	1.56500e+02
1003	1.57965e+02	1.00300e+03	2.97414e+00	1.57167e+02
1007	1.58641e+02	1.00700e+03	2.97349e+00	1.57833e+02
1011	1.59312e+02	1.01100e+03	2.97297e+00	1.58500e+02
1015	1.59984e+02	1.01500e+03	2.97258e+00	1.59167e+02
1019	1.60669e+02	1.01900e+03	2.97208e+00	1.59833e+02
1023	1.61344e+02	1.02300e+03	2.97158e+00	1.60500e+02
1027	1.62021e+02	1.02700e+03	2.97105e+00	1.61167e+02
1031	1.62683e+02	1.03100e+03	2.97049e+00	1.61833e+02
1035	1.63367e+02	1.03500e+03	2.96985e+00	1.62500e+02
1039	1.64052e+02	1.03900e+03	2.96909e+00	1.63167e+02
1043	1.64722e+02	1.04300e+03	2.96830e+00	1.63833e+02
1047	1.65389e+02	1.04700e+03	2.96754e+00	1.64500e+02
1051	1.66079e+02	1.05100e+03	2.96677e+00	1.65167e+02
1055	1.66743e+02	1.05500e+03	2.96596e+00	1.65833e+02
1059	1.67430e+02	1.05900e+03	2.96506e+00	1.66500e+02
1063	1.68094e+02	1.06300e+03	2.96407e+00	1.67167e+02
1067	1.68777e+02	1.06700e+03	2.96306e+00	1.67833e+02
1071	1.69465e+02	1.07100e+03	2.96207e+00	1.68500e+02
1075	1.70131e+02	1.07500e+03	2.96098e+00	1.69167e+02
1079	1.70812e+02	1.07900e+03	2.95975e+00	1.69833e+02
1083	1.71493e+02	1.08300e+03	2.95843e+00	1.70500e+02
1087	1.72168e+02	1.08700e+03	2.95702e+00	1.71167e+02
1091	1.72843e+02	1.09100e+03	2.95548e+00	1.71833e+02
1095	1.73517e+02	1.09500e+03	2.95386e+00	1.72500e+02
1099	1.74205e+02	1.09900e+03	2.95225e+00	1.73167e+02
1103	1.74876e+02	1.10300e+03	2.95093e+00	1.73833e+02
1107	1.75547e+02	1.10700e+03	2.94917e+00	1.74500e+02
1111	1.76224e+02	1.11100e+03	2.94648e+00	1.75167e+02
1115	1.76896e+02	1.11500e+03	2.94410e+00	1.75833e+02
1119	1.77578e+02	1.11900e+03	2.94230e+00	1.76500e+02
1123	1.78256e+02	1.12300e+03	2.94046e+00	1.77167e+02
1127	1.78935e+02	1.12700e+03	2.93875e+00	1.77833e+02
1131	1.79618e+02	1.13100e+03	2.93672e+00	1.78500e+02
1135	1.80283e+02	1.13500e+03	2.93413e+00	1.79167e+02
1139	1.80972e+02	1.13900e+03	2.93157e+00	1.79833e+02
1143	1.81631e+02	1.14300e+03	2.92909e+00	1.80500e+02
1147	1.82318e+02	1.14700e+03	2.92657e+00	1.81167e+02
1151	1.83004e+02	1.15100e+03	2.92397e+00	1.81833e+02
1155	1.83670e+02	1.15500e+03	2.92136e+00	1.82500e+02
1159	1.84340e+02	1.15900e+03	2.91884e+00	1.83167e+02
1163	1.85018e+02	1.16300e+03	2.91638e+00	1.83833e+02
1167	1.85693e+02	1.16700e+03	2.91403e+00	1.84500e+02
1171	1.86382e+02	1.17100e+03	2.91171e+00	1.85167e+02
1175	1.87061e+02	1.17500e+03	2.90938e+00	1.85833e+02
1179	1.87729e+02	1.17900e+03	2.90711e+00	1.86500e+02
1183	1.88410e+02	1.18300e+03	2.90491e+00	1.87167e+02
1187	1.89080e+02	1.18700e+03	2.90277e+00	1.87833e+02
1191	1.89769e+02	1.19100e+03	2.90070e+00	1.88500e+02
1195	1.90439e+02	1.19500e+03	2.89874e+00	1.89167e+02
1199	1.91124e+02	1.19900e+03	2.89692e+00	1.89833e+02
1203	1.91803e+02	1.20300e+03	2.89527e+00	1.90500e+02
1207	1.92472e+02	1.20700e+03	2.89372e+00	1.91167e+02
1211	1.93150e+02	1.21100e+03	2.89211e+00	1.91833e+02
1215	1.93825e+02	1.21500e+03	2.89049e+00	1.92500e+02
1219	1.94501e+02	1.21900e+03	2.88897e+00	1.93167e+02
1223	1.95185e+02	1.22300e+03	2.88770e+00	1.93833e+02
1227	1.95861e+02	1.22700e+03	2.88654e+00	1.94500e+02
1231	1.96541e+02	1.23100e+03	2.88534e+00	1.95167e+02
1235	1.97209e+02	1.23500e+03	2.88418e+00	1.95833e+02
1239	1.97883e+02	1.23900e+03	2.88337e+00	1.96500e+02
1243	1.98555e+02	1.24300e+03	2.88278e+00	1.97167e+02
1247	1.99232e+02	1.24700e+03	2.88206e+00	1.97833e+02
1251	1.99907e+02	1.25100e+03	2.88127e+00	1.98500e+02
1255	2.00588e+02	1.25500e+03	2.88052e+00	1.99167e+02
1259	2.01262e+02	1.25900e+03	2.87977e+00	1.99833e+02
1263	2.01926e+02	1.26300e+03	2.87907e+00	2.00500e+02
1267	2.02592e+02	1.26700e+03	2.87845e+00	2.01167e+02
1271	2.03277e+02	1.27100e+03	2.87790e+00	2.01833e+02
1275	2.03947e+02	1.27500e+03	2.87742e+00	2.02500e+02
1279	2.04631e+02	1.27900e+03	2.87688e+00	2.03167e+02
1283	2.05289e+02	1.28300e+03	2.87616e+00	2.03833e+02
1287	2.05965e+02	1.28700e+03	2.87505e+00	2.04500e+02
1291	2.06639e+02	1.29100e+03	2.87428e+00	2.05167e+02
1295	2.07300e+02	1.29500e+03	2.87417e+00	2.05833e+02
1299	2.07976e+02	1.29900e+03	2.87393e+00	2.06500e+02
1303	2.08645e+02	1.30300e+03	2.87365e+00	2.07167e+02
1307	2.09321e+02	1.30700e+03	2.87346e+00	2.07833e+02
1311	2.10004e+02	1.31100e+03	2.87338e+00	2.08500e+02
1315	2.10674e+02	1.31500e+03	2.87343e+00	2.09167e+02
1319	2.11350e+02	1.31900e+03	2.87353e+00	2.09833e+02
1323	2.12012e+02	1.32300e+03	2.87345e+00	2.10500e+02
1327	2.12704e+02	1.32700e+03	2.87278e+00	2.11167e+02
1331	2.13368e+02	1.33100e+03	2.87173e+00	2.11833e+02
1335	2.14036e+02	1.33500e+03	2.87084e+00	2.12500e+02
1339	2.14703e+02	1.33900e+03	2.87015e+00	2.13167e+02
1343	2.15369e+02	1.34300e+03	2.86951e+00	2.13833e+02
1347	2.16047e+02	1.34700e+03	2.86886e+00	2.14500e+02
1351	2.16701e+02	1.35100e+03	2.86824e+00	2.15167e+02
1355	2.17375e+02	1.35500e+03	2.86765e+00	2.15833e+02
1359	2.18043e+02	1.35900e+03	2.86699e+00	2.16500e+02
1363	2.18720e+02	1.36300e+03	2.86656e+00	2.17167e+02
1367	2.19382e+02	1.36700e+03	2.86637e+00	2.17833e+02
1371	2.20056e+02	1.37100e+03	2.86577e+00	2.18500e+02
1375	2.20733e+02	1.37500e+03	2.86519e+00	2.19167e+02
1379	2.21418e+02	1.37900e+03	2.86494e+00	2.19833e+02
1383	2.22078e+02	1.38300e+03	2.86453e+00	2.20500e+02
1387	2.22750e+02	1.38700e+03	2.86404e+00	2.21167e+02
1391	2.23432e+02	1.39100e+03	2.86358e+00	2.21833e+02
1395	2.24111e+02	1.39500e+03	2.86318e+00	2.22500e+02
1399	2.24787e+02	1.39900e+03	2.86284e+00	2.23167e+02
1403	2.25465e+02	1.40300e+03	2.86246e+00	2.23833e+02
1407	2.26127e+02	1.40700e+03	2.86203e+00	2.24500e+02
1411	2.26801e+02	1.41100e+03	2.86167e+00	2.25167e+02
1415	2.27469e+02	1.41500e+03	2.86136e+00	2.25833e+02
1419	2.28154e+02	1.41900e+03	2.86095e+00	2.26500e+02
1423	2.28808e+02	1.42300e+03	2.86039e+00	2.27167e+02
1427	2.29498e+02	1.42700e+03	2.85983e+00	2.27833e+02
1431	2.30157e+02	1.43100e+03	2.85932e+00	2.28500e+02
1435	2.30843e+02	1.43500e+03	2.85879e+00	2.29167e+02
1439	2.31536e+02	1.43900e+03	2.85824e+00	2.29833e+02
1443	2.32244e+02	1.44300e+03	2.85801e+00	2.30500e+02
1447	2.32933e+02	1.44700e+03	2.85815e+00	2.31167e+02
1451	2.33620e+02	1.45100e+03	2.85826e+00	2.31833e+02
1455	2.34292e+02	1.45500e+03	2.85824e+00	2.32500e+02
1459	2.34995e+02	1.45900e+03	2.85805e+00	2.33167e+02
1463	2.35696e+02	1.46300e+03	2.85777e+00	2.33833e+02
1467	2.36413e+02	1.46700e+03	2.85759e+00	2.34500e+02
1471	2.37087e+02	1.47100e+03	2.85751e+00	2.35167e+02
1475	2.37752e+02	1.47500e+03	2.85734e+00	2.35833e+02
1479	2.38419e+02	1.47900e+03	2.85711e+00	2.36500e+02
1483	2.39092e+02	1.48300e+03	2.85688e+00	2.37167e+02
1487	2.39764e+02	1.48700e+03	2.85661e+00	2.37833e+02
1491	2.40439e+02	1.49100e+03	2.85639e+00	2.38500e+02
1495	2.41120e+02	1.49500e+03	2.85628e+00	2.39167e+02
1499	2.41790e+02	1.49900e+03	2.85619e+00	2.39833e+02
1503	2.42474e+02	1.50300e+03	2.85600e+00	2.40500e+02
1507	2.43144e+02	1.50700e+03	2.85571e+00	2.41167e+02
1511	2.43811e+02	1.51100e+03	2.85539e+00	2.41833e+02
1515	2.44504e+02	1.51500e+03	2.85511e+00	2.42500e+02
1519	2.45187e+02	1.51900e+03	2.85484e+00	2.43167e+02
1523	2.45854e+02	1.52300e+03	2.85466e+00	2.43833e+02
1527	2.46531e+02	1.52700e+03	2.85459e+00	2.44500e+02
1531	2.47190e+02	1.53100e+03	2.85440e+00	2.45167e+02
1535	2.47866e+02	1.53500e+03	2.85410e+00	2.45833e+02
1539	2.48535e+02	1.53900e+03	2.85384e+00	2.46500e+02
1543	2.49203e+02	1.54300e+03	2.85355e+00	2.47167e+02
1547	2.49860e+02	1.54700e+03	2.85323e+00	2.47833e+02
1551	2.50527e+02	1.55100e+03	2.85294e+00	2.48500e+02
1555	2.51193e+02	1.55500e+03	2.85273e+00	2.49167e+02
1559	2.51859e+02	1.55900e+03	2.85255e+00	2.49833e+02
1563	2.52510e+02	1.56300e+03	2.85235e+00	2.50500e+02
1567	2.53191e+02	1.56700e+03	2.85213e+00	2.51167e+02
1571	2.53877e+02	1.57100e+03	2.85191e+00	2.51833e+02
1575	2.54545e+02	1.57500e+03	2.85164e+00	2.52500e+02
1579	2.55218e+02	1.57900e+03	2.85129e+00	2.53167e+02
1583	2.55881e+02	1.58300e+03	2.85088e+00	2.53833e+02
1587	2.56564e+02	1.58700e+03	2.85054e+00	2.54500e+02
1591	2.57231e+02	1.59100e+03	2.85033e+00	2.55167e+02
1595	2.57891e+02	1.59500e+03	2.85016e+00	2.55833e+02
1599	2.58569e+02	1.59900e+03	2.84994e+00	2.56500e+02
1603	2.59245e+02	1.60300e+03	2.84964e+00	2.57167e+02
1607	2.59918e+02	1.60700e+03	2.84932e+00	2.57833e+02
1611	2.60576e+02	1.61100e+03	2.84892e+00	2.58500e+02
1615	2.61259e+02	1.61500e+03	2.84843e+00	2.59167e+02
1619	2.61925e+02	1.61900e+03	2.84799e+00	2.59833e+02
1623	2.62607e+02	1.62300e+03	2.84758e+00	2.60500e+02
1627	2.63287e+02	1.62700e+03	2.84712e+00	2.61167e+02
1631	2.63932e+02	1.63100e+03	2.84668e+00	2.61833e+02
1635	2.64598e+02	1.63500e+03	2.84626e+00	2.62500e+02
1639	2.65268e+02	1.63900e+03	2.84592e+00	2.63167e+02
1643	2.65939e+02	1.64300e+03	2.84553e+00	2.63833e+02
1647	2.66599e+02	1.64700e+03	2.84499e+00	2.64500e+02
1651	2.67271e+02	1.65100e+03	2.84439e+00	2.65167e+02
1655	2.67956e+02	1.65500e+03	2.84383e+00	2.65833e+02
1659	2.68618e+02	1.65900e+03	2.84321e+00	2.66500e+02
1663	2.69297e+02	1.66300e+03	2.84251e+00	2.67167e+02
1667	2.69949e+02	1.66700e+03	2.84182e+00	2.67833e+02
1671	2.70622e+02	1.67100e+03	2.84115e+00	2.68500e+02
1675	2.71278e+02	1.67500e+03	2.84042e+00	2.69167e+02
1679	2.71952e+02	1.67900e+03	2.83964e+00	2.69833e+02
1683	2.72606e+02	1.68300e+03	2.83888e+00	2.70500e+02
1687	2.73278e+02	1.68700e+03	2.83808e+00	2.71167e+02
1691	2.73947e+02	1.69100e+03	2.83722e+00	2.71833e+02
1695	2.74609e+02	1.69500e+03	2.83640e+00	2.72500e+02
1699	2.75275e+02	1.69900e+03	2.83557e+00	2.73167e+02
1703	2.75937e+02	1.70300e+03	2.83464e+00	2.73833e+02
1707	2.76607e+02	1.70700e+03	2.83361e+00	2.74500e+02
1711	2.77273e+02	1.71100e+03	2.83248e+00	2.75167e+02
1715	2.77935e+02	1.71500e+03	2.83129e+00	2.75833e+02
1719	2.78604e+02	1.71900e+03	2.83006e+00	2.76500e+02
1723	2.79275e+02	1.72300e+03	2.82886e+00	2.77167e+02
1727	2.79939e+02	1.72700e+03	2.82765e+00	2.77833e+02
1731	2.80601e+02	1.73100e+03	2.82641e+00	2.78500e+02
1735	2.81279e+02	1.73500e+03	2.82506e+00	2.79167e+02
1739	2.81939e+02	1.73900e+03	2.82364e+00	2.79833e+02
1743	2.82595e+02	1.74300e+03	2.82218e+00	2.80500e+02
1747	2.83255e+02	1.74700e+03	2.82067e+00	2.81167e+02
1751	2.83897e+02	1.75100e+03	2.81911e+00	2.81833e+02
1755	2.84555e+02	1.75500e+03	2.81749e+00	2.82500e+02
1759	2.85199e+02	1.75900e+03	2.81582e+00	2.83167e+02
1763	2.85838e+02	1.76300e+03	2.81405e+00	2.83833e+02
1767	2.86501e+02	1.76700e+03	2.81223e+00	2.84500e+02
1771	2.87147e+02	1.77100e+03	2.81029e+00	2.85167e+02
1775	2.87798e+02	1.77500e+03	2.80825e+00	2.85833e+02
1779	2.88444e+02	1.77900e+03	2.80617e+00	2.86500e+02
1783	2.89092e+02	1.78300e+03	2.80400e+00	2.87167e+02
1787	2.89735e+02	1.78700e+03	2.80169e+00	2.87833e+02
1791	2.90386e+02	1.79100e+03	2.79936e+00	2.88500e+02
1795	2.91035e+02	1.79500e+03	2.79701e+00	2.89167e+02
1799	2.91690e+02	1.79900e+03	2.79455e+00	2.89833e+02
1803	2.92345e+02	1.80300e+03	2.79204e+00	2.90500e+02
1807	2.92987e+02	1.80700e+03	2.78948e+00	2.91167e+02
1811	2.93620e+02	1.81100e+03	2.78684e+00	2.91833e+02
1815	2.94279e+02	1.81500e+03	2.78410e+00	2.92500e+02
1819	2.94932e+02	1.81900e+03	2.78134e+00	2.93167e+02
1823	2.95568e+02	1.82300e+03	2.77852e+00	2.93833e+02
1827	2.96217e+02	1.82700e+03	2.77546e+00	2.94500e+02
1831	2.96859e+02	1.83100e+03	2.77219e+00	2.95167e+02
1835	2.97500e+02	1.83500e+03	2.76893e+00	2.95833e+02
1839	2.98133e+02	1.83900e+03	2.76589e+00	2.96500e+02
1843	2.98761e+02	1.84300e+03	2.76279e+00	2.97167e+02
1847	2.99388e+02	1.84700e+03	2.75937e+00	2.97833e+02
1851	2.99998e+02	1.85100e+03	2.75585e+00	2.98500e+02
1855	3.00621e+02	1.85500e+03	2.75232e+00	2.99167e+02
1859	3.01242e+02	1.85900e+03	2.74877e+00	2.99833e+02
1863	3.01879e+02	1.86300e+03	2.74523e+00	3.00500e+02
1867	3.02532e+02	1.86700e+03	2.74167e+00	3.01167e+02
1871	3.03182e+02	1.87100e+03	2.73814e+00	3.01833e+02
1875	3.03850e+02	1.87500e+03	2.73467e+00	3.02500e+02
1879	3.04509e+02	1.87900e+03	2.73129e+00	3.03167e+02
1883	3.05172e+02	1.88300e+03	2.72798e+00	3.03833e+02
1887	3.05832e+02	1.88700e+03	2.72473e+00	3.04500e+02
1891	3.06497e+02	1.89100e+03	2.72144e+00	3.05167e+02
1895	3.07167e+02	1.89500e+03	2.71808e+00	3.05833e+02
1899	3.07822e+02	1.89900e+03	2.71478e+00	3.06500e+02
1903	3.08489e+02	1.90300e+03	2.71155e+00	3.07167e+02
1907	3.09138e+02	1.90700e+03	2.70823e+00	3.07833e+02
1911	3.09814e+02	1.91100e+03	2.70453e+00	3.08500e+02
1915	3.10466e+02	1.91500e+03	2.70085e+00	3.09167e+02
1919	3.11134e+02	1.91900e+03	2.69775e+00	3.09833e+02
1923	3.11796e+02	1.92300e+03	2.69470e+00	3.10500e+02
1927	3.12462e+02	1.92700e+03	2.69126e+00	3.11167e+02
1931	3.13128e+02	1.93100e+03	2.68762e+00	3.11833e+02
1935	3.13787e+02	1.93500e+03	2.68404e+00	3.12500e+02
1939	3.14433e+02	1.93900e+03	2.68057e+00	3.13167e+02
1943	3.15094e+02	1.94300e+03	2.67690e+00	3.13833e+02
1947	3.15762e+02	1.94700e+03	2.67299e+00	3.14500e+02
1951	3.16417e+02	1.95100e+03	2.66903e+00	3.15167e+02
1955	3.17081e+02	1.95500e+03	2.66498e+00	3.15833e+02
1959	3.17754e+02	1.95900e+03	2.66063e+00	3.16500e+02
1963	3.18413e+02	1.96300e+03	2.65615e+00	3.17167e+02
1967	3.19073e+02	1.96700e+03	2.65160e+00	3.17833e+02
1971	3.19723e+02	1.97100e+03	2.64692e+00	3.18500e+02
1975	3.20393e+02	1.97500e+03	2.64217e+00	3.19167e+02
1979	3.21051e+02	1.97900e+03	2.63721e+00	3.19833e+02
1983	3.21708e+02	1.98300e+03	2.63185e+00	3.20500e+02
1987	3.22381e+02	1.98700e+03	2.62617e+00	3.21167e+02
1991	3.23044e+02	1.99100e+03	2.62049e+00	3.21833e+02
1995	3.23705e+02	1.99500e+03	2.61466e+00	3.22500e+02
1999	3.24362e+02	1.99900e+03	2.60841e+00	3.23167e+02
2003	3.25035e+02	2.00300e+03	2.60186e+00	3.23833e+02
2007	3.25695e+02	2.00700e+03	2.59510e+00	3.24500e+02
2011	3.26353e+02	2.01100e+03	2.58801e+00	3.25167e+02
2015	3.27004e+02	2.01500e+03	2.58064e+00	3.25833e+02
2019	3.27675e+02	2.01900e+03	2.57299e+00	3.26500e+02
2023	3.28325e+02	2.02300e+03	2.56486e+00	3.27167e+02
2027	3.28985e+02	2.02700e+03	2.55633e+00	3.27833e+02
2031	3.29661e+02	2.03100e+03	2.54754e+00	3.28500e+02
2035	3.30305e+02	2.03500e+03	2.53830e+00	3.29167e+02
2039	3.30961e+02	2.03900e+03	2.52857e+00	3.29833e+02
2043	3.31629e+02	2.04300e+03	2.51872e+00	3.30500e+02
2047	3.32299e+02	2.04700e+03	2.50856e+00	3.31167e+02
2051	3.32954e+02	2.05100e+03	2.49749e+00	3.31833e+02
2055	3.33616e+02	2.05500e+03	2.48557e+00	3.32500e+02
2059	3.34274e+02	2.05900e+03	2.47348e+00	3.33167e+02
2063	3.34947e+02	2.06300e+03	2.46158e+00	3.33833e+02
2067	3.35595e+02	2.06700e+03	2.44920e+00	3.34500e+02
2071	3.36268e+02	2.07100e+03	2.43577e+00	3.35167e+02
2075	3.36918e+02	2.07500e+03	2.42148e+00	3.35833e+02
2079	3.37580e+02	2.07900e+03	2.40668e+00	3.36500e+02
2083	3.38242e+02	2.08300e+03	2.39150e+00	3.37167e+02
2087	3.38908e+02	2.08700e+03	2.37580e+00	3.37833e+02
2091	3.39571e+02	2.09100e+03	2.35951e+00	3.38500e+02
2095	3.40222e+02	2.09500e+03	2.34265e+00	3.39167e+02
2099	3.40895e+02	2.09900e+03	2.32512e+00	3.39833e+02
2103	3.41548e+02	2.10300e+03	2.30694e+00	3.40500e+02
2107	3.42200e+02	2.10700e+03	2.28818e+00	3.41167e+02
2111	3.42861e+02	2.11100e+03	2.26887e+00	3.41833e+02
2115	3.43524e+02	2.11500e+03	2.24891e+00	3.42500e+02
2119	3.44180e+02	2.11900e+03	2.22822e+00	3.43167e+02
2123	3.44852e+02	2.12300e+03	2.20694e+00	3.43833e+02
2127	3.45500e+02	2.12700e+03	2.18506e+00	3.44500e+02
2131	3.46176e+02	2.13100e+03	2.16256e+00	3.45167e+02
2135	3.46850e+02	2.13500e+03	2.13968e+00	3.45833e+02
2139	3.47512e+02	2.13900e+03	2.11647e+00	3.46500e+02
2143	3.48186e+02	2.14300e+03	2.09247e+00	3.47167e+02
2147	3.48847e+02	2.14700e+03	2.06744e+00	3.47833e+02
2151	3.49518e+02	2.15100e+03	2.04178e+00	3.48500e+02
2155	3.50180e+02	2.15500e+03	2.01576e+00	3.49167e+02
2159	3.50839e+02	2.15900e+03	1.98920e+00	3.49833e+02
2163	3.51507e+02	2.16300e+03	1.96205e+00	3.50500e+02
2167	3.52172e+02	2.16700e+03	1.93448e+00	3.51167e+02
2171	3.52839e+02	2.17100e+03	1.90645e+00	3.51833e+02
2175	3.53493e+02	2.17500e+03	1.87792e+00	3.52500e+02
2179	3.54151e+02	2.17900e+03	1.84889e+00	3.53167e+02
2183	3.54824e+02	2.18300e+03	1.81937e+00	3.53833e+02
2187	3.55483e+02	2.18700e+03	1.78942e+00	3.54500e+02
2191	3.56152e+02	2.19100e+03	1.75905e+00	3.55167e+02
2195	3.56808e+02	2.19500e+03	1.72811e+00	3.55833e+02
2199	3.57475e+02	2.19900e+03	1.69665e+00	3.56500e+02
2203	3.58134e+02	2.20300e+03	1.66478e+00	3.57167e+02
2207	3.58793e+02	2.20700e+03	1.63249e+00	3.57833e+02
2211	3.59462e+02	2.21100e+03	1.59993e+00	3.58500e+02
2215	3.60128e+02	2.21500e+03	1.56732e+00	3.59167e+02
2219	3.60785e+02	2.21900e+03	1.53461e+00	3.59833e+02
2223	3.61464e+02	2.22300e+03	1.50151e+00	3.60500e+02
2227	3.62117e+02	2.22700e+03	1.46821e+00	3.61167e+02
2231	3.62794e+02	2.23100e+03	1.43487e+00	3.61833e+02
2235	3.63460e+02	2.23500e+03	1.40128e+00	3.62500e+02
2239	3.64131e+02	2.23900e+03	1.36703e+00	3.63167e+02
2243	3.64790e+02	2.24300e+03	1.33220e+00	3.63833e+02
2247	3.65466e+02	2.24700e+03	1.29734e+00	3.64500e+02
2251	3.66130e+02	2.25100e+03	1.26263e+00	3.65167e+02
2255	3.66799e+02	2.25500e+03	1.22819e+00	3.65833e+02
2259	3.67465e+02	2.25900e+03	1.19420e+00	3.66500e+02
2263	3.68129e+02	2.26300e+03	1.16069e+00	3.67167e+02
2267	3.68808e+02	2.26700e+03	1.12695e+00	3.67833e+02
2271	3.69475e+02	2.27100e+03	1.09135e+00	3.68500e+02
2275	3.70130e+02	2.27500e+03	1.05463e+00	3.69167e+02
2279	3.70805e+02	2.27900e+03	1.01896e+00	3.69833e+02
2283	3.71474e+02	2.28300e+03	9.84339e-01	3.70500e+02
2287	3.72145e+02	2.28700e+03	9.50075e-01	3.71167e+02
2291	3.72814e+02	2.29100e+03	9.16041e-01	3.71833e+02
2295	3.73487e+02	2.29500e+03	8.82455e-01	3.72500e+02
2299	3.74163e+02	2.29900e+03	8.49504e-01	3.73167e+02
2303	3.74833e+02	2.30300e+03	8.17043e-01	3.73833e+02
2307	3.75519e+02	2.30700e+03	7.85018e-01	3.74500e+02
2311	3.76181e+02	2.31100e+03	7.53537e-01	3.75167e+02
2315	3.76867e+02	2.31500e+03	7.22635e-01	3.75833e+02
2319	3.77533e+02	2.31900e+03	6.92400e-01	3.76500e+02
2323	3.78207e+02	2.32300e+03	6.62975e-01	3.77167e+02
2327	3.78890e+02	2.32700e+03	6.34250e-01	3.77833e+02
2331	3.79560e+02	2.33100e+03	6.06045e-01	3.78500e+02
2335	3.80240e+02	2.33500e+03	5.78446e-01	3.79167e+02
2339	3.80906e+02	2.33900e+03	5.51640e-01	3.79833e+02
2343	3.81581e+02	2.34300e+03	5.25658e-01	3.80500e+02
2347	3.82259e+02	2.34700e+03	5.00426e-01	3.81167e+02
2351	3.82914e+02	2.35100e+03	4.75896e-01	3.81833e+02
2355	3.83590e+02	2.35500e+03	4.52237e-01	3.82500e+02
2359	3.84273e+02	2.35900e+03	4.29409e-01	3.83167e+02
2363	3.84946e+02	2.36300e+03	4.07067e-01	3.83833e+02
2367	3.85622e+02	2.36700e+03	3.85236e-01	3.84500e+02
2371	3.86285e+02	2.37100e+03	3.64405e-01	3.85167e+02
2375	3.86953e+02	2.37500e+03	3.44837e-01	3.85833e+02
2379	3.87641e+02	2.37900e+03	3.26014e-01	3.86500e+02
2383	3.88302e+02	2.38300e+03	3.07603e-01	3.87167e+02
2387	3.88976e+02	2.38700e+03	2.89911e-01	3.87833e+02
2391	3.89643e+02	2.39100e+03	2.73040e-01	3.88500e+02
2395	3.90308e+02	2.39500e+03	2.56824e-01	3.89167e+02
2399	3.90981e+02	2.39900e+03	2.41249e-01	3.89833e+02
2403	3.91646e+02	2.40300e+03	2.26385e-01	3.90500e+02
2407	3.92331e+02	2.40700e+03	2.12213e-01	3.91167e+02
2411	3.92985e+02	2.41100e+03	1.98722e-01	3.91833e+02
2415	3.93662e+02	2.41500e+03	1.85890e-01	3.92500e+02
2419	3.94352e+02	2.41900e+03	1.73670e-01	3.93167e+02
2423	3.95031e+02	2.42300e+03	1.62025e-01	3.93833e+02
2427	3.95712e+02	2.42700e+03	1.50957e-01	3.94500e+02
2431	3.96392e+02	2.43100e+03	1.40441e-01	3.95167e+02
2435	3.97090e+02	2.43500e+03	1.30426e-01	3.95833e+02
2439	3.97774e+02	2.43900e+03	1.20963e-01	3.96500e+02
2443	3.98461e+02	2.44300e+03	1.12034e-01	3.97167e+02
2447	3.99128e+02	2.44700e+03	1.03537e-01	3.97833e+02
2451	3.99804e+02	2.45100e+03	9.54910e-02	3.98500e+02
2455	4.00491e+02	2.45500e+03	8.80132e-02	3.99167e+02
2459	4.01152e+02	2.45900e+03	8.10562e-02	3.99833e+02
2463	4.01825e+02	2.46300e+03	7.44828e-02	4.00500e+02
2467	4.02486e+02	2.46700e+03	6.81452e-02	4.01167e+02
2471	4.03167e+02	2.47100e+03	6.21225e-02	4.01833e+02
2475	4.03828e+02	2.47500e+03	5.67511e-02	4.02500e+02
2479	4.04493e+02	2.47900e+03	5.18994e-02	4.03167e+02
2483	4.05163e+02	2.48300e+03	4.72356e-02	4.03833e+02
2487	4.05828e+02	2.48700e+03	4.27777e-02	4.04500e+02
2491	4.06482e+02	2.49100e+03	3.86508e-02	4.05167e+02
2495	4.07148e+02	2.49500e+03	3.48445e-02	4.05833e+02
2499	4.07810e+02	2.49900e+03	3.13731e-02	4.06500e+02
2503	4.08484e+02	2.50300e+03	2.82492e-02	4.07167e+02
2507	4.09149e+02	2.50700e+03	2.53496e-02	4.07833e+02
2511	4.09813e+02	2.51100e+03	2.25518e-02	4.08500e+02
2515	4.10463e+02	2.51500e+03	1.99446e-02	4.09167e+02
2519	4.11137e+02	2.51900e+03	1.76325e-02	4.09833e+02
2523	4.11800e+02	2.52300e+03	1.54528e-02	4.10500e+02
2527	4.12476e+02	2.52700e+03	1.33225e-02	4.11167e+02
2531	4.13149e+02	2.53100e+03	1.13040e-02	4.11833e+02
2535	4.13807e+02	2.53500e+03	9.46799e-03	4.12500e+02
2539	4.14475e+02	2.53900e+03	7.87962e-03	4.13167e+02
2543	4.15143e+02	2.54300e+03	6.41965e-03	4.13833e+02
2547	4.15826e+02	2.54700e+03	5.03413e-03	4.14500e+02
2551	4.16484e+02	2.55100e+03	3.79568e-03	4.15167e+02
2555	4.17147e+02	2.55500e+03	2.71346e-03	4.15833e+02
2559	4.17816e+02	2.55900e+03	1.71839e-03	4.16500e+02
2563	4.18473e+02	2.56300e+03	6.88869e-04	4.17167e+02
2567	4.19141e+02	2.56700e+03	-3.37892e-04	4.17833e+02
2571	4.19798e+02	2.57100e+03	-1.27020e-03	4.18500e+02
2575	4.20466e+02	2.57500e+03	-2.12468e-03	4.19167e+02
2579	4.21137e+02	2.57900e+03	-2.89553e-03	4.19833e+02
2583	4.21795e+02	2.58300e+03	-3.52363e-03	4.20500e+02
2587	4.22467e+02	2.58700e+03	-4.07123e-03	4.21167e+02
2591	4.23131e+02	2.59100e+03	-4.60112e-03	4.21833e+02
2595	4.23795e+02	2.59500e+03	-5.09194e-03	4.22500e+02
2599	4.24461e+02	2.59900e+03	-5.56041e-03	4.23167e+02
2603	4.25106e+02	2.60300e+03	-6.04491e-03	4.23833e+02
2607	4.25760e+02	2.60700e+03	-6.54368e-03	4.24500e+02
2611	4.26426e+02	2.61100e+03	-6.99146e-03	4.25167e+02
2615	4.27095e+02	2.61500e+03	-7.34668e-03	4.25833e+02
2619	4.27739e+02	2.61900e+03	-7.58339e-03	4.26500e+02
2623	4.28397e+02	2.62300e+03	-7.72197e-03	4.27167e+02
2627	4.29042e+02	2.62700e+03	-7.86662e-03	4.27833e+02
2631	4.29703e+02	2.63100e+03	-8.04236e-03	4.28500e+02
2635	4.30360e+02	2.63500e+03	-8.20946e-03	4.29167e+02
2639	4.31006e+02	2.63900e+03	-8.42969e-03	4.29833e+02
2643	4.31668e+02	2.64300e+03	-8.69094e-03	4.30500e+02
2647	4.32316e+02	2.64700e+03	-8.93725e-03	4.31167e+02
2651	4.32968e+02	2.65100e+03	-9.15696e-03	4.31833e+02
2655	4.33615e+02	2.65500e+03	-9.32707e-03	4.32500e+02
2659	4.34271e+02	2.65900e+03	-9.46850e-03	4.33167e+02
2663	4.34921e+02	2.66300e+03	-9.54909e-03	4.33833e+02
2667	4.35582e+02	2.66700e+03	-9.55271e-03	4.34500e+02
2671	4.36230e+02	2.67100e+03	-9.57390e-03	4.35167e+02
2675	4.36876e+02	2.67500e+03	-9.71379e-03	4.35833e+02
2679	4.37547e+02	2.67900e+03	-9.91959e-03	4.36500e+02
2683	4.38192e+02	2.68300e+03	-1.01224e-02	4.37167e+02
2687	4.38849e+02	2.68700e+03	-1.02535e-02	4.37833e+02
2691	4.39496e+02	2.69100e+03	-1.02624e-02	4.38500e+02
2695	4.40151e+02	2.69500e+03	-1.02288e-02	4.39167e+02
2699	4.40809e+02	2.69900e+03	-1.01429e-02	4.39833e+02
2703	4.41467e+02	2.70300e+03	-1.00714e-02	4.40500e+02
2707	4.42126e+02	2.70700e+03	-1.01310e-02	4.41167e+02
2711	4.42777e+02	2.71100e+03	-1.02628e-02	4.41833e+02
2715	4.43426e+02	2.71500e+03	-1.04399e-02	4.42500e+02
2719	4.44098e+02	2.71900e+03	-1.05554e-02	4.43167e+02
2723	4.44751e+02	2.72300e+03	-1.05099e-02	4.43833e+02
2727	4.45417e+02	2.72700e+03	-1.04458e-02	4.44500e+02
2731	4.46062e+02	2.73100e+03	-1.04222e-02	4.45167e+02
2735	4.46722e+02	2.73500e+03	-1.03621e-02	4.45833e+02
2739	4.47376e+02	2.73900e+03	-1.03474e-02	4.46500e+02
2743	4.48017e+02	2.74300e+03	-1.04065e-02	4.47167e+02
2747	4.48686e+02	2.74700e+03	-1.04818e-02	4.47833e+02
2751	4.49327e+02	2.75100e+03	-1.05510e-02	4.48500e+02
2755	4.49989e+02	2.75500e+03	-1.06404e-02	4.49167e+02
2759	4.50644e+02	2.75900e+03	-1.07635e-02	4.49833e+02
2763	4.51297e+02	2.76300e+03	-1.07867e-02	4.50500e+02
2767	4.51956e+02	2.76700e+03	-1.07237e-02	4.51167e+02
2771	4.52609e+02	2.77100e+03	-1.07023e-02	4.51833e+02
2775	4.53262e+02	2.77500e+03	-1.07560e-02	4.52500e+02
2779	4.53913e+02	2.77900e+03	-1.08544e-02	4.53167e+02
2783	4.54563e+02	2.78300e+03	-1.09174e-02	4.53833e+02
2787	4.55221e+02	2.78700e+03	-1.08763e-02	4.54500e+02
2791	4.55869e+02	2.79100e+03	-1.08186e-02	4.55167e+02
2795	4.56519e+02	2.79500e+03	-1.08454e-02	4.55833e+02
2799	4.57177e+02	2.79900e+03	-1.09242e-02	4.56500e+02
2803	4.57814e+02	2.80300e+03	-1.10225e-02	4.57167e+02
2807	4.58424e+02	2.80700e+03	-1.11047e-02	4.57833e+02
2811	4.59057e+02	2.81100e+03	-1.11566e-02	4.58500e+02
2815	4.59704e+02	2.81500e+03	-1.11641e-02	4.59167e+02
2819	4.60340e+02	2.81900e+03	-1.11254e-02	4.59833e+02
2823	4.60996e+02	2.82300e+03	-1.10968e-02	4.60500e+02
2827	4.61643e+02	2.82700e+03	-1.10490e-02	4.61167e+02
2831	4.62297e+02	2.83100e+03	-1.10139e-02	4.61833e+02
2835	4.62931e+02	2.83500e+03	-1.10989e-02	4.62500e+02
2839	4.63590e+02	2.83900e+03	-1.12180e-02	4.63167e+02
2843	4.64244e+02	2.84300e+03	-1.12685e-02	4.63833e+02
2847	4.64905e+02	2.84700e+03	-1.12577e-02	4.64500e+02
2851	4.65548e+02	2.85100e+03	-1.12620e-02	4.65167e+02
2855	4.66210e+02	2.85500e+03	-1.13378e-02	4.65833e+02
2859	4.66857e+02	2.85900e+03	-1.13942e-02	4.66500e+02
2863	4.67508e+02	2.86300e+03	-1.14307e-02	4.67167e+02
2867	4.68168e+02	2.86700e+03	-1.14399e-02	4.67833e+02
2871	4.68812e+02	2.87100e+03	-1.14061e-02	4.68500e+02
2875	4.69465e+02	2.87500e+03	-1.14857e-02	4.69167e+02
2879	4.70132e+02	2.87900e+03	-1.15167e-02	4.69833e+02
2883	4.70787e+02	2.88300e+03	-1.13633e-02	4.70500e+02
2887	4.71439e+02	2.88700e+03	-1.13804e-02	4.71167e+02
2891	4.72101e+02	2.89100e+03	-1.16054e-02	4.71833e+02
2895	4.72757e+02	2.89500e+03	-1.15799e-02	4.72500e+02
2899	4.73405e+02	2.89900e+03	-1.14209e-02	4.73167e+02
2903	4.74062e+02	2.90300e+03	-1.15510e-02	4.73833e+02
2907	4.74711e+02	2.90700e+03	-1.17013e-02	4.74500e+02
2911	4.75369e+02	2.91100e+03	-1.15858e-02	4.75167e+02
2915	4.76035e+02	2.91500e+03	-1.14775e-02	4.75833e+02
2919	4.76670e+02	2.91900e+03	-1.15569e-02	4.76500e+02
2923	4.77329e+02	2.92300e+03	-1.17050e-02	4.77167e+02
2927	4.77977e+02	2.92700e+03	-1.17906e-02	4.77833e+02
2931	4.78635e+02	2.93100e+03	-1.17203e-02	4.78500e+02
2935	4.79298e+02	2.93500e+03	-1.16553e-02	4.79167e+02
2939	4.79959e+02	2.93900e+03	-1.16992e-02	4.79833e+02
2943	4.80608e+02	2.94300e+03	-1.16770e-02	4.80500e+02
2947	4.81251e+02	2.94700e+03	-1.16424e-02	4.81167e+02
2951	4.81924e+02	2.95100e+03	-1.16936e-02	4.81833e+02
2955	4.82570e+02	2.95500e+03	-1.17142e-02	4.82500e+02
2959	4.83229e+02	2.95900e+03	-1.17033e-02	4.83167e+02
2963	4.83897e+02	2.96300e+03	-1.16828e-02	4.83833e+02
2967	4.84542e+02	2.96700e+03	-1.16774e-02	4.84500e+02
2971	4.85198e+02	2.97100e+03	-1.16988e-02	4.85167e+02
2975	4.85863e+02	2.97500e+03	-1.17217e-02	4.85833e+02
2979	4.86520e+02	2.97900e+03	-1.18821e-02	4.86500e+02
2983	4.87160e+02	2.98300e+03	-1.20893e-02	4.87167e+02
2987	4.87826e+02	2.98700e+03	-1.21211e-02	4.87833e+02
2991	4.88494e+02	2.99100e+03	-1.20338e-02	4.88500e+02
2995	4.89139e+02	2.99500e+03	-1.18890e-02	4.89167e+02
2999	4.89794e+02	2.99900e+03	-1.18078e-02	4.89833e+02
3003	4.90448e+02	3.00300e+03	-1.18011e-02	4.90500e+02
3007	4.91096e+02	3.00700e+03	-1.17549e-02	4.91167e+02
3011	4.91761e+02	3.01100e+03	-1.17664e-02	4.91833e+02
3015	4.92411e+02	3.01500e+03	-1.17858e-02	4.92500e+02
3019	4.93076e+02	3.01900e+03	-1.17552e-02	4.93167e+02
3023	4.93734e+02	3.02300e+03	-1.17492e-02	4.93833e+02
3027	4.94391e+02	3.02700e+03	-1.17159e-02	4.94500e+02
3031	4.95043e+02	3.03100e+03	-1.16405e-02	4.95167e+02
3035	4.95701e+02	3.03500e+03	-1.16578e-02	4.95833e+02
3039	4.96354e+02	3.03900e+03	-1.17684e-02	4.96500e+02
3043	4.97018e+02	3.04300e+03	-1.18415e-02	4.97167e+02
3047	4.97675e+02	3.04700e+03	-1.18734e-02	4.97833e+02
3051	4.98333e+02	3.05100e+03	-1.19372e-02	4.98500e+02
3055	4.98989e+02	3.05500e+03	-1.20875e-02	4.99167e+02
3059	4.99649e+02	3.05900e+03	-1.21095e-02	4.99833e+02
3063	5.00311e+02	3.06300e+03	-1.19634e-02	5.00500e+02
3067	5.00955e+02	3.06700e+03	-1.18916e-02	5.01167e+02
3071	5.01624e+02	3.07100e+03	-1.18775e-02	5.01833e+02
3075	5.02291e+02	3.07500e+03	-1.18341e-02	5.02500e+02
3079	5.02942e+02	3.07900e+03	-1.18128e-02	5.03167e+02
3083	5.03596e+02	3.08300e+03	-1.18830e-02	5.03833e+02
3087	5.04253e+02	3.08700e+03	-1.19028e-02	5.04500e+02
3091	5.04926e+02	3.09100e+03	-1.18660e-02	5.05167e+02
3095	5.05571e+02	3.09500e+03	-1.19579e-02	5.05833e+02
3099	5.06233e+02	3.09900e+03	-1.21180e-02	5.06500e+02
3103	5.06891e+02	3.10300e+03	-1.21381e-02	5.07167e+02
3107	5.07548e+02	3.10700e+03	-1.20097e-02	5.07833e+02
3111	5.08220e+02	3.11100e+03	-1.19239e-02	5.08500e+02
3115	5.08878e+02	3.11500e+03	-1.19317e-02	5.09167e+02
3119	5.09537e+02	3.11900e+03	-1.19800e-02	5.09833e+02
3123	5.10191e+02	3.12300e+03	-1.20556e-02	5.10500e+02
3127	5.10844e+02	3.12700e+03	-1.21266e-02	5.11167e+02
3131	5.11514e+02	3.13100e+03	-1.20835e-02	5.11833e+02
3135	5.12173e+02	3.13500e+03	-1.19082e-02	5.12500e+02
3139	5.12842e+02	3.13900e+03	-1.18038e-02	5.13167e+02
3143	5.13498e+02	3.14300e+03	-1.18066e-02	5.13833e+02
3147	5.14156e+02	3.14700e+03	-1.18244e-02	5.14500e+02
3151	5.14820e+02	3.15100e+03	-1.18179e-02	5.15167e+02
3155	5.15489e+02	3.15500e+03	-1.17696e-02	5.15833e+02
3159	5.16134e+02	3.15900e+03	-1.17396e-02	5.16500e+02
3163	5.16800e+02	3.16300e+03	-1.18122e-02	5.17167e+02
3167	5.17453e+02	3.16700e+03	-1.20066e-02	5.17833e+02
3171	5.18111e+02	3.17100e+03	-1.21010e-02	5.18500e+02
3175	5.18782e+02	3.17500e+03	-1.19977e-02	5.19167e+02
3179	5.19447e+02	3.17900e+03	-1.19325e-02	5.19833e+02
3183	5.20103e+02	3.18300e+03	-1.20291e-02	5.20500e+02
3187	5.20768e+02	3.18700e+03	-1.20461e-02	5.21167e+02
3191	5.21430e+02	3.19100e+03	-1.20230e-02	5.21833e+02
3195	5.22085e+02	3.19500e+03	-1.20355e-02	5.22500e+02
3199	5.22758e+02	3.19900e+03	-1.18093e-02	5.23167e+02
3203	5.23417e+02	3.20300e+03	-1.16810e-02	5.23833e+02
3207	5.24085e+02	3.20700e+03	-1.18562e-02	5.24500e+02
3211	5.24737e+02	3.21100e+03	-1.18210e-02	5.25167e+02
3215	5.25389e+02	3.21500e+03	-1.19047e-02	5.25833e+02
3219	5.26055e+02	3.21900e+03	-1.22654e-02	5.26500e+02
3223	5.26716e+02	3.22300e+03	-1.23450e-02	5.27167e+02
3227	5.27384e+02	3.22700e+03	-1.21598e-02	5.27833e+02
3231	5.28037e+02	3.23100e+03	-1.20590e-02	5.28500e+02
3235	5.28686e+02	3.23500e+03	-1.21465e-02	5.29167e+02
3239	5.29350e+02	3.23900e+03	-1.20962e-02	5.29833e+02
3243	5.30000e+02	3.24300e+03	-1.20727e-02	5.30500e+02
3247	5.30672e+02	3.24700e+03	-1.21465e-02	5.31167e+02
3251	5.31343e+02	3.25100e+03	-1.20118e-02	5.31833e+02
3255	5.31996e+02	3.25500e+03	-1.17485e-02	5.32500e+02
3259	5.32658e+02	3.25900e+03	-1.18760e-02	5.33167e+02
3263	5.33317e+02	3.26300e+03	-1.19541e-02	5.33833e+02
3267	5.33987e+02	3.26700e+03	-1.17902e-02	5.34500e+02
3271	5.34642e+02	3.27100e+03	-1.20091e-02	5.35167e+02
3275	5.35310e+02	3.27500e+03	-1.22701e-02	5.35833e+02
3279	5.35964e+02	3.27900e+03	-1.21999e-02	5.36500e+02
3283	5.36620e+02	3.28300e+03	-1.21119e-02	5.37167e+02
3287	5.37281e+02	3.28700e+03	-1.22584e-02	5.37833e+02
3291	5.37944e+02	3.29100e+03	-1.22779e-02	5.38500e+02
3295	5.38611e+02	3.29500e+03	-1.20995e-02	5.39167e+02
3299	5.39271e+02	3.29900e+03	-1.20282e-02	5.39833e+02
3303	5.39953e+02	3.30300e+03	-1.21138e-02	5.40500e+02
3307	5.40618e+02	3.30700e+03	-1.20249e-02	5.41167e+02
3311	5.41283e+02	3.31100e+03	-1.15496e-02	5.41833e+02
3315	5.41939e+02	3.31500e+03	-1.14748e-02	5.42500e+02
3319	5.42617e+02	3.31900e+03	-1.22631e-02	5.43167e+02
3323	5.43298e+02	3.32300e+03	-1.24662e-02	5.43833e+02
3327	5.43959e+02	3.32700e+03	-1.18920e-02	5.44500e+02
3331	5.44629e+02	3.33100e+03	-1.16935e-02	5.45167e+02
3335	5.45291e+02	3.33500e+03	-1.20644e-02	5.45833e+02
3339	5.45960e+02	3.33900e+03	-1.23739e-02	5.46500e+02
3343	5.46638e+02	3.34300e+03	-1.22300e-02	5.47167e+02
3347	5.47303e+02	3.34700e+03	-1.20691e-02	5.47833e+02
3351	5.47971e+02	3.35100e+03	-1.20770e-02	5.48500e+02
3355	5.48630e+02	3.35500e+03	-1.21512e-02	5.49167e+02
3359	5.49285e+02	3.35900e+03	-1.21891e-02	5.49833e+02
3363	5.49951e+02	3.36300e+03	-1.21373e-02	5.50500e+02
3367	5.50625e+02	3.36700e+03	-1.20686e-02	5.51167e+02
3371	5.51281e+02	3.37100e+03	-1.20827e-02	5.51833e+02
3375	5.51945e+02	3.37500e+03	-1.21549e-02	5.52500e+02
3379	5.52599e+02	3.37900e+03	-1.21885e-02	5.53167e+02
3383	5.53264e+02	3.38300e+03	-1.21223e-02	5.53833e+02
3387	5.53923e+02	3.38700e+03	-1.20344e-02	5.54500e+02
3391	5.54586e+02	3.39100e+03	-1.20429e-02	5.55167e+02
3395	5.55245e+02	3.39500e+03	-1.21740e-02	5.55833e+02
3399	5.55904e+02	3.39900e+03	-1.23346e-02	5.56500e+02
3403	5.56576e+02	3.40300e+03	-1.23968e-02	5.57167e+02
3407	5.57231e+02	3.40700e+03	-1.22773e-02	5.57833e+02
3411	5.57902e+02	3.41100e+03	-1.21972e-02	5.58500e+02
3415	5.58570e+02	3.41500e+03	-1.23304e-02	5.59167e+02
3419	5.59219e+02	3.41900e+03	-1.23177e-02	5.59833e+02
3423	5.59885e+02	3.42300e+03	-1.21185e-02	5.60500e+02
3427	5.60541e+02	3.42700e+03	-1.20897e-02	5.61167e+02
3431	5.61193e+02	3.43100e+03	-1.22345e-02	5.61833e+02
3435	5.61858e+02	3.43500e+03	-1.24357e-02	5.62500e+02
3439	5.62524e+02	3.43900e+03	-1.25122e-02	5.63167e+02
3443	5.63193e+02	3.44300e+03	-1.23160e-02	5.63833e+02
3447	5.63843e+02	3.44700e+03	-1.20616e-02	5.64500e+02
3451	5.64515e+02	3.45100e+03	-1.20079e-02	5.65167e+02
3455	5.65178e+02	3.45500e+03	-1.20722e-02	5.65833e+02
3459	5.65835e+02	3.45900e+03	-1.21532e-02	5.66500e+02
3463	5.66498e+02	3.46300e+03	-1.22183e-02	5.67167e+02
3467	5.67156e+02	3.46700e+03	-1.22198e-02	5.67833e+02
3471	5.67822e+02	3.47100e+03	-1.22422e-02	5.68500e+02
3475	5.68483e+02	3.47500e+03	-1.23360e-02	5.69167e+02
3479	5.69151e+02	3.47900e+03	-1.24067e-02	5.69833e+02
3483	5.69802e+02	3.48300e+03	-1.23203e-02	5.70500e+02
3487	5.70449e+02	3.48700e+03	-1.22293e-02	5.71167e+02
3491	5.71112e+02	3.49100e+03	-1.22874e-02	5.71833e+02
3495	5.71773e+02	3.49500e+03	-1.23999e-02	5.72500e+02
3499	5.72436e+02	3.49900e+03	-1.24693e-02	5.73167e+02
3503	5.73089e+02	3.50300e+03	-1.23657e-02	5.73833e+02
3507	5.73750e+02	3.50700e+03	-1.22888e-02	5.74500e+02
3511	5.74417e+02	3.51100e+03	-1.24814e-02	5.75167e+02
3515	5.75062e+02	3.51500e+03	-1.27071e-02	5.75833e+02
3519	5.75729e+02	3.51900e+03	-1.26996e-02	5.76500e+02
3523	5.76397e+02	3.52300e+03	-1.26171e-02	5.77167e+02
3527	5.77054e+02	3.52700e+03	-1.25169e-02	5.77833e+02
3531	5.77715e+02	3.53100e+03	-1.24592e-02	5.78500e+02
3535	5.78384e+02	3.53500e+03	-1.25124e-02	5.79167e+02
3539	5.79041e+02	3.53900e+03	-1.24531e-02	5.79833e+02
3543	5.79713e+02	3.54300e+03	-1.23327e-02	5.80500e+02
3547	5.80357e+02	3.54700e+03	-1.22776e-02	5.81167e+02
3551	5.81016e+02	3.55100e+03	-1.24310e-02	5.81833e+02
3555	5.81693e+02	3.55500e+03	-1.26043e-02	5.82500e+02
3559	5.82356e+02	3.55900e+03	-1.25912e-02	5.83167e+02
3563	5.83020e+02	3.56300e+03	-1.25402e-02	5.83833e+02
3567	5.83687e+02	3.56700e+03	-1.24677e-02	5.84500e+02
3571	5.84346e+02	3.57100e+03	-1.24767e-02	5.85167e+02
3575	5.85010e+02	3.57500e+03	-1.26180e-02	5.85833e+02
3579	5.85674e+02	3.57900e+03	-1.27017e-02	5.86500e+02
3583	5.86338e+02	3.58300e+03	-1.26326e-02	5.87167e+02
3587	5.87008e+02	3.58700e+03	-1.25034e-02	5.87833e+02
3591	5.87662e+02	3.59100e+03	-1.24825e-02	5.88500e+02
3595	5.88343e+02	3.59500e+03	-1.26441e-02	5.89167e+02
3599	5.89001e+02	3.59900e+03	-1.27851e-02	5.89833e+02
3603	5.89656e+02	3.60300e+03	-1.28038e-02	5.90500e+02
3607	5.90326e+02	3.60700e+03	-1.28057e-02	5.91167e+02
3611	5.90979e+02	3.61100e+03	-1.27537e-02	5.91833e+02
3615	5.91645e+02	3.61500e+03	-1.26272e-02	5.92500e+02
3619	5.92312e+02	3.61900e+03	-1.25697e-02	5.93167e+02
3623	5.92979e+02	3.62300e+03	-1.26627e-02	5.93833e+02
3627	5.93644e+02	3.62700e+03	-1.27466e-02	5.94500e+02
3631	5.94308e+02	3.63100e+03	-1.27367e-02	5.95167e+02
3635	5.94975e+02	3.63500e+03	-1.27128e-02	5.95833e+02
3639	5.95640e+02	3.63900e+03	-1.26842e-02	5.96500e+02
3643	5.96300e+02	3.64300e+03	-1.26819e-02	5.97167e+02
3647	5.96973e+02	3.64700e+03	-1.27035e-02	5.97833e+02
3651	5.97632e+02	3.65100e+03	-1.26721e-02	5.98500e+02
3655	5.98299e+02	3.65500e+03	-1.26153e-02	5.99167e+02
3659	5.98967e+02	3.65900e+03	-1.25943e-02	5.99833e+02
3663	5.99627e+02	3.66300e+03	-1.26197e-02	6.00500e+02
3667	6.00298e+02	3.66700e+03	-1.26792e-02	6.01167e+02
3671	6.00968e+02	3.67100e+03	-1.27179e-02	6.01833e+02
3675	6.01637e+02	3.67500e+03	-1.26842e-02	6.02500e+02
3679	6.02311e+02	3.67900e+03	-1.26494e-02	6.03167e+02
3683	6.02970e+02	3.68300e+03	-1.26856e-02	6.03833e+02
3687	6.03659e+02	3.68700e+03	-1.26980e-02	6.04500e+02
3691	6.04331e+02	3.69100e+03	-1.26478e-02	6.05167e+02
3695	6.04997e+02	3.69500e+03	-1.26506e-02	6.05833e+02
3699	6.05681e+02	3.69900e+03	-1.27934e-02	6.06500e+02
3703	6.06343e+02	3.70300e+03	-1.29469e-02	6.07167e+02
3707	6.07011e+02	3.70700e+03	-1.28900e-02	6.07833e+02
3711	6.07696e+02	3.71100e+03	-1.27440e-02	6.08500e+02
3715	6.08374e+02	3.71500e+03	-1.26922e-02	6.09167e+02
3719	6.09051e+02	3.71900e+03	-1.27048e-02	6.09833e+02
3723	6.09759e+02	3.72300e+03	-1.27346e-02	6.10500e+02
3727	6.10439e+02	3.72700e+03	-1.27778e-02	6.11167e+02
3731	6.11192e+02	3.73100e+03	-1.27719e-02	6.11833e+02
3735	6.11932e+02	3.73500e+03	-1.26990e-02	6.12500e+02
3739	6.12719e+02	3.73900e+03	-1.27008e-02	6.13167e+02
3743	6.13590e+02	3.74300e+03	-1.27940e-02	6.13833e+02
3747	6.15517e+02	3.74700e+03	-1.29090e-02	6.14500e+02
3751	6.15991e+02	3.75100e+03	-1.29959e-02	6.15167e+02
3755	6.16573e+02	3.75500e+03	-1.30242e-02	6.15833e+02
3759	6.17176e+02	3.75900e+03	-1.30022e-02	6.16500e+02
3763	6.17784e+02	3.76300e+03	-1.29360e-02	6.17167e+02
3767	6.18403e+02	3.76700e+03	-1.28359e-02	6.17833e+02
3771	6.19037e+02	3.77100e+03	-1.27851e-02	6.18500e+02
3775	6.19674e+02	3.77500e+03	-1.28218e-02	6.19167e+02
3779	6.20315e+02	3.77900e+03	-1.28738e-02	6.19833e+02
3783	6.20952e+02	3.78300e+03	-1.29144e-02	6.20500e+02
3787	6.21591e+02	3.78700e+03	-1.28865e-02	6.21167e+02
3791	6.22218e+02	3.79100e+03	-1.28216e-02	6.21833e+02
3795	6.22856e+02	3.79500e+03	-1.28291e-02	6.22500e+02
3799	6.23500e+02	3.79900e+03	-1.28789e-02	6.23167e+02
3803	6.24151e+02	3.80300e+03	-1.29502e-02	6.23833e+02
3807	6.24801e+02	3.80700e+03	-1.30107e-02	6.24500e+02
3811	6.25441e+02	3.81100e+03	-1.29966e-02	6.25167e+02
3815	6.26100e+02	3.81500e+03	-1.29409e-02	6.25833e+02
3819	6.26751e+02	3.81900e+03	-1.29173e-02	6.26500e+02
3823	6.27401e+02	3.82300e+03	-1.28818e-02	6.27167e+02
3827	6.28055e+02	3.82700e+03	-1.28456e-02	6.27833e+02
3831	6.28700e+02	3.83100e+03	-1.28792e-02	6.28500e+02
3835	6.29354e+02	3.83500e+03	-1.29430e-02	6.29167e+02
3839	6.30003e+02	3.83900e+03	-1.30060e-02	6.29833e+02
3843	6.30653e+02	3.84300e+03	-1.29940e-02	6.30500e+02
3847	6.31300e+02	3.84700e+03	-1.29000e-02	6.31167e+02
3851	6.31954e+02	3.85100e+03	-1.28807e-02	6.31833e+02
3855	6.32608e+02	3.85500e+03	-1.28934e-02	6.32500e+02
3859	6.33256e+02	3.85900e+03	-1.28389e-02	6.33167e+02
3863	6.33911e+02	3.86300e+03	-1.28568e-02	6.33833e+02
3867	6.34568e+02	3.86700e+03	-1.30101e-02	6.34500e+02
3871	6.35227e+02	3.87100e+03	-1.31438e-02	6.35167e+02
3875	6.35876e+02	3.87500e+03	-1.31993e-02	6.35833e+02
3879	6.36517e+02	3.87900e+03	-1.31764e-02	6.36500e+02
3883	6.37171e+02	3.88300e+03	-1.30760e-02	6.37167e+02
3887	6.37828e+02	3.88700e+03	-1.30294e-02	6.37833e+02
3891	6.38493e+02	3.89100e+03	-1.30572e-02	6.38500e+02
3895	6.39146e+02	3.89500e+03	-1.30988e-02	6.39167e+02
3899	6.39789e+02	3.89900e+03	-1.31127e-02	6.39833e+02
3903	6.40442e+02	3.90300e+03	-1.30709e-02	6.40500e+02
3907	6.41091e+02	3.90700e+03	-1.30615e-02	6.41167e+02
3911	6.41753e+02	3.91100e+03	-1.30656e-02	6.41833e+02
3915	6.42402e+02	3.91500e+03	-1.30116e-02	6.42500e+02
3919	6.43070e+02	3.91900e+03	-1.30183e-02	6.43167e+02
3923	6.43715e+02	3.92300e+03	-1.31129e-02	6.43833e+02
3927	6.44372e+02	3.92700e+03	-1.32181e-02	6.44500e+02
3931	6.45029e+02	3.93100e+03	-1.32823e-02	6.45167e+02
3935	6.45675e+02	3.93500e+03	-1.32907e-02	6.45833e+02
3939	6.46331e+02	3.93900e+03	-1.32902e-02	6.46500e+02
3943	6.46982e+02	3.94300e+03	-1.32944e-02	6.47167e+02
3947	6.47651e+02	3.94700e+03	-1.32569e-02	6.47833e+02
3951	6.48298e+02	3.95100e+03	-1.31265e-02	6.48500e+02
3955	6.48960e+02	3.95500e+03	-1.29074e-02	6.49167e+02
3959	6.49620e+02	3.95900e+03	-1.27991e-02	6.49833e+02
3963	6.50290e+02	3.96300e+03	-1.29402e-02	6.50500e+02
3967	6.50940e+02	3.96700e+03	-1.30878e-02	6.51167e+02
3971	6.51596e+02	3.97100e+03	-1.31155e-02	6.51833e+02
3975	6.52263e+02	3.97500e+03	-1.31043e-02	6.52500e+02
3979	6.52922e+02	3.97900e+03	-1.30856e-02	6.53167e+02
3983	6.53580e+02	3.98300e+03	-1.31046e-02	6.53833e+02
3987	6.54235e+02	3.98700e+03	-1.31438e-02	6.54500e+02
3991	6.54888e+02	3.99100e+03	-1.31782e-02	6.55167e+02
3995	6.55552e+02	3.99500e+03	-1.32333e-02	6.55833e+02
3999	6.56210e+02	3.99900e+03	-1.31211e-02	6.56500e+02
4003	6.56846e+02	4.00300e+03	-1.28914e-02	6.57167e+02
4007	6.57516e+02	4.00700e+03	-1.31376e-02	6.57833e+02
4011	6.58173e+02	4.01100e+03	-1.34168e-02	6.58500e+02
4015	6.58833e+02	4.01500e+03	-1.33062e-02	6.59167e+02
4019	6.59471e+02	4.01900e+03	-1.33751e-02	6.59833e+02
4023	6.60131e+02	4.02300e+03	-1.34306e-02	6.60500e+02
4027	6.60788e+02	4.02700e+03	-1.33285e-02	6.61167e+02
4031	6.61432e+02	4.03100e+03	-1.34169e-02	6.61833e+02
4035	6.62118e+02	4.03500e+03	-1.33320e-02	6.62500e+02
4039	6.62753e+02	4.03900e+03	-1.31236e-02	6.63167e+02
4043	6.63417e+02	4.04300e+03	-1.33909e-02	6.63833e+02
4047	6.64070e+02	4.04700e+03	-1.36635e-02	6.64500e+02
4051	6.64727e+02	4.05100e+03	-1.35847e-02	6.65167e+02
4055	6.65377e+02	4.05500e+03	-1.34471e-02	6.65833e+02
4059	6.66038e+02	4.05900e+03	-1.33754e-02	6.66500e+02
4063	6.66695e+02	4.06300e+03	-1.33785e-02	6.67167e+02
4067	6.67357e+02	4.06700e+03	-1.33874e-02	6.67833e+02
4071	6.68009e+02	4.07100e+03	-1.33706e-02	6.68500e+02
4075	6.68675e+02	4.07500e+03	-1.33572e-02	6.69167e+02
4079	6.69339e+02	4.07900e+03	-1.33551e-02	6.69833e+02
4083	6.69989e+02	4.08300e+03	-1.33609e-02	6.70500e+02
4087	6.70652e+02	4.08700e+03	-1.33628e-02	6.71167e+02
4091	6.71315e+02	4.09100e+03	-1.33473e-02	6.71833e+02
4095	6.71965e+02	4.09500e+03	-1.33399e-02	6.72500e+02
4099	6.72625e+02	4.09900e+03	-1.33400e-02	6.73167e+02
4103	6.73287e+02	4.10300e+03	-1.33899e-02	6.73833e+02
4107	6.73951e+02	4.10700e+03	-1.34695e-02	6.74500e+02
4111	6.74599e+02	4.11100e+03	-1.34896e-02	6.75167e+02
4115	6.75258e+02	4.11500e+03	-1.34721e-02	6.75833e+02
4119	6.75923e+02	4.11900e+03	-1.34693e-02	6.76500e+02
4123	6.76577e+02	4.12300e+03	-1.34736e-02	6.77167e+02
4127	6.77224e+02	4.12700e+03	-1.35285e-02	6.77833e+02
4131	6.77892e+02	4.13100e+03	-1.36208e-02	6.78500e+02
4135	6.78551e+02	4.13500e+03	-1.36489e-02	6.79167e+02
4139	6.79213e+02	4.13900e+03	-1.36527e-02	6.79833e+02
4143	6.79870e+02	4.14300e+03	-1.36774e-02	6.80500e+02
4147	6.80531e+02	4.14700e+03	-1.37411e-02	6.81167e+02
4151	6.81185e+02	4.15100e+03	-1.38114e-02	6.81833e+02
4155	6.81839e+02	4.15500e+03	-1.37997e-02	6.82500e+02
4159	6.82492e+02	4.15900e+03	-1.37650e-02	6.83167e+02
4163	6.83151e+02	4.16300e+03	-1.37759e-02	6.83833e+02
4167	6.83811e+02	4.16700e+03	-1.37783e-02	6.84500e+02
4171	6.84471e+02	4.17100e+03	-1.37515e-02	6.85167e+02
4175	6.85131e+02	4.17500e+03	-1.37238e-02	6.85833e+02
4179	6.85792e+02	4.17900e+03	-1.37377e-02	6.86500e+02
4183	6.86444e+02	4.18300e+03	-1.37769e-02	6.87167e+02
4187	6.87108e+02	4.18700e+03	-1.38001e-02	6.87833e+02
4191	6.87763e+02	4.19100e+03	-1.37545e-02	6.88500e+02
4195	6.88424e+02	4.19500e+03	-1.36968e-02	6.89167e+02
4199	6.89094e+02	4.19900e+03	-1.36243e-02	6.89833e+02
4203	6.89753e+02	4.20300e+03	-1.34374e-02	6.90500e+02
4207	6.90411e+02	4.20700e+03	-1.33488e-02	6.91167e+02
4211	6.91079e+02	4.21100e+03	-1.34033e-02	6.91833e+02
4215	6.91738e+02	4.21500e+03	-1.34199e-02	6.92500e+02
4219	6.92412e+02	4.21900e+03	-1.34582e-02	6.93167e+02
4223	6.93072e+02	4.22300e+03	-1.35611e-02	6.93833e+02
4227	6.93741e+02	4.22700e+03	-1.35961e-02	6.94500e+02
4231	6.94402e+02	4.23100e+03	-1.35815e-02	6.95167e+02
4235	6.94961e+02	4.23500e+03	-1.37281e-02	6.95833e+02
4239	6.95389e+02	4.23900e+03	-1.38397e-02	6.96500e+02
4243	6.95865e+02	4.24300e+03	-1.37700e-02	6.97167e+02
4247	6.96274e+02	4.24700e+03	-1.38146e-02	6.97833e+02
4251	6.96656e+02	4.25100e+03	-1.38597e-02	6.98500e+02
4255	6.96986e+02	4.25500e+03	-1.38124e-02	6.99167e+02
4259	6.97265e+02	4.25900e+03	-1.38573e-02	6.99833e+02
4260	6.97327e+02	4.26000e+03	-1.38910e-02	7.00000e+02