File: Experiments/TGA/TUBS/tga_nonisotherm/tga_dynamic_n2low30_dyn30_piece_3mg_r3.txt
Index	Ts	t	Weight	Tr
[#]	[°C]	[s]	[mg]	[°C]
680	1.30012e+02	6.80000e+02	2.97487	130.0
682	1.31031e+02	6.82000e+02	2.97476	131.0
684	1.32047e+02	6.84000e+02	2.9746	132.0
686	1.33069e+02	6.86000e+02	2.97445	133.0
688	1.34100e+02	6.88000e+02	2.97432	134.0
690	1.35103e+02	6.90000e+02	2.97422	135.0
692	1.36105e+02	6.92000e+02	2.97417	136.0
694	1.37128e+02	6.94000e+02	2.97413	137.0
696	1.38141e+02	6.96000e+02	2.97411	138.0
698	1.39139e+02	6.98000e+02	2.9741	139.0
700	1.40157e+02	7.00000e+02	2.97408	140.0
702	1.41163e+02	7.02000e+02	2.97407	141.0
704	1.42176e+02	7.04000e+02	2.97407	142.0
706	1.43184e+02	7.06000e+02	2.97405	143.0
708	1.44203e+02	7.08000e+02	2.97401	144.0
710	1.45197e+02	7.10000e+02	2.97397	145.0
712	1.46217e+02	7.12000e+02	2.97391	146.0
714	1.47231e+02	7.14000e+02	2.97384	147.0
716	1.48236e+02	7.16000e+02	2.97378	148.0
718	1.49244e+02	7.18000e+02	2.97371	149.0
720	1.50247e+02	7.20000e+02	2.97363	150.0
722	1.51256e+02	7.22000e+02	2.97353	151.0
724	1.52261e+02	7.24000e+02	2.97341	152.0
726	1.53274e+02	7.26000e+02	2.97329	153.0
728	1.54283e+02	7.28000e+02	2.97317	154.0
730	1.55308e+02	7.30000e+02	2.97307	155.0
732	1.56303e+02	7.32000e+02	2.97299	156.0
734	1.57308e+02	7.34000e+02	2.97293	157.0
736	1.58327e+02	7.36000e+02	2.97289	158.0
738	1.59339e+02	7.38000e+02	2.97284	159.0
740	1.60355e+02	7.40000e+02	2.97277	160.0
742	1.61365e+02	7.42000e+02	2.97269	161.0
744	1.62376e+02	7.44000e+02	2.97262	162.0
746	1.63390e+02	7.46000e+02	2.97254	163.0
748	1.64402e+02	7.48000e+02	2.97246	164.0
750	1.65404e+02	7.50000e+02	2.97236	165.0
752	1.66434e+02	7.52000e+02	2.97226	166.0
754	1.67441e+02	7.54000e+02	2.97215	167.0
756	1.68457e+02	7.56000e+02	2.97206	168.0
758	1.69465e+02	7.58000e+02	2.97197	169.0
760	1.70477e+02	7.60000e+02	2.97188	170.0
762	1.71477e+02	7.62000e+02	2.9718	171.0
764	1.72507e+02	7.64000e+02	2.97172	172.0
766	1.73516e+02	7.66000e+02	2.97163	173.0
768	1.74531e+02	7.68000e+02	2.97152	174.0
770	1.75549e+02	7.70000e+02	2.97138	175.0
772	1.76567e+02	7.72000e+02	2.97124	176.0
774	1.77567e+02	7.74000e+02	2.9711	177.0
776	1.78579e+02	7.76000e+02	2.97099	178.0
778	1.79598e+02	7.78000e+02	2.97088	179.0
780	1.80617e+02	7.80000e+02	2.97075	180.0
782	1.81632e+02	7.82000e+02	2.97061	181.0
784	1.82641e+02	7.84000e+02	2.97045	182.0
786	1.83654e+02	7.86000e+02	2.97028	183.0
788	1.84681e+02	7.88000e+02	2.97011	184.0
790	1.85690e+02	7.90000e+02	2.96992	185.0
792	1.86702e+02	7.92000e+02	2.9697	186.0
794	1.87727e+02	7.94000e+02	2.96946	187.0
796	1.88736e+02	7.96000e+02	2.96918	188.0
798	1.89752e+02	7.98000e+02	2.96889	189.0
800	1.90753e+02	8.00000e+02	2.96858	190.0
802	1.91770e+02	8.02000e+02	2.96825	191.0
804	1.92782e+02	8.04000e+02	2.96791	192.0
806	1.93810e+02	8.06000e+02	2.96756	193.0
808	1.94820e+02	8.08000e+02	2.96718	194.0
810	1.95817e+02	8.10000e+02	2.96677	195.0
812	1.96825e+02	8.12000e+02	2.96634	196.0
814	1.97821e+02	8.14000e+02	2.9659	197.0
816	1.98824e+02	8.16000e+02	2.96544	198.0
818	1.99823e+02	8.18000e+02	2.96495	199.0
820	2.00837e+02	8.20000e+02	2.96442	200.0
822	2.01860e+02	8.22000e+02	2.96387	201.0
824	2.02862e+02	8.24000e+02	2.96329	202.0
826	2.03885e+02	8.26000e+02	2.9627	203.0
828	2.04902e+02	8.28000e+02	2.96208	204.0
830	2.05907e+02	8.30000e+02	2.96144	205.0
832	2.06917e+02	8.32000e+02	2.96076	206.0
834	2.07935e+02	8.34000e+02	2.96008	207.0
836	2.08976e+02	8.36000e+02	2.95937	208.0
838	2.10017e+02	8.38000e+02	2.95865	209.0
840	2.11070e+02	8.40000e+02	2.95791	210.0
842	2.12094e+02	8.42000e+02	2.95716	211.0
844	2.13125e+02	8.44000e+02	2.95639	212.0
846	2.14155e+02	8.46000e+02	2.95562	213.0
848	2.15186e+02	8.48000e+02	2.95483	214.0
850	2.16206e+02	8.50000e+02	2.95404	215.0
852	2.17217e+02	8.52000e+02	2.95325	216.0
854	2.18262e+02	8.54000e+02	2.95247	217.0
856	2.19293e+02	8.56000e+02	2.95171	218.0
858	2.20289e+02	8.58000e+02	2.95096	219.0
860	2.21361e+02	8.60000e+02	2.95022	220.0
862	2.22397e+02	8.62000e+02	2.94947	221.0
864	2.23444e+02	8.64000e+02	2.94872	222.0
866	2.24443e+02	8.66000e+02	2.94796	223.0
868	2.25554e+02	8.68000e+02	2.94717	224.0
870	2.26600e+02	8.70000e+02	2.94636	225.0
872	2.27711e+02	8.72000e+02	2.94555	226.0
874	2.28714e+02	8.74000e+02	2.94473	227.0
876	2.29764e+02	8.76000e+02	2.94393	228.0
878	2.30836e+02	8.78000e+02	2.94312	229.0
880	2.31856e+02	8.80000e+02	2.94229	230.0
882	2.32942e+02	8.82000e+02	2.94145	231.0
884	2.33971e+02	8.84000e+02	2.94059	232.0
886	2.34974e+02	8.86000e+02	2.93972	233.0
888	2.36002e+02	8.88000e+02	2.93885	234.0
890	2.36999e+02	8.90000e+02	2.93798	235.0
892	2.37989e+02	8.92000e+02	2.9371	236.0
894	2.38967e+02	8.94000e+02	2.93622	237.0
896	2.39972e+02	8.96000e+02	2.93531	238.0
898	2.40982e+02	8.98000e+02	2.9344	239.0
900	2.41979e+02	9.00000e+02	2.93346	240.0
902	2.43003e+02	9.02000e+02	2.9325	241.0
904	2.44011e+02	9.04000e+02	2.93153	242.0
906	2.45038e+02	9.06000e+02	2.93056	243.0
908	2.46064e+02	9.08000e+02	2.92959	244.0
910	2.47079e+02	9.10000e+02	2.92862	245.0
912	2.48103e+02	9.12000e+02	2.92767	246.0
914	2.49110e+02	9.14000e+02	2.92672	247.0
916	2.50145e+02	9.16000e+02	2.92578	248.0
918	2.51160e+02	9.18000e+02	2.92483	249.0
920	2.52132e+02	9.20000e+02	2.92385	250.0
922	2.53099e+02	9.22000e+02	2.92286	251.0
924	2.54072e+02	9.24000e+02	2.92186	252.0
926	2.55055e+02	9.26000e+02	2.92086	253.0
928	2.56049e+02	9.28000e+02	2.91986	254.0
930	2.57059e+02	9.30000e+02	2.91884	255.0
932	2.58030e+02	9.32000e+02	2.9178	256.0
934	2.59036e+02	9.34000e+02	2.91674	257.0
936	2.60045e+02	9.36000e+02	2.91565	258.0
938	2.61064e+02	9.38000e+02	2.91456	259.0
940	2.62066e+02	9.40000e+02	2.91348	260.0
942	2.63097e+02	9.42000e+02	2.9124	261.0
944	2.64092e+02	9.44000e+02	2.91133	262.0
946	2.65108e+02	9.46000e+02	2.91025	263.0
948	2.66106e+02	9.48000e+02	2.90916	264.0
950	2.67112e+02	9.50000e+02	2.90806	265.0
952	2.68132e+02	9.52000e+02	2.90695	266.0
954	2.69145e+02	9.54000e+02	2.90585	267.0
956	2.70148e+02	9.56000e+02	2.90475	268.0
958	2.71154e+02	9.58000e+02	2.90367	269.0
960	2.72159e+02	9.60000e+02	2.9026	270.0
962	2.73163e+02	9.62000e+02	2.90153	271.0
964	2.74158e+02	9.64000e+02	2.90046	272.0
966	2.75162e+02	9.66000e+02	2.89936	273.0
968	2.76186e+02	9.68000e+02	2.89823	274.0
970	2.77201e+02	9.70000e+02	2.89706	275.0
972	2.78225e+02	9.72000e+02	2.89586	276.0
974	2.79266e+02	9.74000e+02	2.89466	277.0
976	2.80291e+02	9.76000e+02	2.89345	278.0
978	2.81326e+02	9.78000e+02	2.89224	279.0
980	2.82344e+02	9.80000e+02	2.89098	280.0
982	2.83354e+02	9.82000e+02	2.88959	281.0
984	2.84385e+02	9.84000e+02	2.88799	282.0
986	2.85406e+02	9.86000e+02	2.88626	283.0
988	2.86433e+02	9.88000e+02	2.8844	284.0
990	2.87452e+02	9.90000e+02	2.88259	285.0
992	2.88462e+02	9.92000e+02	2.88086	286.0
994	2.89466e+02	9.94000e+02	2.87919	287.0
996	2.90481e+02	9.96000e+02	2.87761	288.0
998	2.91483e+02	9.98000e+02	2.87603	289.0
1000	2.92498e+02	1.00000e+03	2.87447	290.0
1002	2.93534e+02	1.00200e+03	2.87287	291.0
1004	2.94592e+02	1.00400e+03	2.87124	292.0
1006	2.95664e+02	1.00600e+03	2.86957	293.0
1008	2.96702e+02	1.00800e+03	2.86788	294.0
1010	2.97760e+02	1.01000e+03	2.86623	295.0
1012	2.98786e+02	1.01200e+03	2.86462	296.0
1014	2.99787e+02	1.01400e+03	2.86297	297.0
1016	3.00808e+02	1.01600e+03	2.86124	298.0
1018	3.01825e+02	1.01800e+03	2.85942	299.0
1020	3.02888e+02	1.02000e+03	2.85746	300.0
1022	3.03918e+02	1.02200e+03	2.85546	301.0
1024	3.04983e+02	1.02400e+03	2.85339	302.0
1026	3.06010e+02	1.02600e+03	2.85127	303.0
1028	3.07029e+02	1.02800e+03	2.84907	304.0
1030	3.08012e+02	1.03000e+03	2.84681	305.0
1032	3.09022e+02	1.03200e+03	2.84445	306.0
1034	3.10019e+02	1.03400e+03	2.84203	307.0
1036	3.11033e+02	1.03600e+03	2.83952	308.0
1038	3.12021e+02	1.03800e+03	2.83697	309.0
1040	3.13043e+02	1.04000e+03	2.83434	310.0
1042	3.14032e+02	1.04200e+03	2.83167	311.0
1044	3.15045e+02	1.04400e+03	2.82892	312.0
1046	3.16019e+02	1.04600e+03	2.82613	313.0
1048	3.17038e+02	1.04800e+03	2.82325	314.0
1050	3.18046e+02	1.05000e+03	2.82033	315.0
1052	3.19043e+02	1.05200e+03	2.81735	316.0
1054	3.20077e+02	1.05400e+03	2.81435	317.0
1056	3.21103e+02	1.05600e+03	2.81133	318.0
1058	3.22126e+02	1.05800e+03	2.80829	319.0
1060	3.23155e+02	1.06000e+03	2.80523	320.0
1062	3.24167e+02	1.06200e+03	2.80214	321.0
1064	3.25183e+02	1.06400e+03	2.79901	322.0
1066	3.26171e+02	1.06600e+03	2.79584	323.0
1068	3.27153e+02	1.06800e+03	2.79262	324.0
1070	3.28154e+02	1.07000e+03	2.78934	325.0
1072	3.29177e+02	1.07200e+03	2.78597	326.0
1074	3.30179e+02	1.07400e+03	2.78253	327.0
1076	3.31225e+02	1.07600e+03	2.77896	328.0
1078	3.32246e+02	1.07800e+03	2.7753	329.0
1080	3.33254e+02	1.08000e+03	2.77152	330.0
1082	3.34255e+02	1.08200e+03	2.76764	331.0
1084	3.35295e+02	1.08400e+03	2.76358	332.0
1086	3.36305e+02	1.08600e+03	2.75936	333.0
1088	3.37318e+02	1.08800e+03	2.75484	334.0
1090	3.38334e+02	1.09000e+03	2.75016	335.0
1092	3.39349e+02	1.09200e+03	2.74521	336.0
1094	3.40369e+02	1.09400e+03	2.74013	337.0
1096	3.41371e+02	1.09600e+03	2.73478	338.0
1098	3.42408e+02	1.09800e+03	2.72923	339.0
1100	3.43449e+02	1.10000e+03	2.7233	340.0
1102	3.44512e+02	1.10200e+03	2.71704	341.0
1104	3.45540e+02	1.10400e+03	2.71021	342.0
1106	3.46522e+02	1.10600e+03	2.70299	343.0
1108	3.47577e+02	1.10800e+03	2.69512	344.0
1110	3.48593e+02	1.11000e+03	2.68685	345.0
1112	3.49579e+02	1.11200e+03	2.67791	346.0
1114	3.50535e+02	1.11400e+03	2.66853	347.0
1116	3.51521e+02	1.11600e+03	2.65836	348.0
1118	3.52543e+02	1.11800e+03	2.64755	349.0
1120	3.53561e+02	1.12000e+03	2.63565	350.0
1122	3.54584e+02	1.12200e+03	2.62301	351.0
1124	3.55584e+02	1.12400e+03	2.60917	352.0
1126	3.56583e+02	1.12600e+03	2.59465	353.0
1128	3.57567e+02	1.12800e+03	2.57897	354.0
1130	3.58570e+02	1.13000e+03	2.56253	355.0
1132	3.59552e+02	1.13200e+03	2.54473	356.0
1134	3.60529e+02	1.13400e+03	2.52595	357.0
1136	3.61518e+02	1.13600e+03	2.50547	358.0
1138	3.62515e+02	1.13800e+03	2.4838	359.0
1140	3.63504e+02	1.14000e+03	2.4601	360.0
1142	3.64473e+02	1.14200e+03	2.43512	361.0
1144	3.65480e+02	1.14400e+03	2.40801	362.0
1146	3.66482e+02	1.14600e+03	2.37977	363.0
1148	3.67477e+02	1.14800e+03	2.34966	364.0
1150	3.68465e+02	1.15000e+03	2.31854	365.0
1152	3.69464e+02	1.15200e+03	2.28564	366.0
1154	3.70449e+02	1.15400e+03	2.25154	367.0
1156	3.71429e+02	1.15600e+03	2.21541	368.0
1158	3.72409e+02	1.15800e+03	2.17812	369.0
1160	3.73388e+02	1.16000e+03	2.13888	370.0
1162	3.74377e+02	1.16200e+03	2.09857	371.0
1164	3.75357e+02	1.16400e+03	2.05652	372.0
1166	3.76325e+02	1.16600e+03	2.01355	373.0
1168	3.77304e+02	1.16800e+03	1.96905	374.0
1170	3.78282e+02	1.17000e+03	1.92371	375.0
1172	3.79276e+02	1.17200e+03	1.87699	376.0
1174	3.80248e+02	1.17400e+03	1.82958	377.0
1176	3.81237e+02	1.17600e+03	1.78105	378.0
1178	3.82218e+02	1.17800e+03	1.73196	379.0
1180	3.83199e+02	1.18000e+03	1.68191	380.0
1182	3.84188e+02	1.18200e+03	1.63138	381.0
1184	3.85186e+02	1.18400e+03	1.58005	382.0
1186	3.86166e+02	1.18600e+03	1.52838	383.0
1188	3.87155e+02	1.18800e+03	1.4762	384.0
1190	3.88131e+02	1.19000e+03	1.42389	385.0
1192	3.89136e+02	1.19200e+03	1.37144	386.0
1194	3.90123e+02	1.19400e+03	1.31899	387.0
1196	3.91143e+02	1.19600e+03	1.26649	388.0
1198	3.92148e+02	1.19800e+03	1.21391	389.0
1200	3.93150e+02	1.20000e+03	1.16133	390.0
1202	3.94146e+02	1.20200e+03	1.10893	391.0
1204	3.95186e+02	1.20400e+03	1.05683	392.0
1206	3.96195e+02	1.20600e+03	1.00491	393.0
1208	3.97203e+02	1.20800e+03	0.953279	394.0
1210	3.98223e+02	1.21000e+03	0.901749	395.0
1212	3.99235e+02	1.21200e+03	0.850347	396.0
1214	4.00302e+02	1.21400e+03	0.798902	397.0
1216	4.01305e+02	1.21600e+03	0.747457	398.0
1218	4.02327e+02	1.21800e+03	0.696242	399.0
1220	4.03356e+02	1.22000e+03	0.645583	400.0
1222	4.04375e+02	1.22200e+03	0.59568	401.0
1224	4.05386e+02	1.22400e+03	0.547274	402.0
1226	4.06418e+02	1.22600e+03	0.50032	403.0
1228	4.07452e+02	1.22800e+03	0.455992	404.0
1230	4.08472e+02	1.23000e+03	0.413626	405.0
1232	4.09502e+02	1.23200e+03	0.374597	406.0
1234	4.10521e+02	1.23400e+03	0.336964	407.0
1236	4.11585e+02	1.23600e+03	0.304095	408.0
1238	4.12591e+02	1.23800e+03	0.272656	409.0
1240	4.13615e+02	1.24000e+03	0.244539	410.0
1242	4.14629e+02	1.24200e+03	0.21815	411.0
1244	4.15690e+02	1.24400e+03	0.194669	412.0
1246	4.16778e+02	1.24600e+03	0.172732	413.0
1248	4.17831e+02	1.24800e+03	0.153326	414.0
1250	4.18795e+02	1.25000e+03	0.135219	415.0
1252	4.19838e+02	1.25200e+03	0.119262	416.0
1254	4.20885e+02	1.25400e+03	0.104445	417.0
1256	4.21875e+02	1.25600e+03	0.0915049	418.0
1258	4.22882e+02	1.25800e+03	0.0795355	419.0
1260	4.23899e+02	1.26000e+03	0.0691706	420.0
1262	4.24919e+02	1.26200e+03	0.059638	421.0
1264	4.25905e+02	1.26400e+03	0.051464	422.0
1266	4.26894e+02	1.26600e+03	0.0439749	423.0
1268	4.27926e+02	1.26800e+03	0.0376117	424.0
1270	4.28903e+02	1.27000e+03	0.0318136	425.0
1272	4.29850e+02	1.27200e+03	0.026924	426.0
1274	4.30831e+02	1.27400e+03	0.022468	427.0
1276	4.31822e+02	1.27600e+03	0.0187184	428.0
1278	4.32825e+02	1.27800e+03	0.0153159	429.0
1280	4.33817e+02	1.28000e+03	0.0124741	430.0
1282	4.34838e+02	1.28200e+03	0.00989802	431.0
1284	4.35812e+02	1.28400e+03	0.00774673	432.0
1286	4.36796e+02	1.28600e+03	0.0057865	433.0
1288	4.37691e+02	1.28800e+03	0.00413094	434.0
1290	4.38633e+02	1.29000e+03	0.00261637	435.0
1292	4.39606e+02	1.29200e+03	0.00134004	436.0
1294	4.40575e+02	1.29400e+03	0.00018957	437.0
1296	4.41559e+02	1.29600e+03	-0.000769056	438.0
1298	4.42537e+02	1.29800e+03	-0.00165943	439.0
1300	4.43509e+02	1.30000e+03	-0.00245055	440.0
1302	4.44487e+02	1.30200e+03	-0.00321078	441.0
1304	4.45464e+02	1.30400e+03	-0.00390954	442.0
1306	4.46445e+02	1.30600e+03	-0.00455263	443.0
1308	4.47430e+02	1.30800e+03	-0.00510095	444.0
1310	4.48432e+02	1.31000e+03	-0.00559008	445.0
1312	4.49462e+02	1.31200e+03	-0.00599504	446.0
1314	4.50399e+02	1.31400e+03	-0.00638209	447.0
1316	4.51401e+02	1.31600e+03	-0.00674816	448.0
1318	4.52396e+02	1.31800e+03	-0.00710169	449.0
1320	4.53420e+02	1.32000e+03	-0.00741757	450.0
1322	4.54436e+02	1.32200e+03	-0.00768593	451.0
1324	4.55432e+02	1.32400e+03	-0.0078858	452.0
1326	4.56380e+02	1.32600e+03	-0.00807166	453.0
1328	4.57401e+02	1.32800e+03	-0.00824365	454.0
1330	4.58413e+02	1.33000e+03	-0.0084134	455.0
1332	4.59376e+02	1.33200e+03	-0.00856889	456.0
1334	4.60349e+02	1.33400e+03	-0.00868924	457.0
1336	4.61312e+02	1.33600e+03	-0.0087493	458.0
1338	4.62289e+02	1.33800e+03	-0.00878019	459.0
1340	4.63270e+02	1.34000e+03	-0.00877624	460.0
1342	4.64289e+02	1.34200e+03	-0.00877826	461.0
1344	4.65322e+02	1.34400e+03	-0.00879284	462.0
1346	4.66364e+02	1.34600e+03	-0.00882067	463.0
1348	4.67400e+02	1.34800e+03	-0.00886538	464.0
1350	4.68389e+02	1.35000e+03	-0.00891154	465.0
1352	4.69349e+02	1.35200e+03	-0.00895541	466.0
1354	4.70332e+02	1.35400e+03	-0.0089919	467.0
1356	4.71330e+02	1.35600e+03	-0.00901966	468.0
1358	4.72312e+02	1.35800e+03	-0.00905124	469.0
1360	4.73307e+02	1.36000e+03	-0.00909185	470.0
1362	4.74312e+02	1.36200e+03	-0.00913909	471.0
1364	4.75314e+02	1.36400e+03	-0.00919167	472.0
1366	4.76299e+02	1.36600e+03	-0.00923534	473.0
1368	4.77275e+02	1.36800e+03	-0.0092648	474.0
1370	4.78238e+02	1.37000e+03	-0.00929206	475.0
1372	4.79240e+02	1.37200e+03	-0.00931761	476.0
1374	4.80192e+02	1.37400e+03	-0.00935188	477.0
1376	4.81134e+02	1.37600e+03	-0.00939906	478.0
1378	4.82061e+02	1.37800e+03	-0.00945029	479.0
1380	4.83046e+02	1.38000e+03	-0.00950798	480.0
1382	4.84067e+02	1.38200e+03	-0.00956058	481.0
1384	4.85067e+02	1.38400e+03	-0.00960374	482.0
1386	4.86074e+02	1.38600e+03	-0.00964298	483.0
1388	4.87076e+02	1.38800e+03	-0.00967848	484.0
1390	4.88114e+02	1.39000e+03	-0.00972029	485.0
1392	4.89186e+02	1.39200e+03	-0.00977008	486.0
1394	4.90205e+02	1.39400e+03	-0.00981921	487.0
1396	4.91140e+02	1.39600e+03	-0.00985932	488.0
1398	4.92068e+02	1.39800e+03	-0.00988146	489.0
1400	4.92922e+02	1.40000e+03	-0.00987765	490.0
1402	4.93908e+02	1.40200e+03	-0.0098744	491.0
1404	4.94867e+02	1.40400e+03	-0.00987497	492.0
1406	4.95864e+02	1.40600e+03	-0.00988838	493.0
1408	4.96888e+02	1.40800e+03	-0.00991241	494.0
1410	4.97864e+02	1.41000e+03	-0.00992453	495.0
1412	4.98796e+02	1.41200e+03	-0.00991916	496.0
1414	4.99762e+02	1.41400e+03	-0.00990643	497.0
1416	5.00686e+02	1.41600e+03	-0.00988909	498.0
1418	5.01651e+02	1.41800e+03	-0.0098916	499.0
1420	5.02610e+02	1.42000e+03	-0.00993024	500.0
1422	5.03566e+02	1.42200e+03	-0.00999593	501.0
1424	5.04530e+02	1.42400e+03	-0.010101	502.0
1426	5.05501e+02	1.42600e+03	-0.0102096	503.0
1428	5.06459e+02	1.42800e+03	-0.0103106	504.0
1430	5.07437e+02	1.43000e+03	-0.0103854	505.0
1432	5.08408e+02	1.43200e+03	-0.0104201	506.0
1434	5.09385e+02	1.43400e+03	-0.0104355	507.0
1436	5.10362e+02	1.43600e+03	-0.0104252	508.0
1438	5.11372e+02	1.43800e+03	-0.0104122	509.0
1440	5.12372e+02	1.44000e+03	-0.0103939	510.0
1442	5.13361e+02	1.44200e+03	-0.0103741	511.0
1444	5.14336e+02	1.44400e+03	-0.0103574	512.0
1446	5.15308e+02	1.44600e+03	-0.0103492	513.0
1448	5.16299e+02	1.44800e+03	-0.0103554	514.0
1450	5.17253e+02	1.45000e+03	-0.0103629	515.0
1452	5.18206e+02	1.45200e+03	-0.0103769	516.0
1454	5.19147e+02	1.45400e+03	-0.0103998	517.0
1456	5.20123e+02	1.45600e+03	-0.0104319	518.0
1458	5.21104e+02	1.45800e+03	-0.0104554	519.0
1460	5.22118e+02	1.46000e+03	-0.0104622	520.0
1462	5.23090e+02	1.46200e+03	-0.0104665	521.0
1464	5.24066e+02	1.46400e+03	-0.0104743	522.0
1466	5.25029e+02	1.46600e+03	-0.0104958	523.0
1468	5.26008e+02	1.46800e+03	-0.0105281	524.0
1470	5.27006e+02	1.47000e+03	-0.0105499	525.0
1472	5.28026e+02	1.47200e+03	-0.0105488	526.0
1474	5.29056e+02	1.47400e+03	-0.0105314	527.0
1476	5.30051e+02	1.47600e+03	-0.010494	528.0
1478	5.31071e+02	1.47800e+03	-0.0104592	529.0
1480	5.32043e+02	1.48000e+03	-0.010436	530.0
1482	5.33011e+02	1.48200e+03	-0.0104298	531.0
1484	5.33990e+02	1.48400e+03	-0.0104455	532.0
1486	5.34943e+02	1.48600e+03	-0.0104691	533.0
1488	5.35903e+02	1.48800e+03	-0.0105057	534.0
1490	5.36891e+02	1.49000e+03	-0.0105444	535.0
1492	5.37838e+02	1.49200e+03	-0.0105779	536.0
1494	5.38822e+02	1.49400e+03	-0.0106109	537.0
1496	5.39789e+02	1.49600e+03	-0.0106549	538.0
1498	5.40721e+02	1.49800e+03	-0.0107241	539.0
1500	5.41695e+02	1.50000e+03	-0.0108099	540.0
1502	5.42675e+02	1.50200e+03	-0.0108568	541.0
1504	5.43671e+02	1.50400e+03	-0.0108244	542.0
1506	5.44640e+02	1.50600e+03	-0.010731	543.0
1508	5.45592e+02	1.50800e+03	-0.0105727	544.0
1510	5.46602e+02	1.51000e+03	-0.0104478	545.0
1512	5.47597e+02	1.51200e+03	-0.0103802	546.0
1514	5.48612e+02	1.51400e+03	-0.0103507	547.0
1516	5.49575e+02	1.51600e+03	-0.0103704	548.0
1518	5.50553e+02	1.51800e+03	-0.0103966	549.0
1520	5.51536e+02	1.52000e+03	-0.0104342	550.0
1522	5.52509e+02	1.52200e+03	-0.0104766	551.0
1524	5.53472e+02	1.52400e+03	-0.0105228	552.0
1526	5.54461e+02	1.52600e+03	-0.0105684	553.0
1528	5.55480e+02	1.52800e+03	-0.0106164	554.0
1530	5.56503e+02	1.53000e+03	-0.0106634	555.0
1532	5.57517e+02	1.53200e+03	-0.0106975	556.0
1534	5.58554e+02	1.53400e+03	-0.0107106	557.0
1536	5.59605e+02	1.53600e+03	-0.010696	558.0
1538	5.60617e+02	1.53800e+03	-0.0106755	559.0
1540	5.61589e+02	1.54000e+03	-0.0106421	560.0
1542	5.62552e+02	1.54200e+03	-0.010596	561.0
1544	5.63547e+02	1.54400e+03	-0.0105405	562.0
1546	5.64604e+02	1.54600e+03	-0.0105051	563.0
1548	5.65629e+02	1.54800e+03	-0.0105072	564.0
1550	5.66643e+02	1.55000e+03	-0.0105388	565.0
1552	5.67624e+02	1.55200e+03	-0.0106049	566.0
1554	5.68617e+02	1.55400e+03	-0.0106609	567.0
1556	5.69634e+02	1.55600e+03	-0.0106953	568.0
1558	5.70654e+02	1.55800e+03	-0.0107136	569.0
1560	5.71602e+02	1.56000e+03	-0.0107151	570.0
1562	5.72597e+02	1.56200e+03	-0.0107269	571.0
1564	5.73559e+02	1.56400e+03	-0.0107478	572.0
1566	5.74516e+02	1.56600e+03	-0.0107625	573.0
1568	5.75499e+02	1.56800e+03	-0.0107611	574.0
1570	5.76505e+02	1.57000e+03	-0.0107458	575.0
1572	5.77530e+02	1.57200e+03	-0.0107158	576.0
1574	5.78545e+02	1.57400e+03	-0.0106922	577.0
1576	5.79588e+02	1.57600e+03	-0.0106808	578.0
1578	5.80610e+02	1.57800e+03	-0.010687	579.0
1580	5.81648e+02	1.58000e+03	-0.0107283	580.0
1582	5.82665e+02	1.58200e+03	-0.0107858	581.0
1584	5.83662e+02	1.58400e+03	-0.0108437	582.0
1586	5.84639e+02	1.58600e+03	-0.0108682	583.0
1588	5.85651e+02	1.58800e+03	-0.0108502	584.0
1590	5.86648e+02	1.59000e+03	-0.0108353	585.0
1592	5.87662e+02	1.59200e+03	-0.0108286	586.0
1594	5.88656e+02	1.59400e+03	-0.0108396	587.0
1596	5.89656e+02	1.59600e+03	-0.0108821	588.0
1598	5.90649e+02	1.59800e+03	-0.0109556	589.0
1600	5.91653e+02	1.60000e+03	-0.0110781	590.0
1602	5.92671e+02	1.60200e+03	-0.0112119	591.0
1604	5.93658e+02	1.60400e+03	-0.0113281	592.0
1606	5.94658e+02	1.60600e+03	-0.0113727	593.0
1608	5.95622e+02	1.60800e+03	-0.0113067	594.0
1610	5.96566e+02	1.61000e+03	-0.0112023	595.0
1612	5.97530e+02	1.61200e+03	-0.0110631	596.0
1614	5.98488e+02	1.61400e+03	-0.0109588	597.0
1616	5.99461e+02	1.61600e+03	-0.010915	598.0
1618	6.00393e+02	1.61800e+03	-0.0109042	599.0
1620	6.01341e+02	1.62000e+03	-0.0109294	600.0
1622	6.02321e+02	1.62200e+03	-0.0109473	601.0
1624	6.03268e+02	1.62400e+03	-0.0109581	602.0
1626	6.04214e+02	1.62600e+03	-0.0109711	603.0
1628	6.05187e+02	1.62800e+03	-0.0109932	604.0
1630	6.06174e+02	1.63000e+03	-0.0110226	605.0
1632	6.07174e+02	1.63200e+03	-0.0110563	606.0
1634	6.08161e+02	1.63400e+03	-0.0110789	607.0
1636	6.09147e+02	1.63600e+03	-0.0110889	608.0
1638	6.10153e+02	1.63800e+03	-0.0111019	609.0
1640	6.11122e+02	1.64000e+03	-0.0111259	610.0
1642	6.12111e+02	1.64200e+03	-0.0111602	611.0
1644	6.13080e+02	1.64400e+03	-0.0112048	612.0
1646	6.14073e+02	1.64600e+03	-0.0112387	613.0
1648	6.14982e+02	1.64800e+03	-0.0112582	614.0
1650	6.15943e+02	1.65000e+03	-0.0112705	615.0
1652	6.16883e+02	1.65200e+03	-0.0112647	616.0
1654	6.17876e+02	1.65400e+03	-0.0112457	617.0
1656	6.18887e+02	1.65600e+03	-0.011203	618.0
1658	6.19848e+02	1.65800e+03	-0.0111567	619.0
1660	6.20850e+02	1.66000e+03	-0.0111103	620.0
1662	6.21835e+02	1.66200e+03	-0.0110857	621.0
1664	6.22841e+02	1.66400e+03	-0.0110992	622.0
1666	6.23805e+02	1.66600e+03	-0.0111327	623.0
1668	6.24828e+02	1.66800e+03	-0.0111889	624.0
1670	6.25863e+02	1.67000e+03	-0.0112319	625.0
1672	6.26883e+02	1.67200e+03	-0.0112536	626.0
1674	6.27904e+02	1.67400e+03	-0.0112577	627.0
1676	6.28949e+02	1.67600e+03	-0.0112355	628.0
1678	6.29956e+02	1.67800e+03	-0.0112088	629.0
1680	6.31042e+02	1.68000e+03	-0.011173	630.0
1682	6.32027e+02	1.68200e+03	-0.0111392	631.0
1684	6.32961e+02	1.68400e+03	-0.011103	632.0
1686	6.33939e+02	1.68600e+03	-0.011068	633.0
1688	6.34928e+02	1.68800e+03	-0.011035	634.0
1690	6.35873e+02	1.69000e+03	-0.0110088	635.0
1692	6.36833e+02	1.69200e+03	-0.0110005	636.0
1694	6.37819e+02	1.69400e+03	-0.0110122	637.0
1696	6.38825e+02	1.69600e+03	-0.0110629	638.0
1698	6.39826e+02	1.69800e+03	-0.0111328	639.0
1700	6.40860e+02	1.70000e+03	-0.0112225	640.0
1702	6.41885e+02	1.70200e+03	-0.0113011	641.0
1704	6.42878e+02	1.70400e+03	-0.0113605	642.0
1706	6.43875e+02	1.70600e+03	-0.0113976	643.0
1708	6.44870e+02	1.70800e+03	-0.0113915	644.0
1710	6.45866e+02	1.71000e+03	-0.0113635	645.0
1712	6.46866e+02	1.71200e+03	-0.0113096	646.0
1714	6.47864e+02	1.71400e+03	-0.0112731	647.0
1716	6.48869e+02	1.71600e+03	-0.0112689	648.0
1718	6.49855e+02	1.71800e+03	-0.0112821	649.0
1720	6.50853e+02	1.72000e+03	-0.0113201	650.0
1722	6.51866e+02	1.72200e+03	-0.0113516	651.0
1724	6.52856e+02	1.72400e+03	-0.0113747	652.0
1726	6.53886e+02	1.72600e+03	-0.0113945	653.0
1728	6.54903e+02	1.72800e+03	-0.0114006	654.0
1730	6.55913e+02	1.73000e+03	-0.0113963	655.0
1732	6.56919e+02	1.73200e+03	-0.0113759	656.0
1734	6.57904e+02	1.73400e+03	-0.0113556	657.0
1736	6.58894e+02	1.73600e+03	-0.0113382	658.0
1738	6.59894e+02	1.73800e+03	-0.0113226	659.0
1740	6.60886e+02	1.74000e+03	-0.0113138	660.0
1742	6.61885e+02	1.74200e+03	-0.0113061	661.0
1744	6.62868e+02	1.74400e+03	-0.0112996	662.0
1746	6.63872e+02	1.74600e+03	-0.0112975	663.0
1748	6.64863e+02	1.74800e+03	-0.0113019	664.0
1750	6.65871e+02	1.75000e+03	-0.0113144	665.0
1752	6.66883e+02	1.75200e+03	-0.0113309	666.0
1754	6.67874e+02	1.75400e+03	-0.0113416	667.0
1756	6.68876e+02	1.75600e+03	-0.0113509	668.0
1758	6.69882e+02	1.75800e+03	-0.0113611	669.0
1760	6.70883e+02	1.76000e+03	-0.0113703	670.0
1762	6.71880e+02	1.76200e+03	-0.0113691	671.0
1764	6.72876e+02	1.76400e+03	-0.0113541	672.0
1766	6.73878e+02	1.76600e+03	-0.0113484	673.0
1768	6.74879e+02	1.76800e+03	-0.011352	674.0
1770	6.75889e+02	1.77000e+03	-0.0113624	675.0
1772	6.76896e+02	1.77200e+03	-0.0113872	676.0
1774	6.77873e+02	1.77400e+03	-0.0114133	677.0
1776	6.78869e+02	1.77600e+03	-0.0114386	678.0
1778	6.79863e+02	1.77800e+03	-0.0114537	679.0
1780	6.80873e+02	1.78000e+03	-0.0114598	680.0
1782	6.81862e+02	1.78200e+03	-0.0114767	681.0
1784	6.82840e+02	1.78400e+03	-0.0115065	682.0
1786	6.83832e+02	1.78600e+03	-0.0115414	683.0
1788	6.84825e+02	1.78800e+03	-0.0115753	684.0
1790	6.85825e+02	1.79000e+03	-0.0116005	685.0
1792	6.86819e+02	1.79200e+03	-0.0116155	686.0
1794	6.87796e+02	1.79400e+03	-0.0116243	687.0
1796	6.88195e+02	1.79600e+03	-0.0116159	688.0
1798	6.88867e+02	1.79800e+03	-0.0115848	689.0
1800	6.89614e+02	1.80000e+03	-0.0115288	690.0
1802	6.90328e+02	1.80200e+03	-0.011489	691.0
1804	6.91003e+02	1.80400e+03	-0.0114721	692.0
1806	6.91611e+02	1.80600e+03	-0.0114686	693.0
1808	6.92207e+02	1.80800e+03	-0.0114805	694.0
1810	6.92794e+02	1.81000e+03	-0.011483	695.0
1812	6.93284e+02	1.81200e+03	-0.0114804	696.0
1814	6.93771e+02	1.81400e+03	-0.0114745	697.0
1816	6.94231e+02	1.81600e+03	-0.0114596	698.0
1818	6.94659e+02	1.81800e+03	-0.0114454	699.0
1820	6.95082e+02	1.82000e+03	-0.0114323	700.0
1822	6.95467e+02	1.82200e+03	-0.0114346	700.0
1824	6.95833e+02	1.82400e+03	-0.011464	700.0
1826	6.96216e+02	1.82600e+03	-0.0114954	700.0
1828	6.96546e+02	1.82800e+03	-0.0115353	700.0
1830	6.96890e+02	1.83000e+03	-0.0115717	700.0
1832	6.97224e+02	1.83200e+03	-0.0115949	700.0
1834	6.97531e+02	1.83400e+03	-0.0116062	700.0
1836	6.97791e+02	1.83600e+03	-0.0115944	700.0
1838	6.98039e+02	1.83800e+03	-0.0115832	700.0
1840	6.98252e+02	1.84000e+03	-0.0115712	700.0
1842	6.98479e+02	1.84200e+03	-0.0115527	700.0
1844	6.98662e+02	1.84400e+03	-0.0115233	700.0
1846	6.98876e+02	1.84600e+03	-0.0114894	700.0
1848	6.99080e+02	1.84800e+03	-0.0114449	700.0
1850	6.99265e+02	1.85000e+03	-0.0114124	700.0
1852	6.99418e+02	1.85200e+03	-0.0113978	700.0
1854	6.99546e+02	1.85400e+03	-0.0113988	700.0
1856	6.99680e+02	1.85600e+03	-0.0114143	700.0
1858	6.99800e+02	1.85800e+03	-0.011429	700.0
1860	6.99924e+02	1.86000e+03	-0.0114494	700.0
1862	6.99979e+02	1.86200e+03	-0.0114681	700.0
1864	7.00073e+02	1.86400e+03	-0.0114838	700.0
1866	7.00208e+02	1.86600e+03	-0.0114892	700.0
1868	7.00343e+02	1.86800e+03	-0.0114763	700.0
1870	7.00457e+02	1.87000e+03	-0.0114532	700.0
1872	7.00563e+02	1.87200e+03	-0.0114171	700.0
1874	7.00654e+02	1.87400e+03	-0.0113823	700.0
1876	7.00706e+02	1.87600e+03	-0.011352	700.0
1878	7.00781e+02	1.87800e+03	-0.011329	700.0
1880	7.00878e+02	1.88000e+03	-0.0113166	700.0
1882	7.00954e+02	1.88200e+03	-0.0113078	700.0
1884	7.01022e+02	1.88400e+03	-0.0113042	700.0
1886	7.01129e+02	1.88600e+03	-0.0113019	700.0
1888	7.01185e+02	1.88800e+03	-0.011303	700.0
1890	7.01243e+02	1.89000e+03	-0.0113088	700.0
1892	7.01302e+02	1.89200e+03	-0.0113224	700.0
1894	7.01378e+02	1.89400e+03	-0.0113396	700.0
1896	7.01424e+02	1.89600e+03	-0.0113636	700.0
1898	7.01476e+02	1.89800e+03	-0.011398	700.0
1900	7.01520e+02	1.90000e+03	-0.0114358	700.0
1902	7.01553e+02	1.90200e+03	-0.0114653	700.0
1904	7.01589e+02	1.90400e+03	-0.011484	700.0
1906	7.01632e+02	1.90600e+03	-0.0115039	700.0
1908	7.01663e+02	1.90800e+03	-0.0115285	700.0
1910	7.01707e+02	1.91000e+03	-0.0115511	700.0
1912	7.01722e+02	1.91200e+03	-0.0115578	700.0
1914	7.01753e+02	1.91400e+03	-0.0115482	700.0
1916	7.01781e+02	1.91600e+03	-0.0115223	700.0
1918	7.01806e+02	1.91800e+03	-0.0115012	700.0
1920	7.01839e+02	1.92000e+03	-0.0114855	700.0
1922	7.01874e+02	1.92200e+03	-0.0114673	700.0
1924	7.01891e+02	1.92400e+03	-0.0114486	700.0
1926	7.01931e+02	1.92600e+03	-0.0114436	700.0
1928	7.01954e+02	1.92800e+03	-0.0114474	700.0
1930	7.01979e+02	1.93000e+03	-0.0114456	700.0
1932	7.02000e+02	1.93200e+03	-0.0114373	700.0
1934	7.02022e+02	1.93400e+03	-0.0114278	700.0
1936	7.02037e+02	1.93600e+03	-0.0114166	700.0
1938	7.02055e+02	1.93800e+03	-0.0113972	700.0
1940	7.02076e+02	1.94000e+03	-0.0113773	700.0
1942	7.02094e+02	1.94200e+03	-0.0113713	700.0
1944	7.02109e+02	1.94400e+03	-0.0113861	700.0
1946	7.02122e+02	1.94600e+03	-0.0114112	700.0
1948	7.02143e+02	1.94800e+03	-0.0114495	700.0
1950	7.02161e+02	1.95000e+03	-0.011486	700.0
1952	7.02179e+02	1.95200e+03	-0.0115101	700.0
1954	7.02197e+02	1.95400e+03	-0.0115114	700.0
1956	7.02206e+02	1.95600e+03	-0.0114908	700.0
1958	7.02221e+02	1.95800e+03	-0.0114742	700.0
1960	7.02229e+02	1.96000e+03	-0.0114667	700.0
1962	7.02247e+02	1.96200e+03	-0.0114671	700.0
1964	7.02252e+02	1.96400e+03	-0.0114776	700.0
1966	7.02274e+02	1.96600e+03	-0.0114901	700.0
1968	7.02280e+02	1.96800e+03	-0.011507	700.0
1970	7.02291e+02	1.97000e+03	-0.0115261	700.0
1972	7.02296e+02	1.97200e+03	-0.0115384	700.0
1974	7.02311e+02	1.97400e+03	-0.0115417	700.0
1976	7.02314e+02	1.97600e+03	-0.0115389	700.0
1978	7.02327e+02	1.97800e+03	-0.0115336	700.0
1980	7.02325e+02	1.98000e+03	-0.0115185	700.0
1982	7.02340e+02	1.98200e+03	-0.011497	700.0
1984	7.02336e+02	1.98400e+03	-0.0114689	700.0
1986	7.02352e+02	1.98600e+03	-0.011451	700.0
1988	7.02353e+02	1.98800e+03	-0.0114517	700.0
1990	7.02371e+02	1.99000e+03	-0.0114659	700.0
1992	7.02370e+02	1.99200e+03	-0.0115004	700.0
1994	7.02379e+02	1.99400e+03	-0.011538	700.0
1996	7.02392e+02	1.99600e+03	-0.0115748	700.0
1998	7.02393e+02	1.99800e+03	-0.0116004	700.0
2000	7.02400e+02	2.00000e+03	-0.0116035	700.0
2002	7.02416e+02	2.00200e+03	-0.0115871	700.0
2004	7.02417e+02	2.00400e+03	-0.0115548	700.0
2006	7.02422e+02	2.00600e+03	-0.0115308	700.0
2008	7.02422e+02	2.00800e+03	-0.011522	700.0
2010	7.02424e+02	2.01000e+03	-0.0115225	700.0
2012	7.02435e+02	2.01200e+03	-0.0115366	700.0
2014	7.02434e+02	2.01400e+03	-0.0115547	700.0
2016	7.02436e+02	2.01600e+03	-0.0115808	700.0
2018	7.02448e+02	2.01800e+03	-0.0116095	700.0
2020	7.02451e+02	2.02000e+03	-0.01163	700.0
2022	7.02457e+02	2.02200e+03	-0.0116421	700.0
2024	7.02464e+02	2.02400e+03	-0.0116342	700.0
2026	7.02456e+02	2.02600e+03	-0.0116086	700.0
2028	7.02468e+02	2.02800e+03	-0.011571	700.0
2030	7.02470e+02	2.03000e+03	-0.0115433	700.0
2032	7.02474e+02	2.03200e+03	-0.0115348	700.0
2034	7.02478e+02	2.03400e+03	-0.0115409	700.0
2036	7.02476e+02	2.03600e+03	-0.0115685	700.0
2038	7.02489e+02	2.03800e+03	-0.0116003	700.0
2040	7.02478e+02	2.04000e+03	-0.011636	700.0
2042	7.02487e+02	2.04200e+03	-0.0116687	700.0
2044	7.02488e+02	2.04400e+03	-0.0116957	700.0
2046	7.02492e+02	2.04600e+03	-0.011717	700.0
2048	7.02484e+02	2.04800e+03	-0.011727	700.0
2050	7.02488e+02	2.05000e+03	-0.0117214	700.0
2052	7.02476e+02	2.05200e+03	-0.0116909	700.0
2054	7.02460e+02	2.05400e+03	-0.0116631	700.0
2056	7.02465e+02	2.05600e+03	-0.0116439	700.0
2058	7.02469e+02	2.05800e+03	-0.0116428	700.0
2060	7.02465e+02	2.06000e+03	-0.0116679	700.0
2062	7.02459e+02	2.06200e+03	-0.0116897	700.0
2064	7.02451e+02	2.06400e+03	-0.0117009	700.0
2066	7.02454e+02	2.06600e+03	-0.0117057	700.0
2068	7.02457e+02	2.06800e+03	-0.0117004	700.0
2070	7.02454e+02	2.07000e+03	-0.0116897	700.0
2072	7.02447e+02	2.07200e+03	-0.0116761	700.0
2074	7.02452e+02	2.07400e+03	-0.0116751	700.0
2076	7.02447e+02	2.07600e+03	-0.0116947	700.0
2078	7.02443e+02	2.07800e+03	-0.0117266	700.0
2080	7.02449e+02	2.08000e+03	-0.0117582	700.0
2082	7.02444e+02	2.08200e+03	-0.0117728	700.0
2084	7.02444e+02	2.08400e+03	-0.0117614	700.0
2086	7.02445e+02	2.08600e+03	-0.011742	700.0
2088	7.02449e+02	2.08800e+03	-0.0117092	700.0
2090	7.02442e+02	2.09000e+03	-0.0116619	700.0
2092	7.02433e+02	2.09200e+03	-0.0116023	700.0
2094	7.02445e+02	2.09400e+03	-0.0115478	700.0
2096	7.02428e+02	2.09600e+03	-0.0115059	700.0
2098	7.02427e+02	2.09800e+03	-0.0114817	700.0
2100	7.02428e+02	2.10000e+03	-0.0114799	700.0
2102	7.02421e+02	2.10200e+03	-0.0114819	700.0
2104	7.02416e+02	2.10400e+03	-0.0114906	700.0
2106	7.02418e+02	2.10600e+03	-0.0115043	700.0
2108	7.02391e+02	2.10800e+03	-0.0115287	700.0
2110	7.02362e+02	2.11000e+03	-0.0115631	700.0
2112	7.02354e+02	2.11200e+03	-0.0116125	700.0
2114	7.02343e+02	2.11400e+03	-0.011665	700.0
2116	7.02340e+02	2.11600e+03	-0.0117071	700.0
2118	7.02330e+02	2.11800e+03	-0.0117354	700.0
2120	7.02323e+02	2.12000e+03	-0.0117416	700.0
2122	7.02316e+02	2.12200e+03	-0.0117403	700.0
2124	7.02320e+02	2.12400e+03	-0.0117267	700.0
2126	7.02303e+02	2.12600e+03	-0.0117076	700.0
2128	7.02306e+02	2.12800e+03	-0.0116845	700.0
2130	7.02301e+02	2.13000e+03	-0.0116682	700.0
2132	7.02295e+02	2.13200e+03	-0.0116639	700.0
2134	7.02290e+02	2.13400e+03	-0.0116668	700.0
2136	7.02291e+02	2.13600e+03	-0.0116796	700.0
2138	7.02283e+02	2.13800e+03	-0.0116947	700.0
2140	7.02276e+02	2.14000e+03	-0.0117039	700.0
2142	7.02276e+02	2.14200e+03	-0.0117013	700.0
2144	7.02273e+02	2.14400e+03	-0.0116782	700.0
2146	7.02273e+02	2.14600e+03	-0.0116588	700.0
2148	7.02267e+02	2.14800e+03	-0.0116479	700.0
2150	7.02267e+02	2.15000e+03	-0.0116482	700.0
2152	7.02272e+02	2.15200e+03	-0.011653	700.0
2154	7.02271e+02	2.15400e+03	-0.0116446	700.0
2156	7.02266e+02	2.15600e+03	-0.0116247	700.0
2158	7.02262e+02	2.15800e+03	-0.0116107	700.0
2160	7.02257e+02	2.16000e+03	-0.0116057	700.0
2162	7.02257e+02	2.16200e+03	-0.0116059	700.0
2164	7.02254e+02	2.16400e+03	-0.0116153	700.0
2166	7.02257e+02	2.16600e+03	-0.0116294	700.0
2168	7.02249e+02	2.16800e+03	-0.0116493	700.0
2170	7.02243e+02	2.17000e+03	-0.0116697	700.0
2172	7.02242e+02	2.17200e+03	-0.0116917	700.0
2174	7.02240e+02	2.17400e+03	-0.0117114	700.0
2176	7.02239e+02	2.17600e+03	-0.0117178	700.0
2178	7.02234e+02	2.17800e+03	-0.0117203	700.0
2180	7.02224e+02	2.18000e+03	-0.0117108	700.0
2182	7.02225e+02	2.18200e+03	-0.0117047	700.0
2184	7.02224e+02	2.18400e+03	-0.0117043	700.0
2186	7.02223e+02	2.18600e+03	-0.0117066	700.0
2188	7.02217e+02	2.18800e+03	-0.0117112	700.0
2190	7.02201e+02	2.19000e+03	-0.0117115	700.0
2192	7.02190e+02	2.19200e+03	-0.0117042	700.0
2194	7.02193e+02	2.19400e+03	-0.0116928	700.0
2196	7.02187e+02	2.19600e+03	-0.0116774	700.0
2198	7.02181e+02	2.19800e+03	-0.0116656	700.0
2200	7.02179e+02	2.20000e+03	-0.0116622	700.0
2202	7.02180e+02	2.20200e+03	-0.0116599	700.0
2204	7.02168e+02	2.20400e+03	-0.0116605	700.0
2206	7.02172e+02	2.20600e+03	-0.0116694	700.0
2208	7.02174e+02	2.20800e+03	-0.0116877	700.0
2210	7.02170e+02	2.21000e+03	-0.0117069	700.0
2212	7.02173e+02	2.21200e+03	-0.011723	700.0
2214	7.02168e+02	2.21400e+03	-0.011729	700.0
2216	7.02163e+02	2.21600e+03	-0.0117226	700.0
2218	7.02169e+02	2.21800e+03	-0.011715	700.0
2220	7.02163e+02	2.22000e+03	-0.0116973	700.0
2222	7.02163e+02	2.22200e+03	-0.0116757	700.0
2224	7.02169e+02	2.22400e+03	-0.0116498	700.0
2226	7.02161e+02	2.22600e+03	-0.0116398	700.0
2228	7.02168e+02	2.22800e+03	-0.0116488	700.0
2230	7.02175e+02	2.23000e+03	-0.0116606	700.0
2232	7.02160e+02	2.23200e+03	-0.0116751	700.0
2234	7.02163e+02	2.23400e+03	-0.0116861	700.0
2236	7.02166e+02	2.23600e+03	-0.0116921	700.0
2238	7.02167e+02	2.23800e+03	-0.0116955	700.0
2240	7.02173e+02	2.24000e+03	-0.0116834	700.0
2242	7.02154e+02	2.24200e+03	-0.0116537	700.0
2244	7.02158e+02	2.24400e+03	-0.0116029	700.0
2246	7.02155e+02	2.24600e+03	-0.0115529	700.0
2248	7.02162e+02	2.24800e+03	-0.0115097	700.0
2250	7.02159e+02	2.25000e+03	-0.0114793	700.0
2252	7.02150e+02	2.25200e+03	-0.0114711	700.0
2254	7.02152e+02	2.25400e+03	-0.0114826	700.0
2256	7.02140e+02	2.25600e+03	-0.0115278	700.0
2258	7.02136e+02	2.25800e+03	-0.0115861	700.0
2260	7.02135e+02	2.26000e+03	-0.0116614	700.0
2262	7.02123e+02	2.26200e+03	-0.0117511	700.0
2264	7.02140e+02	2.26400e+03	-0.0118645	700.0
2266	7.02128e+02	2.26600e+03	-0.0119609	700.0
2268	7.02129e+02	2.26800e+03	-0.012001	700.0
2270	7.02121e+02	2.27000e+03	-0.0119523	700.0
2272	7.02127e+02	2.27200e+03	-0.0117802	700.0
2274	7.02127e+02	2.27400e+03	-0.0115921	700.0
2276	7.02134e+02	2.27600e+03	-0.0114079	700.0
2278	7.02133e+02	2.27800e+03	-0.0112718	700.0
2280	7.02125e+02	2.28000e+03	-0.011214	700.0
2282	7.02128e+02	2.28200e+03	-0.0111957	700.0
2284	7.02121e+02	2.28400e+03	-0.0112313	700.0
2286	7.02125e+02	2.28600e+03	-0.0112798	700.0
2288	7.02132e+02	2.28800e+03	-0.0113468	700.0
2290	7.02132e+02	2.29000e+03	-0.011416	700.0
2292	7.02129e+02	2.29200e+03	-0.0114865	700.0
2294	7.02131e+02	2.29400e+03	-0.0115517	700.0
2296	7.02120e+02	2.29600e+03	-0.0116046	700.0
2298	7.02121e+02	2.29800e+03	-0.0116455	700.0
2300	7.02127e+02	2.30000e+03	-0.0116682	700.0
2302	7.02131e+02	2.30200e+03	-0.0116845	700.0
2304	7.02118e+02	2.30400e+03	-0.0116914	700.0
2306	7.02125e+02	2.30600e+03	-0.0116963	700.0
2308	7.02122e+02	2.30800e+03	-0.0116973	700.0
2310	7.02139e+02	2.31000e+03	-0.0116857	700.0
2312	7.02129e+02	2.31200e+03	-0.011647	700.0
2314	7.02122e+02	2.31400e+03	-0.0116052	700.0
2316	7.02116e+02	2.31600e+03	-0.0115662	700.0
2318	7.02120e+02	2.31800e+03	-0.0115591	700.0
2320	7.02123e+02	2.32000e+03	-0.0115979	700.0
2322	7.02120e+02	2.32200e+03	-0.0116426	700.0
2324	7.02125e+02	2.32400e+03	-0.0116925	700.0
2326	7.02111e+02	2.32600e+03	-0.0117286	700.0
2328	7.02123e+02	2.32800e+03	-0.0117421	700.0
2330	7.02114e+02	2.33000e+03	-0.0117445	700.0
2332	7.02127e+02	2.33200e+03	-0.0117395	700.0
2334	7.02116e+02	2.33400e+03	-0.0117494	700.0
2336	7.02113e+02	2.33600e+03	-0.0117699	700.0
2338	7.02117e+02	2.33800e+03	-0.0117797	700.0
2340	7.02126e+02	2.34000e+03	-0.0117666	700.0
2342	7.02115e+02	2.34200e+03	-0.011749	700.0
2344	7.02119e+02	2.34400e+03	-0.0117264	700.0
2346	7.02116e+02	2.34600e+03	-0.011712	700.0
2348	7.02113e+02	2.34800e+03	-0.0116994	700.0
2350	7.02112e+02	2.35000e+03	-0.0116874	700.0
2352	7.02114e+02	2.35200e+03	-0.0116788	700.0
2354	7.02112e+02	2.35400e+03	-0.0116815	700.0
2356	7.02119e+02	2.35600e+03	-0.0116987	700.0
2358	7.02121e+02	2.35800e+03	-0.0117046	700.0
2360	7.02116e+02	2.36000e+03	-0.0117024	700.0
2362	7.02104e+02	2.36200e+03	-0.0117008	700.0
2364	7.02116e+02	2.36400e+03	-0.0117021	700.0
2366	7.02112e+02	2.36600e+03	-0.011708	700.0
2368	7.02115e+02	2.36800e+03	-0.0117181	700.0
2370	7.02114e+02	2.37000e+03	-0.0117248	700.0
2372	7.02112e+02	2.37200e+03	-0.0117253	700.0
2374	7.02112e+02	2.37400e+03	-0.0117237	700.0
2376	7.02107e+02	2.37600e+03	-0.011724	700.0
2378	7.02112e+02	2.37800e+03	-0.0117348	700.0
2380	7.02110e+02	2.38000e+03	-0.0117608	700.0
2382	7.02112e+02	2.38200e+03	-0.0117889	700.0
2384	7.02114e+02	2.38400e+03	-0.0118141	700.0
2386	7.02109e+02	2.38600e+03	-0.0118278	700.0
2388	7.02114e+02	2.38800e+03	-0.0118257	700.0
2390	7.02108e+02	2.39000e+03	-0.0118205	700.0
2392	7.02111e+02	2.39200e+03	-0.011802	700.0
2394	7.02117e+02	2.39400e+03	-0.0117672	700.0
2396	7.02110e+02	2.39600e+03	-0.0117209	700.0
2398	7.02113e+02	2.39800e+03	-0.0116858	700.0
2400	7.02114e+02	2.40000e+03	-0.0116695	700.0
2402	7.02119e+02	2.40200e+03	-0.0116519	700.0
2404	7.02110e+02	2.40400e+03	-0.0116358	700.0
2406	7.02112e+02	2.40600e+03	-0.0116216	700.0
2408	7.02122e+02	2.40800e+03	-0.01161	700.0
2410	7.02108e+02	2.41000e+03	-0.0116027	700.0
2412	7.02115e+02	2.41200e+03	-0.0116034	700.0
2414	7.02104e+02	2.41400e+03	-0.0116087	700.0
2416	7.02102e+02	2.41600e+03	-0.0116187	700.0
2418	7.02101e+02	2.41800e+03	-0.0116392	700.0
2420	7.02104e+02	2.42000e+03	-0.0116678	700.0
2422	7.02097e+02	2.42200e+03	-0.0116956	700.0
2424	7.02102e+02	2.42400e+03	-0.0117229	700.0
2426	7.02097e+02	2.42600e+03	-0.0117486	700.0
2428	7.02103e+02	2.42800e+03	-0.0117719	700.0
2430	7.02093e+02	2.43000e+03	-0.0117926	700.0
2432	7.02091e+02	2.43200e+03	-0.0118064	700.0
2434	7.02097e+02	2.43400e+03	-0.0118128	700.0
2436	7.02093e+02	2.43600e+03	-0.0118101	700.0
2438	7.02094e+02	2.43800e+03	-0.0118079	700.0
2440	7.02096e+02	2.44000e+03	-0.0118096	700.0
2442	7.02086e+02	2.44200e+03	-0.01182	700.0
2444	7.02076e+02	2.44400e+03	-0.0118394	700.0
2446	7.02088e+02	2.44600e+03	-0.011842	700.0
2448	7.02086e+02	2.44800e+03	-0.0118248	700.0
2450	7.02092e+02	2.45000e+03	-0.0117988	700.0
2452	7.02073e+02	2.45200e+03	-0.0117651	700.0
2454	7.02084e+02	2.45400e+03	-0.0117436	700.0
2456	7.02080e+02	2.45600e+03	-0.0117441	700.0
2458	7.02075e+02	2.45800e+03	-0.0117583	700.0
2460	7.02087e+02	2.46000e+03	-0.0117906	700.0
2462	7.02073e+02	2.46200e+03	-0.0118255	700.0
2464	7.02087e+02	2.46400e+03	-0.0118632	700.0
2466	7.02082e+02	2.46600e+03	-0.0118982	700.0
2468	7.02078e+02	2.46800e+03	-0.0119249	700.0
2470	7.02080e+02	2.47000e+03	-0.0119385	700.0
2472	7.02075e+02	2.47200e+03	-0.0119306	700.0
2474	7.02072e+02	2.47400e+03	-0.0119158	700.0
2476	7.02075e+02	2.47600e+03	-0.0118959	700.0
2478	7.02067e+02	2.47800e+03	-0.0118849	700.0
2480	7.02074e+02	2.48000e+03	-0.0118856	700.0
2482	7.02073e+02	2.48200e+03	-0.011888	700.0
2484	7.02077e+02	2.48400e+03	-0.0118896	700.0
2486	7.02077e+02	2.48600e+03	-0.0118762	700.0
2488	7.02065e+02	2.48800e+03	-0.0118512	700.0
2490	7.02085e+02	2.49000e+03	-0.0118304	700.0
2492	7.02070e+02	2.49200e+03	-0.0118159	700.0
2494	7.02077e+02	2.49400e+03	-0.0118065	700.0
2496	7.02074e+02	2.49600e+03	-0.0118069	700.0
2498	7.02082e+02	2.49800e+03	-0.0118129	700.0
2500	7.02071e+02	2.50000e+03	-0.0118255	700.0
2502	7.02080e+02	2.50200e+03	-0.0118358	700.0
2504	7.02073e+02	2.50400e+03	-0.0118404	700.0
2506	7.02077e+02	2.50600e+03	-0.0118427	700.0
2508	7.02075e+02	2.50800e+03	-0.0118479	700.0
2510	7.02077e+02	2.51000e+03	-0.0118632	700.0
2512	7.02076e+02	2.51200e+03	-0.0118885	700.0
2514	7.02079e+02	2.51400e+03	-0.0119084	700.0
2516	7.02084e+02	2.51600e+03	-0.0119181	700.0
2518	7.02085e+02	2.51800e+03	-0.0119194	700.0
2520	7.02081e+02	2.52000e+03	-0.0119063	700.0
2522	7.02079e+02	2.52200e+03	-0.0118894	700.0
2524	7.02079e+02	2.52400e+03	-0.0118744	700.0
2526	7.02083e+02	2.52600e+03	-0.0118692	700.0
2528	7.02078e+02	2.52800e+03	-0.0118765	700.0
2530	7.02076e+02	2.53000e+03	-0.0118911	700.0
2532	7.02082e+02	2.53200e+03	-0.011932	700.0
2534	7.02076e+02	2.53400e+03	-0.0120035	700.0
2536	7.02079e+02	2.53600e+03	-0.0121008	700.0
2538	7.02076e+02	2.53800e+03	-0.012148	700.0
2540	7.02076e+02	2.54000e+03	-0.0121048	700.0
2542	7.02082e+02	2.54200e+03	-0.0120052	700.0
2544	7.02086e+02	2.54400e+03	-0.0118545	700.0
2546	7.02084e+02	2.54600e+03	-0.0117561	700.0
2548	7.02085e+02	2.54800e+03	-0.0117507	700.0
2550	7.02086e+02	2.55000e+03	-0.0118034	700.0
2552	7.02087e+02	2.55200e+03	-0.011922	700.0
2554	7.02089e+02	2.55400e+03	-0.0120122	700.0
2556	7.02084e+02	2.55600e+03	-0.0120377	700.0
2558	7.02082e+02	2.55800e+03	-0.0120052	700.0
2560	7.02092e+02	2.56000e+03	-0.0119076	700.0
2562	7.02093e+02	2.56200e+03	-0.0118299	700.0
2564	7.02081e+02	2.56400e+03	-0.0117893	700.0
2566	7.02085e+02	2.56600e+03	-0.0117781	700.0
2568	7.02092e+02	2.56800e+03	-0.0118083	700.0
2570	7.02080e+02	2.57000e+03	-0.0118463	700.0
2572	7.02088e+02	2.57200e+03	-0.0118927	700.0
2574	7.02082e+02	2.57400e+03	-0.0119363	700.0
2576	7.02081e+02	2.57600e+03	-0.0119753	700.0
2578	7.02085e+02	2.57800e+03	-0.0120115	700.0
2580	7.02083e+02	2.58000e+03	-0.0120415	700.0
2582	7.02095e+02	2.58200e+03	-0.0120651	700.0
2584	7.02086e+02	2.58400e+03	-0.0120775	700.0
2586	7.02094e+02	2.58600e+03	-0.0120816	700.0
2588	7.02089e+02	2.58800e+03	-0.0120728	700.0
2590	7.02085e+02	2.59000e+03	-0.0120608	700.0
2592	7.02081e+02	2.59200e+03	-0.0120487	700.0
2594	7.02088e+02	2.59400e+03	-0.012037	700.0
2596	7.02081e+02	2.59600e+03	-0.0120223	700.0
2598	7.02082e+02	2.59800e+03	-0.0120113	700.0
2600	7.02080e+02	2.60000e+03	-0.0120067	700.0
2602	7.02088e+02	2.60200e+03	-0.0120101	700.0
2604	7.02080e+02	2.60400e+03	-0.012023	700.0
2606	7.02079e+02	2.60600e+03	-0.0120429	700.0
2608	7.02081e+02	2.60800e+03	-0.0120675	700.0
2610	7.02075e+02	2.61000e+03	-0.0120804	700.0
2612	7.02078e+02	2.61200e+03	-0.0120749	700.0
2614	7.02069e+02	2.61400e+03	-0.0120607	700.0
2616	7.02067e+02	2.61600e+03	-0.0120445	700.0
2618	7.02071e+02	2.61800e+03	-0.0120491	700.0
2620	7.02068e+02	2.62000e+03	-0.0120858	700.0
2622	7.02070e+02	2.62200e+03	-0.0121349	700.0
2624	7.02071e+02	2.62400e+03	-0.0121971	700.0
2626	7.02073e+02	2.62600e+03	-0.0122507	700.0
2628	7.02073e+02	2.62800e+03	-0.0122859	700.0
2630	7.02069e+02	2.63000e+03	-0.0123016	700.0
2632	7.02065e+02	2.63200e+03	-0.0122806	700.0
2634	7.02070e+02	2.63400e+03	-0.0122315	700.0
2636	7.02060e+02	2.63600e+03	-0.0121582	700.0
2638	7.02070e+02	2.63800e+03	-0.0120995	700.0
2640	7.02073e+02	2.64000e+03	-0.0120681	700.0
2642	7.02068e+02	2.64200e+03	-0.0120575	700.0
2644	7.02066e+02	2.64400e+03	-0.0120773	700.0
2646	7.02075e+02	2.64600e+03	-0.0121039	700.0
2648	7.02080e+02	2.64800e+03	-0.0121364	700.0
2650	7.02068e+02	2.65000e+03	-0.0121622	700.0
2652	7.02067e+02	2.65200e+03	-0.0121776	700.0
2654	7.02070e+02	2.65400e+03	-0.012186	700.0
2656	7.02072e+02	2.65600e+03	-0.0121794	700.0
2658	7.02073e+02	2.65800e+03	-0.0121523	700.0
2660	7.02069e+02	2.66000e+03	-0.0121074	700.0
2662	7.02067e+02	2.66200e+03	-0.0120685	700.0
2664	7.02065e+02	2.66400e+03	-0.0120477	700.0
2666	7.02069e+02	2.66600e+03	-0.0120483	700.0
2668	7.02069e+02	2.66800e+03	-0.0120682	700.0
2670	7.02068e+02	2.67000e+03	-0.0120713	700.0
2672	7.02054e+02	2.67200e+03	-0.0120548	700.0
2674	7.02069e+02	2.67400e+03	-0.0120412	700.0
2676	7.02066e+02	2.67600e+03	-0.0120331	700.0
2678	7.02065e+02	2.67800e+03	-0.0120314	700.0
2680	7.02067e+02	2.68000e+03	-0.0120359	700.0
2682	7.02064e+02	2.68200e+03	-0.0120375	700.0
2684	7.02074e+02	2.68400e+03	-0.0120393	700.0
2686	7.02065e+02	2.68600e+03	-0.0120588	700.0
2688	7.02063e+02	2.68800e+03	-0.0120921	700.0
2690	7.02072e+02	2.69000e+03	-0.0121258	700.0
2692	7.02064e+02	2.69200e+03	-0.0121698	700.0
2694	7.02067e+02	2.69400e+03	-0.0122153	700.0
2696	7.02060e+02	2.69600e+03	-0.0122603	700.0
2698	7.02069e+02	2.69800e+03	-0.0122918	700.0
2700	7.02055e+02	2.70000e+03	-0.0122974	700.0
2702	7.02069e+02	2.70200e+03	-0.0122779	700.0
2704	7.02070e+02	2.70400e+03	-0.0122344	700.0
2706	7.02067e+02	2.70600e+03	-0.0122044	700.0
2708	7.02066e+02	2.70800e+03	-0.0121957	700.0
2710	7.02059e+02	2.71000e+03	-0.0122018	700.0
2712	7.02070e+02	2.71200e+03	-0.0122177	700.0
2714	7.02062e+02	2.71400e+03	-0.0122394	700.0
2716	7.02071e+02	2.71600e+03	-0.0122522	700.0
2718	7.02067e+02	2.71800e+03	-0.0122555	700.0
2720	7.02062e+02	2.72000e+03	-0.0122517	700.0