File: Experiments/TGA/TUBS/tga_nonisotherm/tga_dynamic_n2low30_dyn30_powder_3mg_r1.txt
Index	Ts	t	Weight	Tr
[#]	[°C]	[s]	[mg]	[°C]
681	1.30378e+02	6.81000e+02	3.04811	130.5
683	1.31399e+02	6.83000e+02	3.04786	131.5
685	1.32399e+02	6.85000e+02	3.04752	132.5
687	1.33418e+02	6.87000e+02	3.0473	133.5
689	1.34426e+02	6.89000e+02	3.0472	134.5
691	1.35432e+02	6.91000e+02	3.04708	135.5
693	1.36448e+02	6.93000e+02	3.04702	136.5
695	1.37453e+02	6.95000e+02	3.04695	137.5
697	1.38469e+02	6.97000e+02	3.04687	138.5
699	1.39485e+02	6.99000e+02	3.04676	139.5
701	1.40473e+02	7.01000e+02	3.0466	140.5
703	1.41500e+02	7.03000e+02	3.04643	141.5
705	1.42508e+02	7.05000e+02	3.04623	142.5
707	1.43502e+02	7.07000e+02	3.04601	143.5
709	1.44524e+02	7.09000e+02	3.04576	144.5
711	1.45535e+02	7.11000e+02	3.04552	145.5
713	1.46554e+02	7.13000e+02	3.04527	146.5
715	1.47551e+02	7.15000e+02	3.04498	147.5
717	1.48566e+02	7.17000e+02	3.04466	148.5
719	1.49569e+02	7.19000e+02	3.04434	149.5
721	1.50607e+02	7.21000e+02	3.04403	150.5
723	1.51617e+02	7.23000e+02	3.04372	151.5
725	1.52629e+02	7.25000e+02	3.04338	152.5
727	1.53626e+02	7.27000e+02	3.04299	153.5
729	1.54634e+02	7.29000e+02	3.04254	154.5
731	1.55649e+02	7.31000e+02	3.04211	155.5
733	1.56667e+02	7.33000e+02	3.04167	156.5
735	1.57693e+02	7.35000e+02	3.04125	157.5
737	1.58702e+02	7.37000e+02	3.04086	158.5
739	1.59711e+02	7.39000e+02	3.04046	159.5
741	1.60731e+02	7.41000e+02	3.04004	160.5
743	1.61727e+02	7.43000e+02	3.03957	161.5
745	1.62760e+02	7.45000e+02	3.03903	162.5
747	1.63780e+02	7.47000e+02	3.0385	163.5
749	1.64795e+02	7.49000e+02	3.03792	164.5
751	1.65808e+02	7.51000e+02	3.03735	165.5
753	1.66813e+02	7.53000e+02	3.03677	166.5
755	1.67832e+02	7.55000e+02	3.03622	167.5
757	1.68851e+02	7.57000e+02	3.03565	168.5
759	1.69877e+02	7.59000e+02	3.03504	169.5
761	1.70882e+02	7.61000e+02	3.03439	170.5
763	1.71909e+02	7.63000e+02	3.03377	171.5
765	1.72913e+02	7.65000e+02	3.03311	172.5
767	1.73928e+02	7.67000e+02	3.03239	173.5
769	1.74949e+02	7.69000e+02	3.03154	174.5
771	1.75961e+02	7.71000e+02	3.03067	175.5
773	1.76991e+02	7.73000e+02	3.02966	176.5
775	1.78016e+02	7.75000e+02	3.02863	177.5
777	1.79024e+02	7.77000e+02	3.02748	178.5
779	1.80039e+02	7.79000e+02	3.02631	179.5
781	1.81060e+02	7.81000e+02	3.02501	180.5
783	1.82077e+02	7.83000e+02	3.02366	181.5
785	1.83094e+02	7.85000e+02	3.02214	182.5
787	1.84112e+02	7.87000e+02	3.02056	183.5
789	1.85134e+02	7.89000e+02	3.01874	184.5
791	1.86150e+02	7.91000e+02	3.01685	185.5
793	1.87169e+02	7.93000e+02	3.01468	186.5
795	1.88192e+02	7.95000e+02	3.01247	187.5
797	1.89211e+02	7.97000e+02	3.01004	188.5
799	1.90230e+02	7.99000e+02	3.00755	189.5
801	1.91255e+02	8.01000e+02	3.00486	190.5
803	1.92261e+02	8.03000e+02	3.00215	191.5
805	1.93290e+02	8.05000e+02	2.9993	192.5
807	1.94315e+02	8.07000e+02	2.99645	193.5
809	1.95348e+02	8.09000e+02	2.99349	194.5
811	1.96363e+02	8.11000e+02	2.9905	195.5
813	1.97389e+02	8.13000e+02	2.98744	196.5
815	1.98415e+02	8.15000e+02	2.98441	197.5
817	1.99429e+02	8.17000e+02	2.98142	198.5
819	2.00461e+02	8.19000e+02	2.97847	199.5
821	2.01488e+02	8.21000e+02	2.97565	200.5
823	2.02499e+02	8.23000e+02	2.97289	201.5
825	2.03533e+02	8.25000e+02	2.97029	202.5
827	2.04558e+02	8.27000e+02	2.96774	203.5
829	2.05583e+02	8.29000e+02	2.9654	204.5
831	2.06606e+02	8.31000e+02	2.96315	205.5
833	2.07624e+02	8.33000e+02	2.96115	206.5
835	2.08665e+02	8.35000e+02	2.95918	207.5
837	2.09688e+02	8.37000e+02	2.95742	208.5
839	2.10713e+02	8.39000e+02	2.9557	209.5
841	2.11745e+02	8.41000e+02	2.95419	210.5
843	2.12779e+02	8.43000e+02	2.95283	211.5
845	2.13803e+02	8.45000e+02	2.95189	212.5
847	2.14828e+02	8.47000e+02	2.95102	213.5
849	2.15840e+02	8.49000e+02	2.9503	214.5
851	2.16863e+02	8.51000e+02	2.94936	215.5
853	2.17872e+02	8.53000e+02	2.94825	216.5
855	2.18889e+02	8.55000e+02	2.94721	217.5
857	2.19907e+02	8.57000e+02	2.94625	218.5
859	2.20917e+02	8.59000e+02	2.94539	219.5
861	2.21918e+02	8.61000e+02	2.94464	220.5
863	2.22946e+02	8.63000e+02	2.94381	221.5
865	2.23960e+02	8.65000e+02	2.94297	222.5
867	2.24977e+02	8.67000e+02	2.94219	223.5
869	2.25985e+02	8.69000e+02	2.94153	224.5
871	2.26988e+02	8.71000e+02	2.94091	225.5
873	2.28020e+02	8.73000e+02	2.94037	226.5
875	2.29038e+02	8.75000e+02	2.93975	227.5
877	2.30057e+02	8.77000e+02	2.93906	228.5
879	2.31056e+02	8.79000e+02	2.93839	229.5
881	2.32071e+02	8.81000e+02	2.93771	230.5
883	2.33077e+02	8.83000e+02	2.93702	231.5
885	2.34082e+02	8.85000e+02	2.93628	232.5
887	2.35081e+02	8.87000e+02	2.93552	233.5
889	2.36077e+02	8.89000e+02	2.93472	234.5
891	2.37092e+02	8.91000e+02	2.93395	235.5
893	2.38118e+02	8.93000e+02	2.9332	236.5
895	2.39141e+02	8.95000e+02	2.93244	237.5
897	2.40160e+02	8.97000e+02	2.93167	238.5
899	2.41188e+02	8.99000e+02	2.93091	239.5
901	2.42206e+02	9.01000e+02	2.93015	240.5
903	2.43224e+02	9.03000e+02	2.92939	241.5
905	2.44258e+02	9.05000e+02	2.92867	242.5
907	2.45288e+02	9.07000e+02	2.92797	243.5
909	2.46302e+02	9.09000e+02	2.9273	244.5
911	2.47306e+02	9.11000e+02	2.92661	245.5
913	2.48322e+02	9.13000e+02	2.92594	246.5
915	2.49344e+02	9.15000e+02	2.92531	247.5
917	2.50375e+02	9.17000e+02	2.92471	248.5
919	2.51438e+02	9.19000e+02	2.9241	249.5
921	2.52456e+02	9.21000e+02	2.9235	250.5
923	2.53482e+02	9.23000e+02	2.92291	251.5
925	2.54494e+02	9.25000e+02	2.92235	252.5
927	2.55544e+02	9.27000e+02	2.9218	253.5
929	2.56603e+02	9.29000e+02	2.9213	254.5
931	2.57654e+02	9.31000e+02	2.92081	255.5
933	2.58685e+02	9.33000e+02	2.92032	256.5
935	2.59702e+02	9.35000e+02	2.91978	257.5
937	2.60737e+02	9.37000e+02	2.91921	258.5
939	2.61762e+02	9.39000e+02	2.91867	259.5
941	2.62816e+02	9.41000e+02	2.91814	260.5
943	2.63834e+02	9.43000e+02	2.91759	261.5
945	2.64879e+02	9.45000e+02	2.91706	262.5
947	2.65908e+02	9.47000e+02	2.91654	263.5
949	2.66962e+02	9.49000e+02	2.91604	264.5
951	2.67976e+02	9.51000e+02	2.91551	265.5
953	2.68991e+02	9.53000e+02	2.91498	266.5
955	2.70012e+02	9.55000e+02	2.91444	267.5
957	2.71014e+02	9.57000e+02	2.91388	268.5
959	2.72050e+02	9.59000e+02	2.9133	269.5
961	2.73096e+02	9.61000e+02	2.91269	270.5
963	2.74149e+02	9.63000e+02	2.91207	271.5
965	2.75204e+02	9.65000e+02	2.91142	272.5
967	2.76227e+02	9.67000e+02	2.91075	273.5
969	2.77264e+02	9.69000e+02	2.91002	274.5
971	2.78283e+02	9.71000e+02	2.90927	275.5
973	2.79325e+02	9.73000e+02	2.90846	276.5
975	2.80364e+02	9.75000e+02	2.90763	277.5
977	2.81419e+02	9.77000e+02	2.90672	278.5
979	2.82452e+02	9.79000e+02	2.90581	279.5
981	2.83441e+02	9.81000e+02	2.90483	280.5
983	2.84472e+02	9.83000e+02	2.90382	281.5
985	2.85485e+02	9.85000e+02	2.9027	282.5
987	2.86516e+02	9.87000e+02	2.90152	283.5
989	2.87574e+02	9.89000e+02	2.90018	284.5
991	2.88606e+02	9.91000e+02	2.89881	285.5
993	2.89663e+02	9.93000e+02	2.89729	286.5
995	2.90723e+02	9.95000e+02	2.89574	287.5
997	2.91799e+02	9.97000e+02	2.89403	288.5
999	2.92831e+02	9.99000e+02	2.89227	289.5
1001	2.93878e+02	1.00100e+03	2.8903	290.5
1003	2.94870e+02	1.00300e+03	2.88823	291.5
1005	2.95896e+02	1.00500e+03	2.8859	292.5
1007	2.96912e+02	1.00700e+03	2.88358	293.5
1009	2.97936e+02	1.00900e+03	2.88113	294.5
1011	2.98946e+02	1.01100e+03	2.87866	295.5
1013	2.99971e+02	1.01300e+03	2.87603	296.5
1015	3.00966e+02	1.01500e+03	2.8733	297.5
1017	3.01976e+02	1.01700e+03	2.87031	298.5
1019	3.03004e+02	1.01900e+03	2.86726	299.5
1021	3.04011e+02	1.02100e+03	2.86396	300.5
1023	3.05076e+02	1.02300e+03	2.86062	301.5
1025	3.06137e+02	1.02500e+03	2.85704	302.5
1027	3.07163e+02	1.02700e+03	2.85339	303.5
1029	3.08167e+02	1.02900e+03	2.8495	304.5
1031	3.09168e+02	1.03100e+03	2.84559	305.5
1033	3.10164e+02	1.03300e+03	2.84148	306.5
1035	3.11148e+02	1.03500e+03	2.83731	307.5
1037	3.12164e+02	1.03700e+03	2.83297	308.5
1039	3.13165e+02	1.03900e+03	2.82862	309.5
1041	3.14183e+02	1.04100e+03	2.82415	310.5
1043	3.15179e+02	1.04300e+03	2.81966	311.5
1045	3.16198e+02	1.04500e+03	2.81513	312.5
1047	3.17174e+02	1.04700e+03	2.81066	313.5
1049	3.18178e+02	1.04900e+03	2.80617	314.5
1051	3.19177e+02	1.05100e+03	2.80153	315.5
1053	3.20177e+02	1.05300e+03	2.7967	316.5
1055	3.21188e+02	1.05500e+03	2.79185	317.5
1057	3.22191e+02	1.05700e+03	2.78693	318.5
1059	3.23189e+02	1.05900e+03	2.78213	319.5
1061	3.24220e+02	1.06100e+03	2.77742	320.5
1063	3.25221e+02	1.06300e+03	2.77262	321.5
1065	3.26222e+02	1.06500e+03	2.76771	322.5
1067	3.27264e+02	1.06700e+03	2.76272	323.5
1069	3.28298e+02	1.06900e+03	2.7575	324.5
1071	3.29313e+02	1.07100e+03	2.75219	325.5
1073	3.30357e+02	1.07300e+03	2.74657	326.5
1075	3.31407e+02	1.07500e+03	2.74084	327.5
1077	3.32455e+02	1.07700e+03	2.73467	328.5
1079	3.33475e+02	1.07900e+03	2.72837	329.5
1081	3.34479e+02	1.08100e+03	2.72157	330.5
1083	3.35513e+02	1.08300e+03	2.71461	331.5
1085	3.36558e+02	1.08500e+03	2.70702	332.5
1087	3.37541e+02	1.08700e+03	2.6992	333.5
1089	3.38532e+02	1.08900e+03	2.69058	334.5
1091	3.39493e+02	1.09100e+03	2.68173	335.5
1093	3.40461e+02	1.09300e+03	2.67205	336.5
1095	3.41466e+02	1.09500e+03	2.66219	337.5
1097	3.42466e+02	1.09700e+03	2.65151	338.5
1099	3.43434e+02	1.09900e+03	2.64055	339.5
1101	3.44431e+02	1.10100e+03	2.62856	340.5
1103	3.45420e+02	1.10300e+03	2.61619	341.5
1105	3.46383e+02	1.10500e+03	2.60254	342.5
1107	3.47355e+02	1.10700e+03	2.58853	343.5
1109	3.48326e+02	1.10900e+03	2.57311	344.5
1111	3.49333e+02	1.11100e+03	2.55733	345.5
1113	3.50331e+02	1.11300e+03	2.54008	346.5
1115	3.51319e+02	1.11500e+03	2.52245	347.5
1117	3.52338e+02	1.11700e+03	2.50327	348.5
1119	3.53365e+02	1.11900e+03	2.48371	349.5
1121	3.54369e+02	1.12100e+03	2.46248	350.5
1123	3.55442e+02	1.12300e+03	2.44074	351.5
1125	3.56449e+02	1.12500e+03	2.41711	352.5
1127	3.57449e+02	1.12700e+03	2.39305	353.5
1129	3.58462e+02	1.12900e+03	2.36724	354.5
1131	3.59474e+02	1.13100e+03	2.34119	355.5
1133	3.60489e+02	1.13300e+03	2.31354	356.5
1135	3.61475e+02	1.13500e+03	2.28533	357.5
1137	3.62460e+02	1.13700e+03	2.2553	358.5
1139	3.63447e+02	1.13900e+03	2.225	359.5
1141	3.64437e+02	1.14100e+03	2.19301	360.5
1143	3.65416e+02	1.14300e+03	2.16055	361.5
1145	3.66401e+02	1.14500e+03	2.12639	362.5
1147	3.67398e+02	1.14700e+03	2.09184	363.5
1149	3.68389e+02	1.14900e+03	2.05567	364.5
1151	3.69377e+02	1.15100e+03	2.01921	365.5
1153	3.70365e+02	1.15300e+03	1.98129	366.5
1155	3.71349e+02	1.15500e+03	1.94303	367.5
1157	3.72320e+02	1.15700e+03	1.9033	368.5
1159	3.73314e+02	1.15900e+03	1.8632	369.5
1161	3.74308e+02	1.16100e+03	1.8216	370.5
1163	3.75307e+02	1.16300e+03	1.77969	371.5
1165	3.76324e+02	1.16500e+03	1.73643	372.5
1167	3.77319e+02	1.16700e+03	1.693	373.5
1169	3.78315e+02	1.16900e+03	1.6485	374.5
1171	3.79306e+02	1.17100e+03	1.60383	375.5
1173	3.80321e+02	1.17300e+03	1.55818	376.5
1175	3.81305e+02	1.17500e+03	1.51232	377.5
1177	3.82309e+02	1.17700e+03	1.46545	378.5
1179	3.83266e+02	1.17900e+03	1.41841	379.5
1181	3.84235e+02	1.18100e+03	1.37069	380.5
1183	3.85215e+02	1.18300e+03	1.32308	381.5
1185	3.86255e+02	1.18500e+03	1.27517	382.5
1187	3.87283e+02	1.18700e+03	1.2272	383.5
1189	3.88327e+02	1.18900e+03	1.17907	384.5
1191	3.89336e+02	1.19100e+03	1.13112	385.5
1193	3.90352e+02	1.19300e+03	1.08341	386.5
1195	3.91349e+02	1.19500e+03	1.03593	387.5
1197	3.92326e+02	1.19700e+03	0.989075	388.5
1199	3.93312e+02	1.19900e+03	0.942498	389.5
1201	3.94301e+02	1.20100e+03	0.896774	390.5
1203	3.95317e+02	1.20300e+03	0.851317	391.5
1205	3.96311e+02	1.20500e+03	0.807001	392.5
1207	3.97318e+02	1.20700e+03	0.76315	393.5
1209	3.98300e+02	1.20900e+03	0.720856	394.5
1211	3.99330e+02	1.21100e+03	0.679066	395.5
1213	4.00326e+02	1.21300e+03	0.639099	396.5
1215	4.01397e+02	1.21500e+03	0.599655	397.5
1217	4.02439e+02	1.21700e+03	0.562246	398.5
1219	4.03466e+02	1.21900e+03	0.525426	399.5
1221	4.04445e+02	1.22100e+03	0.490863	400.5
1223	4.05424e+02	1.22300e+03	0.456929	401.5
1225	4.06433e+02	1.22500e+03	0.425439	402.5
1227	4.07454e+02	1.22700e+03	0.394589	403.5
1229	4.08481e+02	1.22900e+03	0.366294	404.5
1231	4.09467e+02	1.23100e+03	0.338593	405.5
1233	4.10515e+02	1.23300e+03	0.313441	406.5
1235	4.11535e+02	1.23500e+03	0.288884	407.5
1237	4.12566e+02	1.23700e+03	0.266817	408.5
1239	4.13576e+02	1.23900e+03	0.245246	409.5
1241	4.14622e+02	1.24100e+03	0.225985	410.5
1243	4.15697e+02	1.24300e+03	0.207158	411.5
1245	4.16745e+02	1.24500e+03	0.190411	412.5
1247	4.17775e+02	1.24700e+03	0.174068	413.5
1249	4.18780e+02	1.24900e+03	0.159679	414.5
1251	4.19793e+02	1.25100e+03	0.145725	415.5
1253	4.20807e+02	1.25300e+03	0.133629	416.5
1255	4.21841e+02	1.25500e+03	0.121872	417.5
1257	4.22891e+02	1.25700e+03	0.111775	418.5
1259	4.23880e+02	1.25900e+03	0.101986	419.5
1261	4.24936e+02	1.26100e+03	0.0936501	420.5
1263	4.25944e+02	1.26300e+03	0.0855617	421.5
1265	4.26945e+02	1.26500e+03	0.0787616	422.5
1267	4.27950e+02	1.26700e+03	0.072231	423.5
1269	4.28890e+02	1.26900e+03	0.0668793	424.5
1271	4.29892e+02	1.27100e+03	0.0617087	425.5
1273	4.30885e+02	1.27300e+03	0.0575018	426.5
1275	4.31879e+02	1.27500e+03	0.0534213	427.5
1277	4.32869e+02	1.27700e+03	0.050111	428.5
1279	4.33842e+02	1.27900e+03	0.0469054	429.5
1281	4.34799e+02	1.28100e+03	0.0443194	430.5
1283	4.35772e+02	1.28300e+03	0.0418167	431.5
1285	4.36752e+02	1.28500e+03	0.039809	432.5
1287	4.37722e+02	1.28700e+03	0.037883	433.5
1289	4.38708e+02	1.28900e+03	0.0363715	434.5
1291	4.39731e+02	1.29100e+03	0.0349101	435.5
1293	4.40709e+02	1.29300e+03	0.0337692	436.5
1295	4.41718e+02	1.29500e+03	0.0326647	437.5
1297	4.42717e+02	1.29700e+03	0.0317918	438.5
1299	4.43687e+02	1.29900e+03	0.0309388	439.5
1301	4.44673e+02	1.30100e+03	0.0302376	440.5
1303	4.45679e+02	1.30300e+03	0.0295423	441.5
1305	4.46677e+02	1.30500e+03	0.0289454	442.5
1307	4.47625e+02	1.30700e+03	0.028362	443.5
1309	4.48642e+02	1.30900e+03	0.0278683	444.5
1311	4.49584e+02	1.31100e+03	0.0274059	445.5
1313	4.50528e+02	1.31300e+03	0.0270335	446.5
1315	4.51533e+02	1.31500e+03	0.0266583	447.5
1317	4.52525e+02	1.31700e+03	0.0263417	448.5
1319	4.53534e+02	1.31900e+03	0.0260404	449.5
1321	4.54574e+02	1.32100e+03	0.025798	450.5
1323	4.55575e+02	1.32300e+03	0.0255755	451.5
1325	4.56554e+02	1.32500e+03	0.025433	452.5
1327	4.57537e+02	1.32700e+03	0.0252946	453.5
1329	4.58483e+02	1.32900e+03	0.0251716	454.5
1331	4.59493e+02	1.33100e+03	0.0250232	455.5
1333	4.60496e+02	1.33300e+03	0.0248903	456.5
1335	4.61588e+02	1.33500e+03	0.0248223	457.5
1337	4.62667e+02	1.33700e+03	0.0248507	458.5
1339	4.63809e+02	1.33900e+03	0.0248617	459.5
1341	4.64762e+02	1.34100e+03	0.0248588	460.5
1343	4.65845e+02	1.34300e+03	0.0248119	461.5
1345	4.66896e+02	1.34500e+03	0.0247112	462.5
1347	4.68307e+02	1.34700e+03	0.0246339	463.5
1349	4.69118e+02	1.34900e+03	0.0245314	464.5
1351	4.69828e+02	1.35100e+03	0.0244109	465.5
1353	4.70767e+02	1.35300e+03	0.0243249	466.5
1355	4.71733e+02	1.35500e+03	0.0243065	467.5
1357	4.72727e+02	1.35700e+03	0.0243669	468.5
1359	4.73755e+02	1.35900e+03	0.024385	469.5
1361	4.74762e+02	1.36100e+03	0.0243826	470.5
1363	4.75669e+02	1.36300e+03	0.0243682	471.5
1365	4.76653e+02	1.36500e+03	0.0243562	472.5
1367	4.77664e+02	1.36700e+03	0.0243878	473.5
1369	4.78569e+02	1.36900e+03	0.0244043	474.5
1371	4.79277e+02	1.37100e+03	0.024347	475.5
1373	4.80158e+02	1.37300e+03	0.0242262	476.5
1375	4.81035e+02	1.37500e+03	0.0241551	477.5
1377	4.82022e+02	1.37700e+03	0.024111	478.5
1379	4.82899e+02	1.37900e+03	0.0240724	479.5
1381	4.83864e+02	1.38100e+03	0.0240628	480.5
1383	4.84827e+02	1.38300e+03	0.0240465	481.5
1385	4.85741e+02	1.38500e+03	0.0240191	482.5
1387	4.86700e+02	1.38700e+03	0.0239805	483.5
1389	4.87605e+02	1.38900e+03	0.0239355	484.5
1391	4.88537e+02	1.39100e+03	0.0239096	485.5
1393	4.89487e+02	1.39300e+03	0.0239035	486.5
1395	4.90448e+02	1.39500e+03	0.0238956	487.5
1397	4.91411e+02	1.39700e+03	0.0238918	488.5
1399	4.92471e+02	1.39900e+03	0.0238787	489.5
1401	4.93527e+02	1.40100e+03	0.023863	490.5
1403	4.94498e+02	1.40300e+03	0.0238497	491.5
1405	4.95414e+02	1.40500e+03	0.0238253	492.5
1407	4.96419e+02	1.40700e+03	0.0237941	493.5
1409	4.97408e+02	1.40900e+03	0.0237555	494.5
1411	4.98405e+02	1.41100e+03	0.0237236	495.5
1413	4.99497e+02	1.41300e+03	0.0236921	496.5
1415	5.00448e+02	1.41500e+03	0.0236574	497.5
1417	5.01585e+02	1.41700e+03	0.0236301	498.5
1419	5.02608e+02	1.41900e+03	0.0236113	499.5
1421	5.03440e+02	1.42100e+03	0.0235784	500.5
1423	5.04405e+02	1.42300e+03	0.0235075	501.5
1425	5.05296e+02	1.42500e+03	0.0233801	502.5
1427	5.06228e+02	1.42700e+03	0.0232632	503.5
1429	5.07161e+02	1.42900e+03	0.0231583	504.5
1431	5.08205e+02	1.43100e+03	0.0230959	505.5
1433	5.09162e+02	1.43300e+03	0.023127	506.5
1435	5.10059e+02	1.43500e+03	0.0231818	507.5
1437	5.11044e+02	1.43700e+03	0.0232818	508.5
1439	5.12013e+02	1.43900e+03	0.0233207	509.5
1441	5.12991e+02	1.44100e+03	0.0233103	510.5
1443	5.13938e+02	1.44300e+03	0.0233069	511.5
1445	5.14892e+02	1.44500e+03	0.0232736	512.5
1447	5.15875e+02	1.44700e+03	0.0232346	513.5
1449	5.16842e+02	1.44900e+03	0.0231915	514.5
1451	5.17853e+02	1.45100e+03	0.0231732	515.5
1453	5.18831e+02	1.45300e+03	0.0231799	516.5
1455	5.19795e+02	1.45500e+03	0.023187	517.5
1457	5.20780e+02	1.45700e+03	0.023209	518.5
1459	5.21784e+02	1.45900e+03	0.0232176	519.5
1461	5.22769e+02	1.46100e+03	0.0232102	520.5
1463	5.23779e+02	1.46300e+03	0.0231903	521.5
1465	5.24770e+02	1.46500e+03	0.0231442	522.5
1467	5.25758e+02	1.46700e+03	0.0230967	523.5
1469	5.26732e+02	1.46900e+03	0.0230419	524.5
1471	5.27709e+02	1.47100e+03	0.0230054	525.5
1473	5.28705e+02	1.47300e+03	0.0230187	526.5
1475	5.29692e+02	1.47500e+03	0.0230684	527.5
1477	5.30673e+02	1.47700e+03	0.0231766	528.5
1479	5.31685e+02	1.47900e+03	0.0232509	529.5
1481	5.32715e+02	1.48100e+03	0.0232909	530.5
1483	5.33805e+02	1.48300e+03	0.0233027	531.5
1485	5.34861e+02	1.48500e+03	0.0232642	532.5
1487	5.35930e+02	1.48700e+03	0.0232447	533.5
1489	5.36884e+02	1.48900e+03	0.0232214	534.5
1491	5.37907e+02	1.49100e+03	0.0232023	535.5
1493	5.39083e+02	1.49300e+03	0.0231744	536.5
1495	5.40100e+02	1.49500e+03	0.0231122	537.5
1497	5.41109e+02	1.49700e+03	0.0230095	538.5
1499	5.42077e+02	1.49900e+03	0.0229544	539.5
1501	5.43063e+02	1.50100e+03	0.0229447	540.5
1503	5.44056e+02	1.50300e+03	0.0229221	541.5
1505	5.45049e+02	1.50500e+03	0.0228935	542.5
1507	5.45994e+02	1.50700e+03	0.0228602	543.5
1509	5.46912e+02	1.50900e+03	0.0229268	544.5
1511	5.47929e+02	1.51100e+03	0.0231036	545.5
1513	5.48988e+02	1.51300e+03	0.0232511	546.5
1515	5.49946e+02	1.51500e+03	0.0231425	547.5
1517	5.50820e+02	1.51700e+03	0.0227934	548.5
1519	5.51744e+02	1.51900e+03	0.0226169	549.5
1521	5.52667e+02	1.52100e+03	0.0225595	550.5
1523	5.53565e+02	1.52300e+03	0.0225524	551.5
1525	5.54503e+02	1.52500e+03	0.022667	552.5
1527	5.55465e+02	1.52700e+03	0.0227245	553.5
1529	5.56451e+02	1.52900e+03	0.0227446	554.5
1531	5.57428e+02	1.53100e+03	0.022745	555.5
1533	5.58390e+02	1.53300e+03	0.0226906	556.5
1535	5.59348e+02	1.53500e+03	0.0226205	557.5
1537	5.60346e+02	1.53700e+03	0.0225157	558.5
1539	5.61360e+02	1.53900e+03	0.0224582	559.5
1541	5.62333e+02	1.54100e+03	0.0224817	560.5
1543	5.63298e+02	1.54300e+03	0.0225469	561.5
1545	5.64259e+02	1.54500e+03	0.0226677	562.5
1547	5.65239e+02	1.54700e+03	0.0227059	563.5
1549	5.66215e+02	1.54900e+03	0.0226577	564.5
1551	5.67199e+02	1.55100e+03	0.0226163	565.5
1553	5.68151e+02	1.55300e+03	0.0225392	566.5
1555	5.69135e+02	1.55500e+03	0.0224785	567.5
1557	5.70093e+02	1.55700e+03	0.0224245	568.5
1559	5.71061e+02	1.55900e+03	0.0223706	569.5
1561	5.72044e+02	1.56100e+03	0.0223274	570.5
1563	5.73046e+02	1.56300e+03	0.0223022	571.5
1565	5.74076e+02	1.56500e+03	0.0223047	572.5
1567	5.75081e+02	1.56700e+03	0.0223023	573.5
1569	5.76093e+02	1.56900e+03	0.0223179	574.5
1571	5.77094e+02	1.57100e+03	0.0223325	575.5
1573	5.78100e+02	1.57300e+03	0.0223359	576.5
1575	5.79116e+02	1.57500e+03	0.0223192	577.5
1577	5.80104e+02	1.57700e+03	0.022284	578.5
1579	5.80884e+02	1.57900e+03	0.0222798	579.5
1581	5.82275e+02	1.58100e+03	0.0223181	580.5
1583	5.83057e+02	1.58300e+03	0.0223743	581.5
1585	5.84011e+02	1.58500e+03	0.0224604	582.5
1587	5.84935e+02	1.58700e+03	0.0224971	583.5
1589	5.85894e+02	1.58900e+03	0.0224309	584.5
1591	5.86856e+02	1.59100e+03	0.0223102	585.5
1593	5.87806e+02	1.59300e+03	0.0221123	586.5
1595	5.88784e+02	1.59500e+03	0.0220115	587.5
1597	5.89714e+02	1.59700e+03	0.0219985	588.5
1599	5.90693e+02	1.59900e+03	0.021983	589.5
1601	5.91690e+02	1.60100e+03	0.0219729	590.5
1603	5.92660e+02	1.60300e+03	0.0218948	591.5
1605	5.93615e+02	1.60500e+03	0.0217554	592.5
1607	5.94586e+02	1.60700e+03	0.0216509	593.5
1609	5.95581e+02	1.60900e+03	0.0216125	594.5
1611	5.96537e+02	1.61100e+03	0.0216282	595.5
1613	5.97486e+02	1.61300e+03	0.0217271	596.5
1615	5.98433e+02	1.61500e+03	0.0217895	597.5
1617	5.99396e+02	1.61700e+03	0.0218382	598.5
1619	6.00366e+02	1.61900e+03	0.0218754	599.5
1621	6.01331e+02	1.62100e+03	0.0218795	600.5
1623	6.02307e+02	1.62300e+03	0.0218803	601.5
1625	6.03290e+02	1.62500e+03	0.021874	602.5
1627	6.04277e+02	1.62700e+03	0.0218822	603.5
1629	6.05255e+02	1.62900e+03	0.0218912	604.5
1631	6.06236e+02	1.63100e+03	0.0218771	605.5
1633	6.07228e+02	1.63300e+03	0.0218442	606.5
1635	6.08210e+02	1.63500e+03	0.0218224	607.5
1637	6.09192e+02	1.63700e+03	0.0217955	608.5
1639	6.10174e+02	1.63900e+03	0.0217731	609.5
1641	6.11168e+02	1.64100e+03	0.0217578	610.5
1643	6.12143e+02	1.64300e+03	0.0217455	611.5
1645	6.13124e+02	1.64500e+03	0.0217496	612.5
1647	6.14118e+02	1.64700e+03	0.0217593	613.5
1649	6.15097e+02	1.64900e+03	0.0217727	614.5
1651	6.16077e+02	1.65100e+03	0.0217654	615.5
1653	6.17056e+02	1.65300e+03	0.0217327	616.5
1655	6.18042e+02	1.65500e+03	0.0217026	617.5
1657	6.19023e+02	1.65700e+03	0.0216772	618.5
1659	6.20007e+02	1.65900e+03	0.0216759	619.5
1661	6.20988e+02	1.66100e+03	0.0217022	620.5
1663	6.21951e+02	1.66300e+03	0.0217254	621.5
1665	6.22934e+02	1.66500e+03	0.0217862	622.5
1667	6.23903e+02	1.66700e+03	0.0218838	623.5
1669	6.24873e+02	1.66900e+03	0.0220167	624.5
1671	6.25828e+02	1.67100e+03	0.0220809	625.5
1673	6.26809e+02	1.67300e+03	0.022009	626.5
1675	6.27782e+02	1.67500e+03	0.0218682	627.5
1677	6.28762e+02	1.67700e+03	0.0216413	628.5
1679	6.29747e+02	1.67900e+03	0.0215414	629.5
1681	6.30751e+02	1.68100e+03	0.02155	630.5
1683	6.31756e+02	1.68300e+03	0.0215441	631.5
1685	6.32775e+02	1.68500e+03	0.021585	632.5
1687	6.33804e+02	1.68700e+03	0.0216115	633.5
1689	6.34831e+02	1.68900e+03	0.0216275	634.5
1691	6.35864e+02	1.69100e+03	0.0216351	635.5
1693	6.36887e+02	1.69300e+03	0.0216354	636.5
1695	6.37897e+02	1.69500e+03	0.021649	637.5
1697	6.38911e+02	1.69700e+03	0.0216592	638.5
1699	6.39919e+02	1.69900e+03	0.0216489	639.5
1701	6.40927e+02	1.70100e+03	0.021608	640.5
1703	6.41943e+02	1.70300e+03	0.0215648	641.5
1705	6.42965e+02	1.70500e+03	0.0215114	642.5
1707	6.43989e+02	1.70700e+03	0.0214761	643.5
1709	6.45015e+02	1.70900e+03	0.0214799	644.5
1711	6.46066e+02	1.71100e+03	0.0214995	645.5
1713	6.47094e+02	1.71300e+03	0.0215435	646.5
1715	6.48109e+02	1.71500e+03	0.0215594	647.5
1717	6.49112e+02	1.71700e+03	0.0215563	648.5
1719	6.50112e+02	1.71900e+03	0.0215612	649.5
1721	6.51148e+02	1.72100e+03	0.0215583	650.5
1723	6.52159e+02	1.72300e+03	0.0215419	651.5
1725	6.53184e+02	1.72500e+03	0.0214964	652.5
1727	6.54205e+02	1.72700e+03	0.0214499	653.5
1729	6.55179e+02	1.72900e+03	0.0214075	654.5
1731	6.56179e+02	1.73100e+03	0.0213943	655.5
1733	6.57154e+02	1.73300e+03	0.0214229	656.5
1735	6.58094e+02	1.73500e+03	0.0214475	657.5
1737	6.59092e+02	1.73700e+03	0.0214819	658.5
1739	6.60086e+02	1.73900e+03	0.0214975	659.5
1741	6.61062e+02	1.74100e+03	0.0214734	660.5
1743	6.62055e+02	1.74300e+03	0.0214404	661.5
1745	6.63053e+02	1.74500e+03	0.0213938	662.5
1747	6.64050e+02	1.74700e+03	0.0213726	663.5
1749	6.65050e+02	1.74900e+03	0.0213795	664.5
1751	6.66053e+02	1.75100e+03	0.0213851	665.5
1753	6.67013e+02	1.75300e+03	0.021409	666.5
1755	6.67983e+02	1.75500e+03	0.021431	667.5
1757	6.68970e+02	1.75700e+03	0.0214361	668.5
1759	6.69947e+02	1.75900e+03	0.0214182	669.5
1761	6.70942e+02	1.76100e+03	0.0213833	670.5
1763	6.71941e+02	1.76300e+03	0.021368	671.5
1765	6.72948e+02	1.76500e+03	0.0213566	672.5
1767	6.73954e+02	1.76700e+03	0.0213369	673.5
1769	6.74955e+02	1.76900e+03	0.0213201	674.5
1771	6.75938e+02	1.77100e+03	0.0213164	675.5
1773	6.76924e+02	1.77300e+03	0.0213097	676.5
1775	6.77898e+02	1.77500e+03	0.021295	677.5
1777	6.78886e+02	1.77700e+03	0.0212999	678.5
1779	6.79873e+02	1.77900e+03	0.0213384	679.5
1781	6.80871e+02	1.78100e+03	0.0213948	680.5
1783	6.81870e+02	1.78300e+03	0.0213882	681.5
1785	6.82880e+02	1.78500e+03	0.0213114	682.5
1787	6.83893e+02	1.78700e+03	0.0212552	683.5
1789	6.84882e+02	1.78900e+03	0.0211958	684.5
1791	6.85881e+02	1.79100e+03	0.0211705	685.5
1793	6.86864e+02	1.79300e+03	0.021198	686.5
1795	6.87506e+02	1.79500e+03	0.0212255	687.5
1797	6.87980e+02	1.79700e+03	0.0212862	688.5
1799	6.88714e+02	1.79900e+03	0.0213403	689.5
1801	6.89404e+02	1.80100e+03	0.0213796	690.5
1803	6.90041e+02	1.80300e+03	0.0213776	691.5
1805	6.90645e+02	1.80500e+03	0.0213344	692.5
1807	6.91202e+02	1.80700e+03	0.0212979	693.5
1809	6.91733e+02	1.80900e+03	0.0212648	694.5
1811	6.92234e+02	1.81100e+03	0.0212529	695.5
1813	6.92705e+02	1.81300e+03	0.0212805	696.5
1815	6.93174e+02	1.81500e+03	0.0213465	697.5
1817	6.93612e+02	1.81700e+03	0.0215129	698.5
1819	6.94020e+02	1.81900e+03	0.0216734	699.5
1821	6.94389e+02	1.82100e+03	0.0217458	700.0
1823	6.94740e+02	1.82300e+03	0.0216452	700.0
1825	6.95074e+02	1.82500e+03	0.0213307	700.0
1827	6.95393e+02	1.82700e+03	0.0211236	700.0
1829	6.95689e+02	1.82900e+03	0.0209893	700.0
1831	6.95969e+02	1.83100e+03	0.0209374	700.0
1833	6.96245e+02	1.83300e+03	0.0210115	700.0
1835	6.96497e+02	1.83500e+03	0.0210345	700.0
1837	6.96732e+02	1.83700e+03	0.0210702	700.0
1839	6.96953e+02	1.83900e+03	0.0211208	700.0
1841	6.97173e+02	1.84100e+03	0.0211824	700.0
1843	6.97364e+02	1.84300e+03	0.0212281	700.0
1845	6.97554e+02	1.84500e+03	0.0212735	700.0
1847	6.97735e+02	1.84700e+03	0.0213267	700.0
1849	6.97899e+02	1.84900e+03	0.0213817	700.0
1851	6.98040e+02	1.85100e+03	0.0214231	700.0
1853	6.98177e+02	1.85300e+03	0.0214391	700.0
1855	6.98304e+02	1.85500e+03	0.0214367	700.0
1857	6.98427e+02	1.85700e+03	0.0213818	700.0
1859	6.98550e+02	1.85900e+03	0.0213223	700.0
1861	6.98674e+02	1.86100e+03	0.021239	700.0
1863	6.98780e+02	1.86300e+03	0.0211821	700.0
1865	6.98887e+02	1.86500e+03	0.0211718	700.0
1867	6.98978e+02	1.86700e+03	0.0211978	700.0
1869	6.99076e+02	1.86900e+03	0.0213213	700.0
1871	6.99155e+02	1.87100e+03	0.0214618	700.0
1873	6.99240e+02	1.87300e+03	0.0216346	700.0
1875	6.99315e+02	1.87500e+03	0.0217354	700.0
1877	6.99397e+02	1.87700e+03	0.0217207	700.0
1879	6.99469e+02	1.87900e+03	0.021674	700.0
1881	6.99540e+02	1.88100e+03	0.0215391	700.0
1883	6.99604e+02	1.88300e+03	0.0214493	700.0
1885	6.99671e+02	1.88500e+03	0.0213905	700.0
1887	6.99717e+02	1.88700e+03	0.0213603	700.0
1889	6.99784e+02	1.88900e+03	0.021372	700.0
1891	6.99845e+02	1.89100e+03	0.0213725	700.0
1893	6.99885e+02	1.89300e+03	0.0213768	700.0
1895	6.99924e+02	1.89500e+03	0.0213842	700.0
1897	6.99970e+02	1.89700e+03	0.0213905	700.0
1899	7.00007e+02	1.89900e+03	0.0214001	700.0
1901	7.00047e+02	1.90100e+03	0.0214161	700.0
1903	7.00071e+02	1.90300e+03	0.0214386	700.0
1905	7.00114e+02	1.90500e+03	0.0214578	700.0
1907	7.00136e+02	1.90700e+03	0.0214678	700.0
1909	7.00173e+02	1.90900e+03	0.0214476	700.0
1911	7.00187e+02	1.91100e+03	0.021407	700.0
1913	7.00219e+02	1.91300e+03	0.0213396	700.0
1915	7.00243e+02	1.91500e+03	0.0212915	700.0
1917	7.00269e+02	1.91700e+03	0.0212632	700.0
1919	7.00294e+02	1.91900e+03	0.0212497	700.0
1921	7.00316e+02	1.92100e+03	0.0212811	700.0
1923	7.00344e+02	1.92300e+03	0.0213123	700.0
1925	7.00360e+02	1.92500e+03	0.0213546	700.0
1927	7.00384e+02	1.92700e+03	0.0213699	700.0
1929	7.00404e+02	1.92900e+03	0.0213718	700.0
1931	7.00421e+02	1.93100e+03	0.0213972	700.0
1933	7.00442e+02	1.93300e+03	0.0214336	700.0
1935	7.00453e+02	1.93500e+03	0.0214648	700.0
1937	7.00470e+02	1.93700e+03	0.0214909	700.0
1939	7.00488e+02	1.93900e+03	0.0215047	700.0
1941	7.00501e+02	1.94100e+03	0.0214919	700.0
1943	7.00515e+02	1.94300e+03	0.0214741	700.0
1945	7.00524e+02	1.94500e+03	0.0214347	700.0
1947	7.00538e+02	1.94700e+03	0.0214046	700.0
1949	7.00557e+02	1.94900e+03	0.0213872	700.0
1951	7.00555e+02	1.95100e+03	0.0213879	700.0
1953	7.00563e+02	1.95300e+03	0.0214138	700.0
1955	7.00589e+02	1.95500e+03	0.0214311	700.0
1957	7.00591e+02	1.95700e+03	0.0214441	700.0
1959	7.00611e+02	1.95900e+03	0.0214365	700.0
1961	7.00614e+02	1.96100e+03	0.0214181	700.0
1963	7.00632e+02	1.96300e+03	0.0214237	700.0
1965	7.00629e+02	1.96500e+03	0.0214452	700.0
1967	7.00634e+02	1.96700e+03	0.0214619	700.0
1969	7.00640e+02	1.96900e+03	0.0214768	700.0
1971	7.00648e+02	1.97100e+03	0.021481	700.0
1973	7.00647e+02	1.97300e+03	0.021479	700.0
1975	7.00665e+02	1.97500e+03	0.0214804	700.0
1977	7.00663e+02	1.97700e+03	0.0214826	700.0
1979	7.00676e+02	1.97900e+03	0.0214849	700.0
1981	7.00680e+02	1.98100e+03	0.0214997	700.0
1983	7.00686e+02	1.98300e+03	0.0215289	700.0
1985	7.00687e+02	1.98500e+03	0.0215869	700.0
1987	7.00689e+02	1.98700e+03	0.0216251	700.0
1989	7.00698e+02	1.98900e+03	0.021641	700.0
1991	7.00705e+02	1.99100e+03	0.0216354	700.0
1993	7.00698e+02	1.99300e+03	0.0215744	700.0
1995	7.00714e+02	1.99500e+03	0.0215195	700.0
1997	7.00711e+02	1.99700e+03	0.021457	700.0
1999	7.00722e+02	1.99900e+03	0.0214193	700.0
2001	7.00709e+02	2.00100e+03	0.0214144	700.0
2003	7.00727e+02	2.00300e+03	0.0214076	700.0
2005	7.00720e+02	2.00500e+03	0.0214249	700.0
2007	7.00721e+02	2.00700e+03	0.0214551	700.0
2009	7.00724e+02	2.00900e+03	0.0215026	700.0
2011	7.00735e+02	2.01100e+03	0.0215473	700.0
2013	7.00732e+02	2.01300e+03	0.021604	700.0
2015	7.00734e+02	2.01500e+03	0.0216479	700.0
2017	7.00730e+02	2.01700e+03	0.0216366	700.0
2019	7.00730e+02	2.01900e+03	0.0215676	700.0
2021	7.00736e+02	2.02100e+03	0.0214246	700.0
2023	7.00739e+02	2.02300e+03	0.0213228	700.0
2025	7.00735e+02	2.02500e+03	0.021252	700.0
2027	7.00739e+02	2.02700e+03	0.0212179	700.0
2029	7.00733e+02	2.02900e+03	0.021262	700.0
2031	7.00739e+02	2.03100e+03	0.0212968	700.0
2033	7.00734e+02	2.03300e+03	0.0213404	700.0
2035	7.00735e+02	2.03500e+03	0.0213444	700.0
2037	7.00735e+02	2.03700e+03	0.0212935	700.0
2039	7.00742e+02	2.03900e+03	0.0212592	700.0
2041	7.00739e+02	2.04100e+03	0.021222	700.0
2043	7.00727e+02	2.04300e+03	0.0212108	700.0
2045	7.00739e+02	2.04500e+03	0.0212438	700.0
2047	7.00727e+02	2.04700e+03	0.0212849	700.0
2049	7.00732e+02	2.04900e+03	0.0213578	700.0
2051	7.00728e+02	2.05100e+03	0.0214165	700.0
2053	7.00725e+02	2.05300e+03	0.0214666	700.0
2055	7.00718e+02	2.05500e+03	0.021497	700.0
2057	7.00733e+02	2.05700e+03	0.0214882	700.0
2059	7.00718e+02	2.05900e+03	0.0214728	700.0
2061	7.00715e+02	2.06100e+03	0.0214145	700.0
2063	7.00724e+02	2.06300e+03	0.0213596	700.0
2065	7.00727e+02	2.06500e+03	0.0212939	700.0
2067	7.00707e+02	2.06700e+03	0.0212358	700.0
2069	7.00719e+02	2.06900e+03	0.0212081	700.0
2071	7.00713e+02	2.07100e+03	0.021204	700.0
2073	7.00711e+02	2.07300e+03	0.021237	700.0
2075	7.00720e+02	2.07500e+03	0.0212582	700.0
2077	7.00720e+02	2.07700e+03	0.0212535	700.0
2079	7.00715e+02	2.07900e+03	0.021223	700.0
2081	7.00711e+02	2.08100e+03	0.021172	700.0
2083	7.00714e+02	2.08300e+03	0.0211516	700.0
2085	7.00713e+02	2.08500e+03	0.0211707	700.0
2087	7.00703e+02	2.08700e+03	0.0211891	700.0
2089	7.00709e+02	2.08900e+03	0.0212377	700.0
2091	7.00704e+02	2.09100e+03	0.0212933	700.0
2093	7.00708e+02	2.09300e+03	0.0213505	700.0
2095	7.00698e+02	2.09500e+03	0.0213848	700.0
2097	7.00701e+02	2.09700e+03	0.0213829	700.0
2099	7.00702e+02	2.09900e+03	0.0213777	700.0
2101	7.00694e+02	2.10100e+03	0.0213578	700.0
2103	7.00692e+02	2.10300e+03	0.0213608	700.0
2105	7.00691e+02	2.10500e+03	0.0213824	700.0
2107	7.00689e+02	2.10700e+03	0.021405	700.0
2109	7.00691e+02	2.10900e+03	0.021419	700.0
2111	7.00685e+02	2.11100e+03	0.0214113	700.0
2113	7.00688e+02	2.11300e+03	0.0213761	700.0
2115	7.00685e+02	2.11500e+03	0.021353	700.0
2117	7.00678e+02	2.11700e+03	0.0213244	700.0
2119	7.00679e+02	2.11900e+03	0.0213001	700.0
2121	7.00681e+02	2.12100e+03	0.0212886	700.0
2123	7.00680e+02	2.12300e+03	0.0212944	700.0
2125	7.00674e+02	2.12500e+03	0.021337	700.0
2127	7.00686e+02	2.12700e+03	0.0213771	700.0
2129	7.00664e+02	2.12900e+03	0.0214272	700.0
2131	7.00670e+02	2.13100e+03	0.0214704	700.0
2133	7.00660e+02	2.13300e+03	0.0214941	700.0
2135	7.00663e+02	2.13500e+03	0.0215138	700.0
2137	7.00657e+02	2.13700e+03	0.0215158	700.0
2139	7.00661e+02	2.13900e+03	0.0215118	700.0
2141	7.00661e+02	2.14100e+03	0.0214834	700.0
2143	7.00652e+02	2.14300e+03	0.0214446	700.0
2145	7.00639e+02	2.14500e+03	0.0213943	700.0
2147	7.00649e+02	2.14700e+03	0.0213687	700.0
2149	7.00641e+02	2.14900e+03	0.0213932	700.0
2151	7.00638e+02	2.15100e+03	0.0214205	700.0
2153	7.00637e+02	2.15300e+03	0.0214591	700.0
2155	7.00640e+02	2.15500e+03	0.0214662	700.0
2157	7.00637e+02	2.15700e+03	0.0214388	700.0
2159	7.00637e+02	2.15900e+03	0.0214285	700.0
2161	7.00634e+02	2.16100e+03	0.021423	700.0
2163	7.00630e+02	2.16300e+03	0.0214137	700.0
2165	7.00636e+02	2.16500e+03	0.0214155	700.0
2167	7.00634e+02	2.16700e+03	0.0214205	700.0
2169	7.00629e+02	2.16900e+03	0.0214118	700.0
2171	7.00624e+02	2.17100e+03	0.0213922	700.0
2173	7.00623e+02	2.17300e+03	0.0213853	700.0
2175	7.00619e+02	2.17500e+03	0.021411	700.0
2177	7.00621e+02	2.17700e+03	0.0214644	700.0
2179	7.00622e+02	2.17900e+03	0.0214878	700.0
2181	7.00613e+02	2.18100e+03	0.0214801	700.0
2183	7.00614e+02	2.18300e+03	0.0214672	700.0
2185	7.00617e+02	2.18500e+03	0.0214365	700.0
2187	7.00614e+02	2.18700e+03	0.0214186	700.0
2189	7.00609e+02	2.18900e+03	0.0214127	700.0
2191	7.00612e+02	2.19100e+03	0.0214105	700.0
2193	7.00599e+02	2.19300e+03	0.021422	700.0
2195	7.00604e+02	2.19500e+03	0.0214337	700.0
2197	7.00601e+02	2.19700e+03	0.0214576	700.0
2199	7.00601e+02	2.19900e+03	0.0214877	700.0
2201	7.00600e+02	2.20100e+03	0.0215114	700.0
2203	7.00592e+02	2.20300e+03	0.0215174	700.0
2205	7.00603e+02	2.20500e+03	0.0214773	700.0
2207	7.00590e+02	2.20700e+03	0.0214309	700.0
2209	7.00593e+02	2.20900e+03	0.021362	700.0
2211	7.00586e+02	2.21100e+03	0.0213172	700.0
2213	7.00580e+02	2.21300e+03	0.0213065	700.0
2215	7.00577e+02	2.21500e+03	0.0213149	700.0
2217	7.00574e+02	2.21700e+03	0.021352	700.0
2219	7.00576e+02	2.21900e+03	0.0213755	700.0
2221	7.00572e+02	2.22100e+03	0.0213887	700.0
2223	7.00554e+02	2.22300e+03	0.0214016	700.0
2225	7.00562e+02	2.22500e+03	0.0214118	700.0
2227	7.00551e+02	2.22700e+03	0.021425	700.0
2229	7.00561e+02	2.22900e+03	0.0214389	700.0
2231	7.00547e+02	2.23100e+03	0.0214419	700.0
2233	7.00554e+02	2.23300e+03	0.0214316	700.0
2235	7.00543e+02	2.23500e+03	0.0214147	700.0
2237	7.00542e+02	2.23700e+03	0.0213869	700.0
2239	7.00529e+02	2.23900e+03	0.021363	700.0
2241	7.00528e+02	2.24100e+03	0.0213452	700.0
2243	7.00521e+02	2.24300e+03	0.0213437	700.0
2245	7.00510e+02	2.24500e+03	0.021373	700.0
2247	7.00496e+02	2.24700e+03	0.0214111	700.0
2249	7.00489e+02	2.24900e+03	0.0214805	700.0
2251	7.00482e+02	2.25100e+03	0.0215434	700.0
2253	7.00477e+02	2.25300e+03	0.0215902	700.0
2255	7.00463e+02	2.25500e+03	0.0216016	700.0
2257	7.00467e+02	2.25700e+03	0.0215502	700.0
2259	7.00459e+02	2.25900e+03	0.0215006	700.0
2261	7.00455e+02	2.26100e+03	0.0214137	700.0
2263	7.00442e+02	2.26300e+03	0.0213201	700.0
2265	7.00436e+02	2.26500e+03	0.0212148	700.0
2267	7.00432e+02	2.26700e+03	0.0211358	700.0
2269	7.00438e+02	2.26900e+03	0.0211479	700.0
2271	7.00429e+02	2.27100e+03	0.0212255	700.0
2273	7.00423e+02	2.27300e+03	0.0214403	700.0
2275	7.00417e+02	2.27500e+03	0.0216214	700.0
2277	7.00422e+02	2.27700e+03	0.0217821	700.0
2279	7.00401e+02	2.27900e+03	0.0218817	700.0
2281	7.00401e+02	2.28100e+03	0.0218822	700.0
2283	7.00392e+02	2.28300e+03	0.0218881	700.0
2285	7.00389e+02	2.28500e+03	0.0218245	700.0
2287	7.00391e+02	2.28700e+03	0.021759	700.0
2289	7.00386e+02	2.28900e+03	0.0216722	700.0
2291	7.00377e+02	2.29100e+03	0.0216332	700.0
2293	7.00378e+02	2.29300e+03	0.0216287	700.0
2295	7.00375e+02	2.29500e+03	0.0215995	700.0
2297	7.00365e+02	2.29700e+03	0.0215642	700.0
2299	7.00364e+02	2.29900e+03	0.0215207	700.0
2301	7.00365e+02	2.30100e+03	0.0214732	700.0
2303	7.00359e+02	2.30300e+03	0.0214615	700.0
2305	7.00359e+02	2.30500e+03	0.0214836	700.0
2307	7.00355e+02	2.30700e+03	0.0214987	700.0
2309	7.00352e+02	2.30900e+03	0.0215326	700.0
2311	7.00341e+02	2.31100e+03	0.0215522	700.0
2313	7.00347e+02	2.31300e+03	0.021557	700.0
2315	7.00344e+02	2.31500e+03	0.021556	700.0
2317	7.00340e+02	2.31700e+03	0.0215451	700.0
2319	7.00331e+02	2.31900e+03	0.0215347	700.0
2321	7.00336e+02	2.32100e+03	0.0215074	700.0
2323	7.00325e+02	2.32300e+03	0.0214682	700.0
2325	7.00331e+02	2.32500e+03	0.0214235	700.0
2327	7.00320e+02	2.32700e+03	0.0214123	700.0
2329	7.00313e+02	2.32900e+03	0.0214405	700.0
2331	7.00318e+02	2.33100e+03	0.0214749	700.0
2333	7.00312e+02	2.33300e+03	0.0215416	700.0
2335	7.00305e+02	2.33500e+03	0.0216019	700.0
2337	7.00299e+02	2.33700e+03	0.0216606	700.0
2339	7.00306e+02	2.33900e+03	0.021699	700.0
2341	7.00303e+02	2.34100e+03	0.0217243	700.0
2343	7.00299e+02	2.34300e+03	0.0217572	700.0
2345	7.00297e+02	2.34500e+03	0.0217862	700.0
2347	7.00288e+02	2.34700e+03	0.0218015	700.0
2349	7.00283e+02	2.34900e+03	0.0217935	700.0
2351	7.00287e+02	2.35100e+03	0.0217832	700.0
2353	7.00281e+02	2.35300e+03	0.0217418	700.0
2355	7.00282e+02	2.35500e+03	0.021698	700.0
2357	7.00271e+02	2.35700e+03	0.0216535	700.0
2359	7.00269e+02	2.35900e+03	0.0216396	700.0
2361	7.00261e+02	2.36100e+03	0.0216642	700.0
2363	7.00258e+02	2.36300e+03	0.0216795	700.0
2365	7.00254e+02	2.36500e+03	0.0216987	700.0
2367	7.00260e+02	2.36700e+03	0.0217024	700.0
2369	7.00256e+02	2.36900e+03	0.0216673	700.0
2371	7.00256e+02	2.37100e+03	0.0216234	700.0
2373	7.00247e+02	2.37300e+03	0.021569	700.0
2375	7.00244e+02	2.37500e+03	0.0215395	700.0
2377	7.00237e+02	2.37700e+03	0.0215402	700.0
2379	7.00232e+02	2.37900e+03	0.0215327	700.0
2381	7.00239e+02	2.38100e+03	0.0215276	700.0
2383	7.00223e+02	2.38300e+03	0.0215129	700.0
2385	7.00231e+02	2.38500e+03	0.0214941	700.0
2387	7.00213e+02	2.38700e+03	0.0214876	700.0
2389	7.00219e+02	2.38900e+03	0.0215052	700.0
2391	7.00220e+02	2.39100e+03	0.0215326	700.0
2393	7.00214e+02	2.39300e+03	0.0215746	700.0
2395	7.00221e+02	2.39500e+03	0.0216091	700.0
2397	7.00223e+02	2.39700e+03	0.0216371	700.0
2399	7.00213e+02	2.39900e+03	0.021657	700.0
2401	7.00216e+02	2.40100e+03	0.0216573	700.0
2403	7.00203e+02	2.40300e+03	0.0216549	700.0
2405	7.00203e+02	2.40500e+03	0.0216418	700.0
2407	7.00203e+02	2.40700e+03	0.021643	700.0
2409	7.00195e+02	2.40900e+03	0.0216613	700.0
2411	7.00200e+02	2.41100e+03	0.0216784	700.0
2413	7.00198e+02	2.41300e+03	0.0216973	700.0
2415	7.00201e+02	2.41500e+03	0.021708	700.0
2417	7.00194e+02	2.41700e+03	0.0217412	700.0
2419	7.00199e+02	2.41900e+03	0.0218018	700.0
2421	7.00193e+02	2.42100e+03	0.0218807	700.0
2423	7.00187e+02	2.42300e+03	0.0219067	700.0
2425	7.00178e+02	2.42500e+03	0.0218547	700.0
2427	7.00183e+02	2.42700e+03	0.0217765	700.0
2429	7.00178e+02	2.42900e+03	0.0216344	700.0
2431	7.00180e+02	2.43100e+03	0.0215329	700.0
2433	7.00181e+02	2.43300e+03	0.0214655	700.0
2435	7.00186e+02	2.43500e+03	0.0214205	700.0
2437	7.00177e+02	2.43700e+03	0.0214125	700.0
2439	7.00175e+02	2.43900e+03	0.0213887	700.0
2441	7.00169e+02	2.44100e+03	0.0214031	700.0
2443	7.00167e+02	2.44300e+03	0.0214487	700.0
2445	7.00167e+02	2.44500e+03	0.0215061	700.0
2447	7.00152e+02	2.44700e+03	0.0215174	700.0
2449	7.00168e+02	2.44900e+03	0.0214989	700.0
2451	7.00154e+02	2.45100e+03	0.0215025	700.0
2453	7.00153e+02	2.45300e+03	0.0215238	700.0
2455	7.00153e+02	2.45500e+03	0.0215415	700.0
2457	7.00150e+02	2.45700e+03	0.0215565	700.0
2459	7.00151e+02	2.45900e+03	0.0215647	700.0
2461	7.00144e+02	2.46100e+03	0.0215471	700.0
2463	7.00154e+02	2.46300e+03	0.0215179	700.0
2465	7.00140e+02	2.46500e+03	0.0214605	700.0
2467	7.00140e+02	2.46700e+03	0.021398	700.0
2469	7.00142e+02	2.46900e+03	0.0213281	700.0
2471	7.00142e+02	2.47100e+03	0.0212747	700.0
2473	7.00129e+02	2.47300e+03	0.0212417	700.0
2475	7.00128e+02	2.47500e+03	0.0212062	700.0
2477	7.00140e+02	2.47700e+03	0.0211911	700.0
2479	7.00132e+02	2.47900e+03	0.0211999	700.0
2481	7.00135e+02	2.48100e+03	0.0212747	700.0
2483	7.00133e+02	2.48300e+03	0.0213807	700.0
2485	7.00122e+02	2.48500e+03	0.0215409	700.0
2487	7.00129e+02	2.48700e+03	0.0216598	700.0
2489	7.00123e+02	2.48900e+03	0.0217417	700.0
2491	7.00125e+02	2.49100e+03	0.0217869	700.0
2493	7.00121e+02	2.49300e+03	0.0217506	700.0
2495	7.00123e+02	2.49500e+03	0.0217029	700.0
2497	7.00124e+02	2.49700e+03	0.0216004	700.0
2499	7.00128e+02	2.49900e+03	0.021518	700.0
2501	7.00116e+02	2.50100e+03	0.0214687	700.0
2503	7.00122e+02	2.50300e+03	0.0214619	700.0
2505	7.00116e+02	2.50500e+03	0.0215127	700.0
2507	7.00123e+02	2.50700e+03	0.0215377	700.0
2509	7.00114e+02	2.50900e+03	0.0215474	700.0
2511	7.00110e+02	2.51100e+03	0.0215433	700.0
2513	7.00114e+02	2.51300e+03	0.0215169	700.0
2515	7.00117e+02	2.51500e+03	0.021503	700.0
2517	7.00110e+02	2.51700e+03	0.0214917	700.0
2519	7.00106e+02	2.51900e+03	0.0214636	700.0
2521	7.00102e+02	2.52100e+03	0.0214321	700.0
2523	7.00100e+02	2.52300e+03	0.0214064	700.0
2525	7.00100e+02	2.52500e+03	0.0214012	700.0
2527	7.00109e+02	2.52700e+03	0.0214192	700.0
2529	7.00107e+02	2.52900e+03	0.0214599	700.0
2531	7.00106e+02	2.53100e+03	0.0214686	700.0
2533	7.00100e+02	2.53300e+03	0.0214087	700.0
2535	7.00090e+02	2.53500e+03	0.0213247	700.0
2537	7.00109e+02	2.53700e+03	0.0212551	700.0
2539	7.00113e+02	2.53900e+03	0.0213176	700.0
2541	7.00087e+02	2.54100e+03	0.0215205	700.0
2543	7.00102e+02	2.54300e+03	0.0216288	700.0
2545	7.00096e+02	2.54500e+03	0.0216564	700.0
2547	7.00100e+02	2.54700e+03	0.0216053	700.0
2549	7.00098e+02	2.54900e+03	0.021404	700.0
2551	7.00102e+02	2.55100e+03	0.0212732	700.0
2553	7.00094e+02	2.55300e+03	0.0211929	700.0
2555	7.00108e+02	2.55500e+03	0.0211583	700.0
2557	7.00088e+02	2.55700e+03	0.0212454	700.0
2559	7.00097e+02	2.55900e+03	0.021347	700.0
2561	7.00094e+02	2.56100e+03	0.0215102	700.0
2563	7.00093e+02	2.56300e+03	0.0216288	700.0
2565	7.00092e+02	2.56500e+03	0.0216938	700.0
2567	7.00094e+02	2.56700e+03	0.0217253	700.0
2569	7.00087e+02	2.56900e+03	0.0216827	700.0
2571	7.00092e+02	2.57100e+03	0.021652	700.0
2573	7.00088e+02	2.57300e+03	0.0215881	700.0
2575	7.00084e+02	2.57500e+03	0.0215259	700.0
2577	7.00086e+02	2.57700e+03	0.0214592	700.0
2579	7.00085e+02	2.57900e+03	0.0214062	700.0
2581	7.00082e+02	2.58100e+03	0.021374	700.0
2583	7.00072e+02	2.58300e+03	0.0213465	700.0
2585	7.00089e+02	2.58500e+03	0.0213484	700.0
2587	7.00090e+02	2.58700e+03	0.0213666	700.0
2589	7.00084e+02	2.58900e+03	0.0214088	700.0
2591	7.00094e+02	2.59100e+03	0.0214402	700.0
2593	7.00094e+02	2.59300e+03	0.0214751	700.0
2595	7.00085e+02	2.59500e+03	0.021506	700.0
2597	7.00089e+02	2.59700e+03	0.0215121	700.0
2599	7.00080e+02	2.59900e+03	0.0214994	700.0
2601	7.00089e+02	2.60100e+03	0.0214594	700.0
2603	7.00076e+02	2.60300e+03	0.0214297	700.0
2605	7.00077e+02	2.60500e+03	0.0214045	700.0
2607	7.00072e+02	2.60700e+03	0.0213889	700.0
2609	7.00080e+02	2.60900e+03	0.0213949	700.0
2611	7.00075e+02	2.61100e+03	0.0214067	700.0
2613	7.00065e+02	2.61300e+03	0.0214382	700.0
2615	7.00078e+02	2.61500e+03	0.0214647	700.0
2617	7.00070e+02	2.61700e+03	0.0214967	700.0
2619	7.00080e+02	2.61900e+03	0.0215247	700.0
2621	7.00073e+02	2.62100e+03	0.0215276	700.0
2623	7.00080e+02	2.62300e+03	0.0215145	700.0
2625	7.00072e+02	2.62500e+03	0.0214729	700.0
2627	7.00075e+02	2.62700e+03	0.021441	700.0
2629	7.00075e+02	2.62900e+03	0.0214159	700.0
2631	7.00076e+02	2.63100e+03	0.0213947	700.0
2633	7.00070e+02	2.63300e+03	0.0214012	700.0
2635	7.00077e+02	2.63500e+03	0.0214145	700.0
2637	7.00083e+02	2.63700e+03	0.0214446	700.0
2639	7.00076e+02	2.63900e+03	0.0214647	700.0
2641	7.00070e+02	2.64100e+03	0.0214531	700.0
2643	7.00075e+02	2.64300e+03	0.0214247	700.0
2645	7.00077e+02	2.64500e+03	0.0213622	700.0
2647	7.00072e+02	2.64700e+03	0.0213272	700.0
2649	7.00060e+02	2.64900e+03	0.0213145	700.0
2651	7.00074e+02	2.65100e+03	0.0213073	700.0
2653	7.00081e+02	2.65300e+03	0.0213207	700.0
2655	7.00077e+02	2.65500e+03	0.0213276	700.0
2657	7.00068e+02	2.65700e+03	0.0213385	700.0
2659	7.00070e+02	2.65900e+03	0.021353	700.0
2661	7.00076e+02	2.66100e+03	0.0213732	700.0
2663	7.00074e+02	2.66300e+03	0.0213896	700.0
2665	7.00073e+02	2.66500e+03	0.0214016	700.0
2667	7.00074e+02	2.66700e+03	0.0214112	700.0
2669	7.00073e+02	2.66900e+03	0.0214145	700.0
2671	7.00064e+02	2.67100e+03	0.021418	700.0
2673	7.00072e+02	2.67300e+03	0.0214166	700.0
2675	7.00063e+02	2.67500e+03	0.0214119	700.0
2677	7.00070e+02	2.67700e+03	0.0214007	700.0
2679	7.00068e+02	2.67900e+03	0.0213883	700.0
2681	7.00060e+02	2.68100e+03	0.0213544	700.0
2683	7.00071e+02	2.68300e+03	0.0213083	700.0
2685	7.00064e+02	2.68500e+03	0.02125	700.0
2687	7.00063e+02	2.68700e+03	0.0212076	700.0
2689	7.00062e+02	2.68900e+03	0.0211843	700.0
2691	7.00069e+02	2.69100e+03	0.0211645	700.0
2693	7.00068e+02	2.69300e+03	0.0211634	700.0
2695	7.00071e+02	2.69500e+03	0.0211762	700.0
2697	7.00067e+02	2.69700e+03	0.0212097	700.0
2699	7.00069e+02	2.69900e+03	0.0212419	700.0
2701	7.00068e+02	2.70100e+03	0.0212884	700.0
2703	7.00066e+02	2.70300e+03	0.0213285	700.0
2705	7.00071e+02	2.70500e+03	0.0213698	700.0
2707	7.00068e+02	2.70700e+03	0.0213947	700.0
2709	7.00072e+02	2.70900e+03	0.0213822	700.0
2711	7.00059e+02	2.71100e+03	0.0213562	700.0
2713	7.00072e+02	2.71300e+03	0.021318	700.0
2715	7.00070e+02	2.71500e+03	0.0212797	700.0
2717	7.00063e+02	2.71700e+03	0.0212653	700.0
2719	7.00069e+02	2.71900e+03	0.0212659	700.0
2720	7.00059e+02	2.72000e+03	0.0212683	700.0