File: Experiments/TGA/TUBS/tga_nonisotherm/tga_dynamic_n2_dyn5_powder_2mg_r1.txt
index	ts	t	weight	tr
[#]	[°C]	[s]	[mg]	[°C]
1083	1.31262e+02	1.08300e+03	1.97398e+00	1.30250e+02
1091	1.31936e+02	1.09100e+03	1.97383e+00	1.30917e+02
1099	1.32607e+02	1.09900e+03	1.97361e+00	1.31583e+02
1107	1.33288e+02	1.10700e+03	1.97350e+00	1.32250e+02
1115	1.33960e+02	1.11500e+03	1.97327e+00	1.32917e+02
1123	1.34625e+02	1.12300e+03	1.97321e+00	1.33583e+02
1131	1.35308e+02	1.13100e+03	1.97310e+00	1.34250e+02
1139	1.35965e+02	1.13900e+03	1.97296e+00	1.34917e+02
1147	1.36653e+02	1.14700e+03	1.97280e+00	1.35583e+02
1155	1.37316e+02	1.15500e+03	1.97250e+00	1.36250e+02
1163	1.37992e+02	1.16300e+03	1.97231e+00	1.36917e+02
1171	1.38673e+02	1.17100e+03	1.97205e+00	1.37583e+02
1179	1.39343e+02	1.17900e+03	1.97206e+00	1.38250e+02
1187	1.40012e+02	1.18700e+03	1.97186e+00	1.38917e+02
1195	1.40690e+02	1.19500e+03	1.97156e+00	1.39583e+02
1203	1.41349e+02	1.20300e+03	1.97127e+00	1.40250e+02
1211	1.42028e+02	1.21100e+03	1.97112e+00	1.40917e+02
1219	1.42690e+02	1.21900e+03	1.97084e+00	1.41583e+02
1227	1.43371e+02	1.22700e+03	1.97057e+00	1.42250e+02
1235	1.44051e+02	1.23500e+03	1.97015e+00	1.42917e+02
1243	1.44729e+02	1.24300e+03	1.97010e+00	1.43583e+02
1251	1.45396e+02	1.25100e+03	1.96980e+00	1.44250e+02
1259	1.46068e+02	1.25900e+03	1.96948e+00	1.44917e+02
1267	1.46744e+02	1.26700e+03	1.96918e+00	1.45583e+02
1275	1.47413e+02	1.27500e+03	1.96878e+00	1.46250e+02
1283	1.48086e+02	1.28300e+03	1.96857e+00	1.46917e+02
1291	1.48757e+02	1.29100e+03	1.96823e+00	1.47583e+02
1299	1.49425e+02	1.29900e+03	1.96786e+00	1.48250e+02
1307	1.50111e+02	1.30700e+03	1.96747e+00	1.48917e+02
1315	1.50775e+02	1.31500e+03	1.96724e+00	1.49583e+02
1323	1.51452e+02	1.32300e+03	1.96698e+00	1.50250e+02
1331	1.52125e+02	1.33100e+03	1.96658e+00	1.50917e+02
1339	1.52793e+02	1.33900e+03	1.96616e+00	1.51583e+02
1347	1.53478e+02	1.34700e+03	1.96574e+00	1.52250e+02
1355	1.54139e+02	1.35500e+03	1.96528e+00	1.52917e+02
1363	1.54813e+02	1.36300e+03	1.96502e+00	1.53583e+02
1371	1.55483e+02	1.37100e+03	1.96458e+00	1.54250e+02
1379	1.56166e+02	1.37900e+03	1.96398e+00	1.54917e+02
1387	1.56829e+02	1.38700e+03	1.96356e+00	1.55583e+02
1395	1.57509e+02	1.39500e+03	1.96301e+00	1.56250e+02
1403	1.58172e+02	1.40300e+03	1.96262e+00	1.56917e+02
1411	1.58852e+02	1.41100e+03	1.96215e+00	1.57583e+02
1419	1.59527e+02	1.41900e+03	1.96144e+00	1.58250e+02
1427	1.60208e+02	1.42700e+03	1.96085e+00	1.58917e+02
1435	1.60873e+02	1.43500e+03	1.96023e+00	1.59583e+02
1443	1.61555e+02	1.44300e+03	1.95953e+00	1.60250e+02
1451	1.62223e+02	1.45100e+03	1.95862e+00	1.60917e+02
1459	1.62900e+02	1.45900e+03	1.95760e+00	1.61583e+02
1467	1.63552e+02	1.46700e+03	1.95667e+00	1.62250e+02
1475	1.64241e+02	1.47500e+03	1.95575e+00	1.62917e+02
1483	1.64898e+02	1.48300e+03	1.95476e+00	1.63583e+02
1491	1.65571e+02	1.49100e+03	1.95357e+00	1.64250e+02
1499	1.66243e+02	1.49900e+03	1.95219e+00	1.64917e+02
1507	1.66911e+02	1.50700e+03	1.95091e+00	1.65583e+02
1515	1.67599e+02	1.51500e+03	1.94958e+00	1.66250e+02
1523	1.68260e+02	1.52300e+03	1.94818e+00	1.66917e+02
1531	1.68933e+02	1.53100e+03	1.94677e+00	1.67583e+02
1539	1.69599e+02	1.53900e+03	1.94514e+00	1.68250e+02
1547	1.70283e+02	1.54700e+03	1.94351e+00	1.68917e+02
1555	1.70956e+02	1.55500e+03	1.94181e+00	1.69583e+02
1563	1.71634e+02	1.56300e+03	1.94011e+00	1.70250e+02
1571	1.72307e+02	1.57100e+03	1.93840e+00	1.70917e+02
1579	1.72974e+02	1.57900e+03	1.93662e+00	1.71583e+02
1587	1.73646e+02	1.58700e+03	1.93469e+00	1.72250e+02
1595	1.74308e+02	1.59500e+03	1.93261e+00	1.72917e+02
1603	1.74979e+02	1.60300e+03	1.93071e+00	1.73583e+02
1611	1.75634e+02	1.61100e+03	1.92883e+00	1.74250e+02
1619	1.76318e+02	1.61900e+03	1.92690e+00	1.74917e+02
1627	1.76997e+02	1.62700e+03	1.92501e+00	1.75583e+02
1635	1.77676e+02	1.63500e+03	1.92309e+00	1.76250e+02
1643	1.78341e+02	1.64300e+03	1.92127e+00	1.76917e+02
1651	1.79018e+02	1.65100e+03	1.91964e+00	1.77583e+02
1659	1.79685e+02	1.65900e+03	1.91793e+00	1.78250e+02
1667	1.80365e+02	1.66700e+03	1.91621e+00	1.78917e+02
1675	1.81025e+02	1.67500e+03	1.91462e+00	1.79583e+02
1683	1.81697e+02	1.68300e+03	1.91295e+00	1.80250e+02
1691	1.82374e+02	1.69100e+03	1.91147e+00	1.80917e+02
1699	1.83061e+02	1.69900e+03	1.91008e+00	1.81583e+02
1707	1.83728e+02	1.70700e+03	1.90885e+00	1.82250e+02
1715	1.84401e+02	1.71500e+03	1.90770e+00	1.82917e+02
1723	1.85059e+02	1.72300e+03	1.90644e+00	1.83583e+02
1731	1.85739e+02	1.73100e+03	1.90536e+00	1.84250e+02
1739	1.86418e+02	1.73900e+03	1.90424e+00	1.84917e+02
1747	1.87081e+02	1.74700e+03	1.90321e+00	1.85583e+02
1755	1.87752e+02	1.75500e+03	1.90243e+00	1.86250e+02
1763	1.88432e+02	1.76300e+03	1.90171e+00	1.86917e+02
1771	1.89110e+02	1.77100e+03	1.90096e+00	1.87583e+02
1779	1.89767e+02	1.77900e+03	1.90009e+00	1.88250e+02
1787	1.90441e+02	1.78700e+03	1.89930e+00	1.88917e+02
1795	1.91123e+02	1.79500e+03	1.89883e+00	1.89583e+02
1803	1.91798e+02	1.80300e+03	1.89865e+00	1.90250e+02
1811	1.92468e+02	1.81100e+03	1.89813e+00	1.90917e+02
1819	1.93142e+02	1.81900e+03	1.89768e+00	1.91583e+02
1827	1.93807e+02	1.82700e+03	1.89708e+00	1.92250e+02
1835	1.94479e+02	1.83500e+03	1.89683e+00	1.92917e+02
1843	1.95166e+02	1.84300e+03	1.89646e+00	1.93583e+02
1851	1.95819e+02	1.85100e+03	1.89610e+00	1.94250e+02
1859	1.96496e+02	1.85900e+03	1.89574e+00	1.94917e+02
1867	1.97152e+02	1.86700e+03	1.89546e+00	1.95583e+02
1875	1.97831e+02	1.87500e+03	1.89502e+00	1.96250e+02
1883	1.98496e+02	1.88300e+03	1.89475e+00	1.96917e+02
1891	1.99179e+02	1.89100e+03	1.89430e+00	1.97583e+02
1899	1.99838e+02	1.89900e+03	1.89384e+00	1.98250e+02
1907	2.00513e+02	1.90700e+03	1.89353e+00	1.98917e+02
1915	2.01186e+02	1.91500e+03	1.89335e+00	1.99583e+02
1923	2.01840e+02	1.92300e+03	1.89323e+00	2.00250e+02
1931	2.02520e+02	1.93100e+03	1.89281e+00	2.00917e+02
1939	2.03185e+02	1.93900e+03	1.89247e+00	2.01583e+02
1947	2.03861e+02	1.94700e+03	1.89212e+00	2.02250e+02
1955	2.04527e+02	1.95500e+03	1.89188e+00	2.02917e+02
1963	2.05194e+02	1.96300e+03	1.89162e+00	2.03583e+02
1971	2.05870e+02	1.97100e+03	1.89132e+00	2.04250e+02
1979	2.06544e+02	1.97900e+03	1.89101e+00	2.04917e+02
1987	2.07216e+02	1.98700e+03	1.89059e+00	2.05583e+02
1995	2.07886e+02	1.99500e+03	1.89026e+00	2.06250e+02
2003	2.08552e+02	2.00300e+03	1.89006e+00	2.06917e+02
2011	2.09209e+02	2.01100e+03	1.88983e+00	2.07583e+02
2019	2.09883e+02	2.01900e+03	1.88972e+00	2.08250e+02
2027	2.10550e+02	2.02700e+03	1.88967e+00	2.08917e+02
2035	2.11210e+02	2.03500e+03	1.88931e+00	2.09583e+02
2043	2.11867e+02	2.04300e+03	1.88903e+00	2.10250e+02
2051	2.12526e+02	2.05100e+03	1.88878e+00	2.10917e+02
2059	2.13180e+02	2.05900e+03	1.88857e+00	2.11583e+02
2067	2.13834e+02	2.06700e+03	1.88845e+00	2.12250e+02
2075	2.14502e+02	2.07500e+03	1.88818e+00	2.12917e+02
2083	2.15172e+02	2.08300e+03	1.88810e+00	2.13583e+02
2091	2.15833e+02	2.09100e+03	1.88810e+00	2.14250e+02
2099	2.16515e+02	2.09900e+03	1.88770e+00	2.14917e+02
2107	2.17188e+02	2.10700e+03	1.88746e+00	2.15583e+02
2115	2.17852e+02	2.11500e+03	1.88738e+00	2.16250e+02
2123	2.18507e+02	2.12300e+03	1.88727e+00	2.16917e+02
2131	2.19166e+02	2.13100e+03	1.88719e+00	2.17583e+02
2139	2.19846e+02	2.13900e+03	1.88697e+00	2.18250e+02
2147	2.20508e+02	2.14700e+03	1.88672e+00	2.18917e+02
2155	2.21164e+02	2.15500e+03	1.88655e+00	2.19583e+02
2163	2.21841e+02	2.16300e+03	1.88647e+00	2.20250e+02
2171	2.22520e+02	2.17100e+03	1.88645e+00	2.20917e+02
2179	2.23191e+02	2.17900e+03	1.88634e+00	2.21583e+02
2187	2.23849e+02	2.18700e+03	1.88626e+00	2.22250e+02
2195	2.24518e+02	2.19500e+03	1.88608e+00	2.22917e+02
2203	2.25188e+02	2.20300e+03	1.88592e+00	2.23583e+02
2211	2.25852e+02	2.21100e+03	1.88587e+00	2.24250e+02
2219	2.26519e+02	2.21900e+03	1.88580e+00	2.24917e+02
2227	2.27174e+02	2.22700e+03	1.88564e+00	2.25583e+02
2235	2.27842e+02	2.23500e+03	1.88542e+00	2.26250e+02
2243	2.28514e+02	2.24300e+03	1.88533e+00	2.26917e+02
2251	2.29184e+02	2.25100e+03	1.88520e+00	2.27583e+02
2259	2.29848e+02	2.25900e+03	1.88504e+00	2.28250e+02
2267	2.30494e+02	2.26700e+03	1.88486e+00	2.28917e+02
2275	2.31161e+02	2.27500e+03	1.88482e+00	2.29583e+02
2283	2.31829e+02	2.28300e+03	1.88467e+00	2.30250e+02
2291	2.32495e+02	2.29100e+03	1.88445e+00	2.30917e+02
2299	2.33160e+02	2.29900e+03	1.88444e+00	2.31583e+02
2307	2.33818e+02	2.30700e+03	1.88437e+00	2.32250e+02
2315	2.34482e+02	2.31500e+03	1.88422e+00	2.32917e+02
2323	2.35142e+02	2.32300e+03	1.88419e+00	2.33583e+02
2331	2.35808e+02	2.33100e+03	1.88418e+00	2.34250e+02
2339	2.36466e+02	2.33900e+03	1.88390e+00	2.34917e+02
2347	2.37123e+02	2.34700e+03	1.88368e+00	2.35583e+02
2355	2.37790e+02	2.35500e+03	1.88361e+00	2.36250e+02
2363	2.38453e+02	2.36300e+03	1.88345e+00	2.36917e+02
2371	2.39117e+02	2.37100e+03	1.88345e+00	2.37583e+02
2379	2.39775e+02	2.37900e+03	1.88338e+00	2.38250e+02
2387	2.40452e+02	2.38700e+03	1.88317e+00	2.38917e+02
2395	2.41111e+02	2.39500e+03	1.88303e+00	2.39583e+02
2403	2.41784e+02	2.40300e+03	1.88285e+00	2.40250e+02
2411	2.42451e+02	2.41100e+03	1.88263e+00	2.40917e+02
2419	2.43129e+02	2.41900e+03	1.88249e+00	2.41583e+02
2427	2.43785e+02	2.42700e+03	1.88246e+00	2.42250e+02
2435	2.44454e+02	2.43500e+03	1.88238e+00	2.42917e+02
2443	2.45123e+02	2.44300e+03	1.88218e+00	2.43583e+02
2451	2.45790e+02	2.45100e+03	1.88198e+00	2.44250e+02
2459	2.46468e+02	2.45900e+03	1.88179e+00	2.44917e+02
2467	2.47133e+02	2.46700e+03	1.88156e+00	2.45583e+02
2475	2.47799e+02	2.47500e+03	1.88123e+00	2.46250e+02
2483	2.48465e+02	2.48300e+03	1.88102e+00	2.46917e+02
2491	2.49133e+02	2.49100e+03	1.88089e+00	2.47583e+02
2499	2.49794e+02	2.49900e+03	1.88076e+00	2.48250e+02
2507	2.50456e+02	2.50700e+03	1.88054e+00	2.48917e+02
2515	2.51121e+02	2.51500e+03	1.88036e+00	2.49583e+02
2523	2.51791e+02	2.52300e+03	1.88011e+00	2.50250e+02
2531	2.52452e+02	2.53100e+03	1.88000e+00	2.50917e+02
2539	2.53122e+02	2.53900e+03	1.87968e+00	2.51583e+02
2547	2.53791e+02	2.54700e+03	1.87931e+00	2.52250e+02
2555	2.54462e+02	2.55500e+03	1.87911e+00	2.52917e+02
2563	2.55135e+02	2.56300e+03	1.87882e+00	2.53583e+02
2571	2.55791e+02	2.57100e+03	1.87844e+00	2.54250e+02
2579	2.56453e+02	2.57900e+03	1.87806e+00	2.54917e+02
2587	2.57118e+02	2.58700e+03	1.87791e+00	2.55583e+02
2595	2.57773e+02	2.59500e+03	1.87763e+00	2.56250e+02
2603	2.58428e+02	2.60300e+03	1.87718e+00	2.56917e+02
2611	2.59110e+02	2.61100e+03	1.87680e+00	2.57583e+02
2619	2.59773e+02	2.61900e+03	1.87655e+00	2.58250e+02
2627	2.60437e+02	2.62700e+03	1.87615e+00	2.58917e+02
2635	2.61103e+02	2.63500e+03	1.87566e+00	2.59583e+02
2643	2.61786e+02	2.64300e+03	1.87545e+00	2.60250e+02
2651	2.62444e+02	2.65100e+03	1.87505e+00	2.60917e+02
2659	2.63107e+02	2.65900e+03	1.87451e+00	2.61583e+02
2667	2.63782e+02	2.66700e+03	1.87398e+00	2.62250e+02
2675	2.64441e+02	2.67500e+03	1.87351e+00	2.62917e+02
2683	2.65118e+02	2.68300e+03	1.87301e+00	2.63583e+02
2691	2.65783e+02	2.69100e+03	1.87257e+00	2.64250e+02
2699	2.66445e+02	2.69900e+03	1.87203e+00	2.64917e+02
2707	2.67125e+02	2.70700e+03	1.87131e+00	2.65583e+02
2715	2.67800e+02	2.71500e+03	1.87074e+00	2.66250e+02
2723	2.68474e+02	2.72300e+03	1.87017e+00	2.66917e+02
2731	2.69140e+02	2.73100e+03	1.86933e+00	2.67583e+02
2739	2.69817e+02	2.73900e+03	1.86860e+00	2.68250e+02
2747	2.70492e+02	2.74700e+03	1.86792e+00	2.68917e+02
2755	2.71173e+02	2.75500e+03	1.86730e+00	2.69583e+02
2763	2.71836e+02	2.76300e+03	1.86651e+00	2.70250e+02
2771	2.72513e+02	2.77100e+03	1.86566e+00	2.70917e+02
2779	2.73191e+02	2.77900e+03	1.86474e+00	2.71583e+02
2787	2.73862e+02	2.78700e+03	1.86371e+00	2.72250e+02
2795	2.74552e+02	2.79500e+03	1.86274e+00	2.72917e+02
2803	2.75221e+02	2.80300e+03	1.86186e+00	2.73583e+02
2811	2.75905e+02	2.81100e+03	1.86095e+00	2.74250e+02
2819	2.76599e+02	2.81900e+03	1.85977e+00	2.74917e+02
2827	2.77262e+02	2.82700e+03	1.85872e+00	2.75583e+02
2835	2.77959e+02	2.83500e+03	1.85734e+00	2.76250e+02
2843	2.78637e+02	2.84300e+03	1.85605e+00	2.76917e+02
2851	2.79332e+02	2.85100e+03	1.85465e+00	2.77583e+02
2859	2.80010e+02	2.85900e+03	1.85344e+00	2.78250e+02
2867	2.80687e+02	2.86700e+03	1.85206e+00	2.78917e+02
2875	2.81376e+02	2.87500e+03	1.85065e+00	2.79583e+02
2883	2.82067e+02	2.88300e+03	1.84909e+00	2.80250e+02
2891	2.82806e+02	2.89100e+03	1.84735e+00	2.80917e+02
2899	2.83496e+02	2.89900e+03	1.84587e+00	2.81583e+02
2907	2.84198e+02	2.90700e+03	1.84433e+00	2.82250e+02
2915	2.84884e+02	2.91500e+03	1.84280e+00	2.82917e+02
2923	2.85578e+02	2.92300e+03	1.84097e+00	2.83583e+02
2931	2.86312e+02	2.93100e+03	1.83915e+00	2.84250e+02
2939	2.87001e+02	2.93900e+03	1.83717e+00	2.84917e+02
2947	2.87749e+02	2.94700e+03	1.83534e+00	2.85583e+02
2955	2.88447e+02	2.95500e+03	1.83349e+00	2.86250e+02
2963	2.89115e+02	2.96300e+03	1.83154e+00	2.86917e+02
2971	2.89733e+02	2.97100e+03	1.82958e+00	2.87583e+02
2979	2.90389e+02	2.97900e+03	1.82748e+00	2.88250e+02
2987	2.91047e+02	2.98700e+03	1.82533e+00	2.88917e+02
2995	2.91692e+02	2.99500e+03	1.82332e+00	2.89583e+02
3003	2.92342e+02	3.00300e+03	1.82123e+00	2.90250e+02
3011	2.93003e+02	3.01100e+03	1.81901e+00	2.90917e+02
3019	2.93662e+02	3.01900e+03	1.81697e+00	2.91583e+02
3027	2.94303e+02	3.02700e+03	1.81452e+00	2.92250e+02
3035	2.94969e+02	3.03500e+03	1.81223e+00	2.92917e+02
3043	2.95616e+02	3.04300e+03	1.81021e+00	2.93583e+02
3051	2.96275e+02	3.05100e+03	1.80802e+00	2.94250e+02
3059	2.96927e+02	3.05900e+03	1.80577e+00	2.94917e+02
3067	2.97590e+02	3.06700e+03	1.80368e+00	2.95583e+02
3075	2.98276e+02	3.07500e+03	1.80136e+00	2.96250e+02
3083	2.98946e+02	3.08300e+03	1.79897e+00	2.96917e+02
3091	2.99625e+02	3.09100e+03	1.79684e+00	2.97583e+02
3099	3.00302e+02	3.09900e+03	1.79448e+00	2.98250e+02
3107	3.00985e+02	3.10700e+03	1.79209e+00	2.98917e+02
3115	3.01653e+02	3.11500e+03	1.78989e+00	2.99583e+02
3123	3.02316e+02	3.12300e+03	1.78777e+00	3.00250e+02
3131	3.02983e+02	3.13100e+03	1.78544e+00	3.00917e+02
3139	3.03660e+02	3.13900e+03	1.78312e+00	3.01583e+02
3147	3.04341e+02	3.14700e+03	1.78073e+00	3.02250e+02
3155	3.05021e+02	3.15500e+03	1.77830e+00	3.02917e+02
3163	3.05751e+02	3.16300e+03	1.77598e+00	3.03583e+02
3171	3.06471e+02	3.17100e+03	1.77357e+00	3.04250e+02
3179	3.07163e+02	3.17900e+03	1.77120e+00	3.04917e+02
3187	3.07874e+02	3.18700e+03	1.76868e+00	3.05583e+02
3195	3.08554e+02	3.19500e+03	1.76598e+00	3.06250e+02
3203	3.09246e+02	3.20300e+03	1.76339e+00	3.06917e+02
3211	3.09938e+02	3.21100e+03	1.76059e+00	3.07583e+02
3219	3.10678e+02	3.21900e+03	1.75771e+00	3.08250e+02
3227	3.11347e+02	3.22700e+03	1.75489e+00	3.08917e+02
3235	3.12019e+02	3.23500e+03	1.75204e+00	3.09583e+02
3243	3.12725e+02	3.24300e+03	1.74894e+00	3.10250e+02
3251	3.13416e+02	3.25100e+03	1.74563e+00	3.10917e+02
3259	3.14207e+02	3.25900e+03	1.74243e+00	3.11583e+02
3267	3.14898e+02	3.26700e+03	1.73920e+00	3.12250e+02
3275	3.15598e+02	3.27500e+03	1.73561e+00	3.12917e+02
3283	3.16264e+02	3.28300e+03	1.73193e+00	3.13583e+02
3291	3.16932e+02	3.29100e+03	1.72797e+00	3.14250e+02
3299	3.17619e+02	3.29900e+03	1.72391e+00	3.14917e+02
3307	3.18296e+02	3.30700e+03	1.71992e+00	3.15583e+02
3315	3.18980e+02	3.31500e+03	1.71547e+00	3.16250e+02
3323	3.19652e+02	3.32300e+03	1.71102e+00	3.16917e+02
3331	3.20322e+02	3.33100e+03	1.70615e+00	3.17583e+02
3339	3.21021e+02	3.33900e+03	1.70099e+00	3.18250e+02
3347	3.21729e+02	3.34700e+03	1.69582e+00	3.18917e+02
3355	3.22423e+02	3.35500e+03	1.69033e+00	3.19583e+02
3363	3.23094e+02	3.36300e+03	1.68462e+00	3.20250e+02
3371	3.23781e+02	3.37100e+03	1.67857e+00	3.20917e+02
3379	3.24452e+02	3.37900e+03	1.67228e+00	3.21583e+02
3387	3.25111e+02	3.38700e+03	1.66574e+00	3.22250e+02
3395	3.25773e+02	3.39500e+03	1.65894e+00	3.22917e+02
3403	3.26442e+02	3.40300e+03	1.65171e+00	3.23583e+02
3411	3.27109e+02	3.41100e+03	1.64408e+00	3.24250e+02
3419	3.27796e+02	3.41900e+03	1.63625e+00	3.24917e+02
3427	3.28489e+02	3.42700e+03	1.62803e+00	3.25583e+02
3435	3.29136e+02	3.43500e+03	1.61944e+00	3.26250e+02
3443	3.29817e+02	3.44300e+03	1.61059e+00	3.26917e+02
3451	3.30482e+02	3.45100e+03	1.60122e+00	3.27583e+02
3459	3.31164e+02	3.45900e+03	1.59133e+00	3.28250e+02
3467	3.31836e+02	3.46700e+03	1.58115e+00	3.28917e+02
3475	3.32500e+02	3.47500e+03	1.57097e+00	3.29583e+02
3483	3.33169e+02	3.48300e+03	1.55971e+00	3.30250e+02
3491	3.33833e+02	3.49100e+03	1.54822e+00	3.30917e+02
3499	3.34527e+02	3.49900e+03	1.53633e+00	3.31583e+02
3507	3.35211e+02	3.50700e+03	1.52410e+00	3.32250e+02
3515	3.35884e+02	3.51500e+03	1.51134e+00	3.32917e+02
3523	3.36568e+02	3.52300e+03	1.49803e+00	3.33583e+02
3531	3.37234e+02	3.53100e+03	1.48427e+00	3.34250e+02
3539	3.37918e+02	3.53900e+03	1.47002e+00	3.34917e+02
3547	3.38599e+02	3.54700e+03	1.45546e+00	3.35583e+02
3555	3.39243e+02	3.55500e+03	1.44053e+00	3.36250e+02
3563	3.39923e+02	3.56300e+03	1.42495e+00	3.36917e+02
3571	3.40613e+02	3.57100e+03	1.40905e+00	3.37583e+02
3579	3.41276e+02	3.57900e+03	1.39255e+00	3.38250e+02
3587	3.41946e+02	3.58700e+03	1.37562e+00	3.38917e+02
3595	3.42606e+02	3.59500e+03	1.35831e+00	3.39583e+02
3603	3.43282e+02	3.60300e+03	1.34064e+00	3.40250e+02
3611	3.43937e+02	3.61100e+03	1.32261e+00	3.40917e+02
3619	3.44609e+02	3.61900e+03	1.30414e+00	3.41583e+02
3627	3.45276e+02	3.62700e+03	1.28525e+00	3.42250e+02
3635	3.45945e+02	3.63500e+03	1.26598e+00	3.42917e+02
3643	3.46606e+02	3.64300e+03	1.24640e+00	3.43583e+02
3651	3.47268e+02	3.65100e+03	1.22649e+00	3.44250e+02
3659	3.47945e+02	3.65900e+03	1.20607e+00	3.44917e+02
3667	3.48618e+02	3.66700e+03	1.18541e+00	3.45583e+02
3675	3.49323e+02	3.67500e+03	1.16437e+00	3.46250e+02
3683	3.50003e+02	3.68300e+03	1.14301e+00	3.46917e+02
3691	3.50672e+02	3.69100e+03	1.12134e+00	3.47583e+02
3699	3.51357e+02	3.69900e+03	1.09943e+00	3.48250e+02
3707	3.52062e+02	3.70700e+03	1.07730e+00	3.48917e+02
3715	3.52712e+02	3.71500e+03	1.05495e+00	3.49583e+02
3723	3.53380e+02	3.72300e+03	1.03248e+00	3.50250e+02
3731	3.54083e+02	3.73100e+03	1.00987e+00	3.50917e+02
3739	3.54758e+02	3.73900e+03	9.86984e-01	3.51583e+02
3747	3.55427e+02	3.74700e+03	9.64336e-01	3.52250e+02
3755	3.56100e+02	3.75500e+03	9.41415e-01	3.52917e+02
3763	3.56766e+02	3.76300e+03	9.18429e-01	3.53583e+02
3771	3.57448e+02	3.77100e+03	8.95461e-01	3.54250e+02
3779	3.58154e+02	3.77900e+03	8.72555e-01	3.54917e+02
3787	3.58834e+02	3.78700e+03	8.49210e-01	3.55583e+02
3795	3.59504e+02	3.79500e+03	8.25848e-01	3.56250e+02
3803	3.60175e+02	3.80300e+03	8.02718e-01	3.56917e+02
3811	3.60854e+02	3.81100e+03	7.79570e-01	3.57583e+02
3819	3.61521e+02	3.81900e+03	7.56435e-01	3.58250e+02
3827	3.62185e+02	3.82700e+03	7.33361e-01	3.58917e+02
3835	3.62861e+02	3.83500e+03	7.10147e-01	3.59583e+02
3843	3.63528e+02	3.84300e+03	6.87254e-01	3.60250e+02
3851	3.64203e+02	3.85100e+03	6.64487e-01	3.60917e+02
3859	3.64883e+02	3.85900e+03	6.41757e-01	3.61583e+02
3867	3.65569e+02	3.86700e+03	6.19041e-01	3.62250e+02
3875	3.66248e+02	3.87500e+03	5.97012e-01	3.62917e+02
3883	3.66939e+02	3.88300e+03	5.75220e-01	3.63583e+02
3891	3.67643e+02	3.89100e+03	5.53720e-01	3.64250e+02
3899	3.68314e+02	3.89900e+03	5.32454e-01	3.64917e+02
3907	3.68965e+02	3.90700e+03	5.11716e-01	3.65583e+02
3915	3.69620e+02	3.91500e+03	4.91404e-01	3.66250e+02
3923	3.70264e+02	3.92300e+03	4.71602e-01	3.66917e+02
3931	3.70908e+02	3.93100e+03	4.52214e-01	3.67583e+02
3939	3.71574e+02	3.93900e+03	4.33185e-01	3.68250e+02
3947	3.72235e+02	3.94700e+03	4.14835e-01	3.68917e+02
3955	3.72886e+02	3.95500e+03	3.96886e-01	3.69583e+02
3963	3.73577e+02	3.96300e+03	3.79328e-01	3.70250e+02
3971	3.74248e+02	3.97100e+03	3.62392e-01	3.70917e+02
3979	3.74934e+02	3.97900e+03	3.45734e-01	3.71583e+02
3987	3.75645e+02	3.98700e+03	3.29784e-01	3.72250e+02
3995	3.76305e+02	3.99500e+03	3.14410e-01	3.72917e+02
4003	3.76982e+02	4.00300e+03	2.99433e-01	3.73583e+02
4011	3.77732e+02	4.01100e+03	2.85152e-01	3.74250e+02
4019	3.78428e+02	4.01900e+03	2.71302e-01	3.74917e+02
4027	3.79132e+02	4.02700e+03	2.57726e-01	3.75583e+02
4035	3.79874e+02	4.03500e+03	2.44833e-01	3.76250e+02
4043	3.80610e+02	4.04300e+03	2.32436e-01	3.76917e+02
4051	3.81534e+02	4.05100e+03	2.20649e-01	3.77583e+02
4059	3.82356e+02	4.05900e+03	2.09307e-01	3.78250e+02
4067	3.83120e+02	4.06700e+03	1.98217e-01	3.78917e+02
4075	3.83763e+02	4.07500e+03	1.87745e-01	3.79583e+02
4083	3.84395e+02	4.08300e+03	1.77710e-01	3.80250e+02
4091	3.85092e+02	4.09100e+03	1.68153e-01	3.80917e+02
4099	3.85753e+02	4.09900e+03	1.58983e-01	3.81583e+02
4107	3.86421e+02	4.10700e+03	1.50344e-01	3.82250e+02
4115	3.87080e+02	4.11500e+03	1.41933e-01	3.82917e+02
4123	3.87755e+02	4.12300e+03	1.34140e-01	3.83583e+02
4131	3.88406e+02	4.13100e+03	1.26601e-01	3.84250e+02
4139	3.89045e+02	4.13900e+03	1.19515e-01	3.84917e+02
4147	3.89728e+02	4.14700e+03	1.12706e-01	3.85583e+02
4155	3.90458e+02	4.15500e+03	1.06496e-01	3.86250e+02
4163	3.91157e+02	4.16300e+03	1.00549e-01	3.86917e+02
4171	3.91755e+02	4.17100e+03	9.50941e-02	3.87583e+02
4179	3.92377e+02	4.17900e+03	8.97969e-02	3.88250e+02
4187	3.92911e+02	4.18700e+03	8.48000e-02	3.88917e+02
4195	3.93475e+02	4.19500e+03	8.00894e-02	3.89583e+02
4203	3.94072e+02	4.20300e+03	7.57042e-02	3.90250e+02
4211	3.94686e+02	4.21100e+03	7.17131e-02	3.90917e+02
4219	3.95314e+02	4.21900e+03	6.78241e-02	3.91583e+02
4227	3.95919e+02	4.22700e+03	6.39801e-02	3.92250e+02
4235	3.96537e+02	4.23500e+03	6.08978e-02	3.92917e+02
4243	3.97166e+02	4.24300e+03	5.79142e-02	3.93583e+02
4251	3.97805e+02	4.25100e+03	5.51476e-02	3.94250e+02
4259	3.98448e+02	4.25900e+03	5.24417e-02	3.94917e+02
4267	3.99100e+02	4.26700e+03	5.00056e-02	3.95583e+02
4275	3.99738e+02	4.27500e+03	4.77678e-02	3.96250e+02
4283	4.00385e+02	4.28300e+03	4.56409e-02	3.96917e+02
4291	4.01044e+02	4.29100e+03	4.37138e-02	3.97583e+02
4299	4.01702e+02	4.29900e+03	4.19288e-02	3.98250e+02
4307	4.02371e+02	4.30700e+03	4.03251e-02	3.98917e+02
4315	4.03065e+02	4.31500e+03	3.87047e-02	3.99583e+02
4323	4.03696e+02	4.32300e+03	3.73948e-02	4.00250e+02
4331	4.04370e+02	4.33100e+03	3.61994e-02	4.00917e+02
4339	4.05036e+02	4.33900e+03	3.47673e-02	4.01583e+02
4347	4.05695e+02	4.34700e+03	3.35872e-02	4.02250e+02
4355	4.06326e+02	4.35500e+03	3.25805e-02	4.02917e+02
4363	4.06963e+02	4.36300e+03	3.15858e-02	4.03583e+02
4371	4.07614e+02	4.37100e+03	3.07000e-02	4.04250e+02
4379	4.08252e+02	4.37900e+03	2.96058e-02	4.04917e+02
4387	4.08889e+02	4.38700e+03	2.89554e-02	4.05583e+02
4395	4.09545e+02	4.39500e+03	2.84157e-02	4.06250e+02
4403	4.10180e+02	4.40300e+03	2.77016e-02	4.06917e+02
4411	4.10810e+02	4.41100e+03	2.70546e-02	4.07583e+02
4419	4.11464e+02	4.41900e+03	2.64834e-02	4.08250e+02
4427	4.12088e+02	4.42700e+03	2.57946e-02	4.08917e+02
4435	4.12722e+02	4.43500e+03	2.53313e-02	4.09583e+02
4443	4.13350e+02	4.44300e+03	2.48670e-02	4.10250e+02
4451	4.14003e+02	4.45100e+03	2.44478e-02	4.10917e+02
4459	4.14647e+02	4.45900e+03	2.39979e-02	4.11583e+02
4467	4.15287e+02	4.46700e+03	2.37283e-02	4.12250e+02
4475	4.15922e+02	4.47500e+03	2.35148e-02	4.12917e+02
4483	4.16553e+02	4.48300e+03	2.32334e-02	4.13583e+02
4491	4.17211e+02	4.49100e+03	2.29359e-02	4.14250e+02
4499	4.17839e+02	4.49900e+03	2.27531e-02	4.14917e+02
4507	4.18486e+02	4.50700e+03	2.25472e-02	4.15583e+02
4515	4.19134e+02	4.51500e+03	2.24537e-02	4.16250e+02
4523	4.19775e+02	4.52300e+03	2.26124e-02	4.16917e+02
4531	4.20428e+02	4.53100e+03	2.24005e-02	4.17583e+02
4539	4.21071e+02	4.53900e+03	2.20174e-02	4.18250e+02
4547	4.21727e+02	4.54700e+03	2.19017e-02	4.18917e+02
4555	4.22370e+02	4.55500e+03	2.17164e-02	4.19583e+02
4563	4.23016e+02	4.56300e+03	2.16410e-02	4.20250e+02
4571	4.23652e+02	4.57100e+03	2.14354e-02	4.20917e+02
4579	4.24290e+02	4.57900e+03	2.13661e-02	4.21583e+02
4587	4.24934e+02	4.58700e+03	2.12112e-02	4.22250e+02
4595	4.25588e+02	4.59500e+03	2.13656e-02	4.22917e+02
4603	4.26237e+02	4.60300e+03	2.13873e-02	4.23583e+02
4611	4.26885e+02	4.61100e+03	2.11862e-02	4.24250e+02
4619	4.27535e+02	4.61900e+03	2.10645e-02	4.24917e+02
4627	4.28187e+02	4.62700e+03	2.10867e-02	4.25583e+02
4635	4.28852e+02	4.63500e+03	2.10240e-02	4.26250e+02
4643	4.29488e+02	4.64300e+03	2.10827e-02	4.26917e+02
4651	4.30066e+02	4.65100e+03	2.05471e-02	4.27583e+02
4659	4.30560e+02	4.65900e+03	2.04348e-02	4.28250e+02
4667	4.31172e+02	4.66700e+03	2.13486e-02	4.28917e+02
4675	4.31808e+02	4.67500e+03	2.12073e-02	4.29583e+02
4683	4.32465e+02	4.68300e+03	2.10491e-02	4.30250e+02
4691	4.33111e+02	4.69100e+03	2.10473e-02	4.30917e+02
4699	4.33762e+02	4.69900e+03	2.07259e-02	4.31583e+02
4707	4.34410e+02	4.70700e+03	2.08632e-02	4.32250e+02
4715	4.35075e+02	4.71500e+03	2.08671e-02	4.32917e+02
4723	4.35722e+02	4.72300e+03	2.02606e-02	4.33583e+02
4731	4.36375e+02	4.73100e+03	2.06613e-02	4.34250e+02
4739	4.37041e+02	4.73900e+03	2.10603e-02	4.34917e+02
4747	4.37685e+02	4.74700e+03	2.05670e-02	4.35583e+02
4755	4.38343e+02	4.75500e+03	2.03355e-02	4.36250e+02
4763	4.38990e+02	4.76300e+03	2.05153e-02	4.36917e+02
4771	4.39643e+02	4.77100e+03	2.05645e-02	4.37583e+02
4779	4.40298e+02	4.77900e+03	2.05333e-02	4.38250e+02
4787	4.40953e+02	4.78700e+03	2.05313e-02	4.38917e+02
4795	4.41594e+02	4.79500e+03	2.05116e-02	4.39583e+02
4803	4.42258e+02	4.80300e+03	2.04881e-02	4.40250e+02
4811	4.42904e+02	4.81100e+03	2.04196e-02	4.40917e+02
4819	4.43551e+02	4.81900e+03	1.99313e-02	4.41583e+02
4827	4.44193e+02	4.82700e+03	1.98669e-02	4.42250e+02
4835	4.44849e+02	4.83500e+03	2.01550e-02	4.42917e+02
4843	4.45510e+02	4.84300e+03	2.04979e-02	4.43583e+02
4851	4.46157e+02	4.85100e+03	2.07132e-02	4.44250e+02
4859	4.46797e+02	4.85900e+03	2.04183e-02	4.44917e+02
4867	4.47449e+02	4.86700e+03	2.02432e-02	4.45583e+02
4875	4.48106e+02	4.87500e+03	2.02298e-02	4.46250e+02
4883	4.48746e+02	4.88300e+03	2.02218e-02	4.46917e+02
4891	4.49400e+02	4.89100e+03	2.02108e-02	4.47583e+02
4899	4.50048e+02	4.89900e+03	2.02979e-02	4.48250e+02
4907	4.50710e+02	4.90700e+03	2.01859e-02	4.48917e+02
4915	4.51361e+02	4.91500e+03	2.01654e-02	4.49583e+02
4923	4.52007e+02	4.92300e+03	2.00669e-02	4.50250e+02
4931	4.52660e+02	4.93100e+03	2.01166e-02	4.50917e+02
4939	4.53313e+02	4.93900e+03	2.01312e-02	4.51583e+02
4947	4.53972e+02	4.94700e+03	2.01228e-02	4.52250e+02
4955	4.54617e+02	4.95500e+03	2.01401e-02	4.52917e+02
4963	4.55272e+02	4.96300e+03	2.03023e-02	4.53583e+02
4971	4.55927e+02	4.97100e+03	2.03684e-02	4.54250e+02
4979	4.56586e+02	4.97900e+03	2.02731e-02	4.54917e+02
4987	4.57242e+02	4.98700e+03	2.01960e-02	4.55583e+02
4995	4.57891e+02	4.99500e+03	2.01269e-02	4.56250e+02
5003	4.58543e+02	5.00300e+03	2.01361e-02	4.56917e+02
5011	4.59188e+02	5.01100e+03	2.00915e-02	4.57583e+02
5019	4.59841e+02	5.01900e+03	2.01658e-02	4.58250e+02
5027	4.60497e+02	5.02700e+03	2.02108e-02	4.58917e+02
5035	4.61142e+02	5.03500e+03	2.02382e-02	4.59583e+02
5043	4.61793e+02	5.04300e+03	2.02169e-02	4.60250e+02
5051	4.62455e+02	5.05100e+03	2.02621e-02	4.60917e+02
5059	4.63096e+02	5.05900e+03	2.02226e-02	4.61583e+02
5067	4.63744e+02	5.06700e+03	2.01899e-02	4.62250e+02
5075	4.64400e+02	5.07500e+03	2.00725e-02	4.62917e+02
5083	4.65039e+02	5.08300e+03	1.99556e-02	4.63583e+02
5091	4.65688e+02	5.09100e+03	2.00103e-02	4.64250e+02
5099	4.66322e+02	5.09900e+03	2.00992e-02	4.64917e+02
5107	4.66975e+02	5.10700e+03	2.00914e-02	4.65583e+02
5115	4.67625e+02	5.11500e+03	2.01188e-02	4.66250e+02
5123	4.68270e+02	5.12300e+03	2.01230e-02	4.66917e+02
5131	4.68910e+02	5.13100e+03	1.99935e-02	4.67583e+02
5139	4.69562e+02	5.13900e+03	2.00091e-02	4.68250e+02
5147	4.70206e+02	5.14700e+03	1.98995e-02	4.68917e+02
5155	4.70852e+02	5.15500e+03	1.99645e-02	4.69583e+02
5163	4.71496e+02	5.16300e+03	1.98776e-02	4.70250e+02
5171	4.72144e+02	5.17100e+03	1.98740e-02	4.70917e+02
5179	4.72784e+02	5.17900e+03	1.98823e-02	4.71583e+02
5187	4.73436e+02	5.18700e+03	1.98861e-02	4.72250e+02
5195	4.74071e+02	5.19500e+03	1.98944e-02	4.72917e+02
5203	4.74734e+02	5.20300e+03	1.99734e-02	4.73583e+02
5211	4.75373e+02	5.21100e+03	1.99925e-02	4.74250e+02
5219	4.76032e+02	5.21900e+03	1.99591e-02	4.74917e+02
5227	4.76684e+02	5.22700e+03	2.00216e-02	4.75583e+02
5235	4.77335e+02	5.23500e+03	2.00731e-02	4.76250e+02
5243	4.77991e+02	5.24300e+03	2.00915e-02	4.76917e+02
5251	4.78644e+02	5.25100e+03	1.99019e-02	4.77583e+02
5259	4.79301e+02	5.25900e+03	1.98023e-02	4.78250e+02
5267	4.79945e+02	5.26700e+03	1.97734e-02	4.78917e+02
5275	4.80610e+02	5.27500e+03	1.97638e-02	4.79583e+02
5283	4.81254e+02	5.28300e+03	1.98741e-02	4.80250e+02
5291	4.81916e+02	5.29100e+03	1.98124e-02	4.80917e+02
5299	4.82557e+02	5.29900e+03	1.98167e-02	4.81583e+02
5307	4.83222e+02	5.30700e+03	1.98456e-02	4.82250e+02
5315	4.83875e+02	5.31500e+03	1.98398e-02	4.82917e+02
5323	4.84527e+02	5.32300e+03	1.99578e-02	4.83583e+02
5331	4.85183e+02	5.33100e+03	1.98617e-02	4.84250e+02
5339	4.85838e+02	5.33900e+03	1.98310e-02	4.84917e+02
5347	4.86492e+02	5.34700e+03	1.98608e-02	4.85583e+02
5355	4.87142e+02	5.35500e+03	1.99438e-02	4.86250e+02
5363	4.87802e+02	5.36300e+03	1.98330e-02	4.86917e+02
5371	4.88451e+02	5.37100e+03	1.97558e-02	4.87583e+02
5379	4.89114e+02	5.37900e+03	1.97993e-02	4.88250e+02
5387	4.89754e+02	5.38700e+03	1.97513e-02	4.88917e+02
5395	4.90410e+02	5.39500e+03	1.97551e-02	4.89583e+02
5403	4.91066e+02	5.40300e+03	1.97566e-02	4.90250e+02
5411	4.91723e+02	5.41100e+03	1.96651e-02	4.90917e+02
5419	4.92370e+02	5.41900e+03	1.96994e-02	4.91583e+02
5427	4.93031e+02	5.42700e+03	1.96311e-02	4.92250e+02
5435	4.93687e+02	5.43500e+03	1.96375e-02	4.92917e+02
5443	4.94360e+02	5.44300e+03	1.96721e-02	4.93583e+02
5451	4.95006e+02	5.45100e+03	1.95585e-02	4.94250e+02
5459	4.95672e+02	5.45900e+03	1.95989e-02	4.94917e+02
5467	4.96327e+02	5.46700e+03	1.96469e-02	4.95583e+02
5475	4.96985e+02	5.47500e+03	1.96846e-02	4.96250e+02
5483	4.97651e+02	5.48300e+03	1.96290e-02	4.96917e+02
5491	4.98314e+02	5.49100e+03	1.96014e-02	4.97583e+02
5499	4.98982e+02	5.49900e+03	1.95675e-02	4.98250e+02
5507	4.99631e+02	5.50700e+03	1.97296e-02	4.98917e+02
5515	5.00304e+02	5.51500e+03	1.96591e-02	4.99583e+02
5523	5.00952e+02	5.52300e+03	1.95599e-02	5.00250e+02
5531	5.01629e+02	5.53100e+03	1.95008e-02	5.00917e+02
5539	5.02280e+02	5.53900e+03	1.95616e-02	5.01583e+02
5547	5.02950e+02	5.54700e+03	1.96162e-02	5.02250e+02
5555	5.03607e+02	5.55500e+03	1.95935e-02	5.02917e+02
5563	5.04265e+02	5.56300e+03	1.96672e-02	5.03583e+02
5571	5.04916e+02	5.57100e+03	1.97218e-02	5.04250e+02
5579	5.05575e+02	5.57900e+03	1.97093e-02	5.04917e+02
5587	5.06249e+02	5.58700e+03	1.96460e-02	5.05583e+02
5595	5.06914e+02	5.59500e+03	1.96148e-02	5.06250e+02
5603	5.07576e+02	5.60300e+03	1.95618e-02	5.06917e+02
5611	5.08238e+02	5.61100e+03	1.95168e-02	5.07583e+02
5619	5.08893e+02	5.61900e+03	1.94915e-02	5.08250e+02
5627	5.09572e+02	5.62700e+03	1.94845e-02	5.08917e+02
5635	5.10243e+02	5.63500e+03	1.96529e-02	5.09583e+02
5643	5.10906e+02	5.64300e+03	1.95870e-02	5.10250e+02
5651	5.11580e+02	5.65100e+03	1.94738e-02	5.10917e+02
5659	5.12252e+02	5.65900e+03	1.95755e-02	5.11583e+02
5667	5.12926e+02	5.66700e+03	1.95718e-02	5.12250e+02
5675	5.13594e+02	5.67500e+03	1.95327e-02	5.12917e+02
5683	5.14261e+02	5.68300e+03	1.95326e-02	5.13583e+02
5691	5.14934e+02	5.69100e+03	1.95237e-02	5.14250e+02
5699	5.15588e+02	5.69900e+03	1.94961e-02	5.14917e+02
5707	5.16257e+02	5.70700e+03	1.95860e-02	5.15583e+02
5715	5.16911e+02	5.71500e+03	1.96581e-02	5.16250e+02
5723	5.17567e+02	5.72300e+03	1.95485e-02	5.16917e+02
5731	5.18241e+02	5.73100e+03	1.95863e-02	5.17583e+02
5739	5.18902e+02	5.73900e+03	1.96792e-02	5.18250e+02
5747	5.19556e+02	5.74700e+03	1.95302e-02	5.18917e+02
5755	5.20221e+02	5.75500e+03	1.93983e-02	5.19583e+02
5763	5.20899e+02	5.76300e+03	1.93892e-02	5.20250e+02
5771	5.21556e+02	5.77100e+03	1.94077e-02	5.20917e+02
5779	5.22220e+02	5.77900e+03	1.94669e-02	5.21583e+02
5787	5.22892e+02	5.78700e+03	1.95045e-02	5.22250e+02
5795	5.23544e+02	5.79500e+03	1.94855e-02	5.22917e+02
5803	5.24211e+02	5.80300e+03	1.96113e-02	5.23583e+02
5811	5.24889e+02	5.81100e+03	1.95991e-02	5.24250e+02
5819	5.25544e+02	5.81900e+03	1.95583e-02	5.24917e+02
5827	5.26214e+02	5.82700e+03	1.95307e-02	5.25583e+02
5835	5.26876e+02	5.83500e+03	1.93935e-02	5.26250e+02
5843	5.27528e+02	5.84300e+03	1.93433e-02	5.26917e+02
5851	5.28212e+02	5.85100e+03	1.93622e-02	5.27583e+02
5859	5.28865e+02	5.85900e+03	1.93942e-02	5.28250e+02
5867	5.29526e+02	5.86700e+03	1.94324e-02	5.28917e+02
5875	5.30172e+02	5.87500e+03	1.93045e-02	5.29583e+02
5883	5.30836e+02	5.88300e+03	1.93894e-02	5.30250e+02
5891	5.31507e+02	5.89100e+03	1.95367e-02	5.30917e+02
5899	5.32164e+02	5.89900e+03	1.95551e-02	5.31583e+02
5907	5.32821e+02	5.90700e+03	1.95750e-02	5.32250e+02
5915	5.33491e+02	5.91500e+03	1.94390e-02	5.32917e+02
5923	5.34174e+02	5.92300e+03	1.93804e-02	5.33583e+02
5931	5.34835e+02	5.93100e+03	1.94696e-02	5.34250e+02
5939	5.35500e+02	5.93900e+03	1.94408e-02	5.34917e+02
5947	5.36180e+02	5.94700e+03	1.94323e-02	5.35583e+02
5955	5.36842e+02	5.95500e+03	1.93764e-02	5.36250e+02
5963	5.37501e+02	5.96300e+03	1.93630e-02	5.36917e+02
5971	5.38167e+02	5.97100e+03	1.93585e-02	5.37583e+02
5979	5.38838e+02	5.97900e+03	1.94061e-02	5.38250e+02
5987	5.39511e+02	5.98700e+03	1.93376e-02	5.38917e+02
5995	5.40176e+02	5.99500e+03	1.93146e-02	5.39583e+02
6003	5.40830e+02	6.00300e+03	1.93001e-02	5.40250e+02
6011	5.41495e+02	6.01100e+03	1.93292e-02	5.40917e+02
6019	5.42162e+02	6.01900e+03	1.92482e-02	5.41583e+02
6027	5.42823e+02	6.02700e+03	1.92484e-02	5.42250e+02
6035	5.43486e+02	6.03500e+03	1.92124e-02	5.42917e+02
6043	5.44160e+02	6.04300e+03	1.92311e-02	5.43583e+02
6051	5.44824e+02	6.05100e+03	1.92671e-02	5.44250e+02
6059	5.45490e+02	6.05900e+03	1.90879e-02	5.44917e+02
6067	5.46146e+02	6.06700e+03	1.90253e-02	5.45583e+02
6075	5.46817e+02	6.07500e+03	1.92603e-02	5.46250e+02
6083	5.47486e+02	6.08300e+03	1.92410e-02	5.46917e+02
6091	5.48156e+02	6.09100e+03	1.92527e-02	5.47583e+02
6099	5.48824e+02	6.09900e+03	1.92428e-02	5.48250e+02
6107	5.49493e+02	6.10700e+03	1.91229e-02	5.48917e+02
6115	5.50166e+02	6.11500e+03	1.91434e-02	5.49583e+02
6123	5.50835e+02	6.12300e+03	1.90256e-02	5.50250e+02
6131	5.51494e+02	6.13100e+03	1.90237e-02	5.50917e+02
6139	5.52163e+02	6.13900e+03	1.90759e-02	5.51583e+02
6147	5.52835e+02	6.14700e+03	1.91933e-02	5.52250e+02
6155	5.53490e+02	6.15500e+03	1.91153e-02	5.52917e+02
6163	5.54164e+02	6.16300e+03	1.90894e-02	5.53583e+02
6171	5.54835e+02	6.17100e+03	1.90880e-02	5.54250e+02
6179	5.55504e+02	6.17900e+03	1.91036e-02	5.54917e+02
6187	5.56168e+02	6.18700e+03	1.92151e-02	5.55583e+02
6195	5.56821e+02	6.19500e+03	1.90861e-02	5.56250e+02
6203	5.57498e+02	6.20300e+03	1.90100e-02	5.56917e+02
6211	5.58158e+02	6.21100e+03	1.90693e-02	5.57583e+02
6219	5.58828e+02	6.21900e+03	1.91715e-02	5.58250e+02
6227	5.59493e+02	6.22700e+03	1.92240e-02	5.58917e+02
6235	5.60159e+02	6.23500e+03	1.91373e-02	5.59583e+02
6243	5.60817e+02	6.24300e+03	1.89676e-02	5.60250e+02
6251	5.61486e+02	6.25100e+03	1.88819e-02	5.60917e+02
6259	5.62152e+02	6.25900e+03	1.89584e-02	5.61583e+02
6267	5.62821e+02	6.26700e+03	1.90401e-02	5.62250e+02
6275	5.63484e+02	6.27500e+03	1.90940e-02	5.62917e+02
6283	5.64152e+02	6.28300e+03	1.89445e-02	5.63583e+02
6291	5.64827e+02	6.29100e+03	1.89076e-02	5.64250e+02
6299	5.65503e+02	6.29900e+03	1.89316e-02	5.64917e+02
6307	5.66171e+02	6.30700e+03	1.88512e-02	5.65583e+02
6315	5.66842e+02	6.31500e+03	1.87884e-02	5.66250e+02
6323	5.67510e+02	6.32300e+03	1.89379e-02	5.66917e+02
6331	5.68192e+02	6.33100e+03	1.90004e-02	5.67583e+02
6339	5.68867e+02	6.33900e+03	1.89343e-02	5.68250e+02
6347	5.69507e+02	6.34700e+03	1.88746e-02	5.68917e+02
6355	5.70168e+02	6.35500e+03	1.88109e-02	5.69583e+02
6363	5.70826e+02	6.36300e+03	1.88677e-02	5.70250e+02
6371	5.71500e+02	6.37100e+03	1.89467e-02	5.70917e+02
6379	5.72173e+02	6.37900e+03	1.89224e-02	5.71583e+02
6387	5.72842e+02	6.38700e+03	1.88990e-02	5.72250e+02
6395	5.73505e+02	6.39500e+03	1.89424e-02	5.72917e+02
6403	5.74167e+02	6.40300e+03	1.89250e-02	5.73583e+02
6411	5.74844e+02	6.41100e+03	1.89302e-02	5.74250e+02
6419	5.75503e+02	6.41900e+03	1.88527e-02	5.74917e+02
6427	5.76191e+02	6.42700e+03	1.87869e-02	5.75583e+02
6435	5.76857e+02	6.43500e+03	1.87611e-02	5.76250e+02
6443	5.77539e+02	6.44300e+03	1.87439e-02	5.76917e+02
6451	5.78209e+02	6.45100e+03	1.87921e-02	5.77583e+02
6459	5.78882e+02	6.45900e+03	1.87870e-02	5.78250e+02
6467	5.79554e+02	6.46700e+03	1.86644e-02	5.78917e+02
6475	5.80231e+02	6.47500e+03	1.87805e-02	5.79583e+02
6483	5.80891e+02	6.48300e+03	1.88461e-02	5.80250e+02
6491	5.81557e+02	6.49100e+03	1.87858e-02	5.80917e+02
6499	5.82216e+02	6.49900e+03	1.87390e-02	5.81583e+02
6507	5.82885e+02	6.50700e+03	1.87891e-02	5.82250e+02
6515	5.83547e+02	6.51500e+03	1.87181e-02	5.82917e+02
6523	5.84207e+02	6.52300e+03	1.86730e-02	5.83583e+02
6531	5.84868e+02	6.53100e+03	1.86331e-02	5.84250e+02
6539	5.85530e+02	6.53900e+03	1.86697e-02	5.84917e+02
6547	5.86192e+02	6.54700e+03	1.87714e-02	5.85583e+02
6555	5.86851e+02	6.55500e+03	1.88412e-02	5.86250e+02
6563	5.87515e+02	6.56300e+03	1.87234e-02	5.86917e+02
6571	5.88182e+02	6.57100e+03	1.86739e-02	5.87583e+02
6579	5.88846e+02	6.57900e+03	1.86676e-02	5.88250e+02
6587	5.89513e+02	6.58700e+03	1.86125e-02	5.88917e+02
6595	5.90184e+02	6.59500e+03	1.85149e-02	5.89583e+02
6603	5.90840e+02	6.60300e+03	1.84076e-02	5.90250e+02
6611	5.91495e+02	6.61100e+03	1.85113e-02	5.90917e+02
6619	5.92157e+02	6.61900e+03	1.86160e-02	5.91583e+02
6627	5.92817e+02	6.62700e+03	1.85984e-02	5.92250e+02
6635	5.93472e+02	6.63500e+03	1.85437e-02	5.92917e+02
6643	5.94140e+02	6.64300e+03	1.85329e-02	5.93583e+02
6651	5.94794e+02	6.65100e+03	1.84777e-02	5.94250e+02
6659	5.95459e+02	6.65900e+03	1.84959e-02	5.94917e+02
6667	5.96121e+02	6.66700e+03	1.85478e-02	5.95583e+02
6675	5.96768e+02	6.67500e+03	1.85744e-02	5.96250e+02
6683	5.97437e+02	6.68300e+03	1.85813e-02	5.96917e+02
6691	5.98106e+02	6.69100e+03	1.85951e-02	5.97583e+02
6699	5.98764e+02	6.69900e+03	1.85621e-02	5.98250e+02
6707	5.99431e+02	6.70700e+03	1.85311e-02	5.98917e+02
6715	6.00094e+02	6.71500e+03	1.84756e-02	5.99583e+02
6723	6.00764e+02	6.72300e+03	1.84088e-02	6.00250e+02
6731	6.01434e+02	6.73100e+03	1.85848e-02	6.00917e+02
6739	6.02104e+02	6.73900e+03	1.85654e-02	6.01583e+02
6747	6.02761e+02	6.74700e+03	1.84763e-02	6.02250e+02
6755	6.03426e+02	6.75500e+03	1.83356e-02	6.02917e+02
6763	6.04085e+02	6.76300e+03	1.83109e-02	6.03583e+02
6771	6.04741e+02	6.77100e+03	1.81878e-02	6.04250e+02
6779	6.05413e+02	6.77900e+03	1.82404e-02	6.04917e+02
6787	6.06067e+02	6.78700e+03	1.83056e-02	6.05583e+02
6795	6.06741e+02	6.79500e+03	1.82500e-02	6.06250e+02
6803	6.07406e+02	6.80300e+03	1.82199e-02	6.06917e+02
6811	6.08074e+02	6.81100e+03	1.82376e-02	6.07583e+02
6819	6.08740e+02	6.81900e+03	1.82960e-02	6.08250e+02
6827	6.09377e+02	6.82700e+03	1.82664e-02	6.08917e+02
6835	6.10042e+02	6.83500e+03	1.83453e-02	6.09583e+02
6843	6.10695e+02	6.84300e+03	1.83613e-02	6.10250e+02
6851	6.11349e+02	6.85100e+03	1.82715e-02	6.10917e+02
6859	6.12006e+02	6.85900e+03	1.82620e-02	6.11583e+02
6867	6.12657e+02	6.86700e+03	1.83390e-02	6.12250e+02
6875	6.13328e+02	6.87500e+03	1.82488e-02	6.12917e+02
6883	6.13977e+02	6.88300e+03	1.82834e-02	6.13583e+02
6891	6.14631e+02	6.89100e+03	1.81977e-02	6.14250e+02
6899	6.15292e+02	6.89900e+03	1.81666e-02	6.14917e+02
6907	6.15940e+02	6.90700e+03	1.81418e-02	6.15583e+02
6915	6.16588e+02	6.91500e+03	1.80751e-02	6.16250e+02
6923	6.17241e+02	6.92300e+03	1.80192e-02	6.16917e+02
6931	6.17904e+02	6.93100e+03	1.80149e-02	6.17583e+02
6939	6.18564e+02	6.93900e+03	1.80746e-02	6.18250e+02
6947	6.19210e+02	6.94700e+03	1.81563e-02	6.18917e+02
6955	6.19869e+02	6.95500e+03	1.81395e-02	6.19583e+02
6963	6.20517e+02	6.96300e+03	1.80363e-02	6.20250e+02
6971	6.21185e+02	6.97100e+03	1.80151e-02	6.20917e+02
6979	6.21845e+02	6.97900e+03	1.81201e-02	6.21583e+02
6987	6.22490e+02	6.98700e+03	1.80881e-02	6.22250e+02
6995	6.23144e+02	6.99500e+03	1.79482e-02	6.22917e+02
7003	6.23802e+02	7.00300e+03	1.79565e-02	6.23583e+02
7011	6.24449e+02	7.01100e+03	1.79584e-02	6.24250e+02
7019	6.25108e+02	7.01900e+03	1.79553e-02	6.24917e+02
7027	6.25764e+02	7.02700e+03	1.79376e-02	6.25583e+02
7035	6.26427e+02	7.03500e+03	1.79633e-02	6.26250e+02
7043	6.27067e+02	7.04300e+03	1.79033e-02	6.26917e+02
7051	6.27742e+02	7.05100e+03	1.78576e-02	6.27583e+02
7059	6.28395e+02	7.05900e+03	1.78597e-02	6.28250e+02
7067	6.29061e+02	7.06700e+03	1.78614e-02	6.28917e+02
7075	6.29717e+02	7.07500e+03	1.79151e-02	6.29583e+02
7083	6.30381e+02	7.08300e+03	1.79682e-02	6.30250e+02
7091	6.31040e+02	7.09100e+03	1.79648e-02	6.30917e+02
7099	6.31700e+02	7.09900e+03	1.77884e-02	6.31583e+02
7107	6.32359e+02	7.10700e+03	1.78434e-02	6.32250e+02
7115	6.33032e+02	7.11500e+03	1.78703e-02	6.32917e+02
7123	6.33695e+02	7.12300e+03	1.78628e-02	6.33583e+02
7131	6.34357e+02	7.13100e+03	1.78698e-02	6.34250e+02
7139	6.35033e+02	7.13900e+03	1.78530e-02	6.34917e+02
7147	6.35696e+02	7.14700e+03	1.78440e-02	6.35583e+02
7155	6.36368e+02	7.15500e+03	1.76435e-02	6.36250e+02
7163	6.37034e+02	7.16300e+03	1.75038e-02	6.36917e+02
7171	6.37694e+02	7.17100e+03	1.76465e-02	6.37583e+02
7179	6.38368e+02	7.17900e+03	1.76789e-02	6.38250e+02
7187	6.39030e+02	7.18700e+03	1.76799e-02	6.38917e+02
7195	6.39694e+02	7.19500e+03	1.76419e-02	6.39583e+02
7203	6.40363e+02	7.20300e+03	1.74712e-02	6.40250e+02
7211	6.41021e+02	7.21100e+03	1.73920e-02	6.40917e+02
7219	6.41690e+02	7.21900e+03	1.74652e-02	6.41583e+02
7227	6.42369e+02	7.22700e+03	1.75517e-02	6.42250e+02
7235	6.43036e+02	7.23500e+03	1.75538e-02	6.42917e+02
7243	6.43705e+02	7.24300e+03	1.74531e-02	6.43583e+02
7251	6.44377e+02	7.25100e+03	1.75066e-02	6.44250e+02
7259	6.45046e+02	7.25900e+03	1.74852e-02	6.44917e+02
7267	6.45714e+02	7.26700e+03	1.74436e-02	6.45583e+02
7275	6.46384e+02	7.27500e+03	1.74611e-02	6.46250e+02
7283	6.47055e+02	7.28300e+03	1.74077e-02	6.46917e+02
7291	6.47732e+02	7.29100e+03	1.73332e-02	6.47583e+02
7299	6.48405e+02	7.29900e+03	1.72557e-02	6.48250e+02
7307	6.49071e+02	7.30700e+03	1.72318e-02	6.48917e+02
7315	6.49744e+02	7.31500e+03	1.72310e-02	6.49583e+02
7323	6.50408e+02	7.32300e+03	1.73389e-02	6.50250e+02
7331	6.51078e+02	7.33100e+03	1.73506e-02	6.50917e+02
7339	6.51737e+02	7.33900e+03	1.73075e-02	6.51583e+02
7347	6.52409e+02	7.34700e+03	1.72764e-02	6.52250e+02
7355	6.53075e+02	7.35500e+03	1.73458e-02	6.52917e+02
7363	6.53739e+02	7.36300e+03	1.74174e-02	6.53583e+02
7371	6.54419e+02	7.37100e+03	1.73176e-02	6.54250e+02
7379	6.55089e+02	7.37900e+03	1.72655e-02	6.54917e+02
7387	6.55750e+02	7.38700e+03	1.71670e-02	6.55583e+02
7395	6.56438e+02	7.39500e+03	1.71322e-02	6.56250e+02
7403	6.57108e+02	7.40300e+03	1.72403e-02	6.56917e+02
7411	6.57777e+02	7.41100e+03	1.71769e-02	6.57583e+02
7419	6.58442e+02	7.41900e+03	1.72135e-02	6.58250e+02
7427	6.59114e+02	7.42700e+03	1.72415e-02	6.58917e+02
7435	6.59780e+02	7.43500e+03	1.72482e-02	6.59583e+02
7443	6.60470e+02	7.44300e+03	1.71860e-02	6.60250e+02
7451	6.61144e+02	7.45100e+03	1.71933e-02	6.60917e+02
7459	6.61824e+02	7.45900e+03	1.71488e-02	6.61583e+02
7467	6.62507e+02	7.46700e+03	1.70958e-02	6.62250e+02
7475	6.63175e+02	7.47500e+03	1.71123e-02	6.62917e+02
7483	6.63852e+02	7.48300e+03	1.71458e-02	6.63583e+02
7491	6.64537e+02	7.49100e+03	1.72519e-02	6.64250e+02
7499	6.65206e+02	7.49900e+03	1.73185e-02	6.64917e+02
7507	6.65888e+02	7.50700e+03	1.73291e-02	6.65583e+02
7515	6.66559e+02	7.51500e+03	1.73444e-02	6.66250e+02
7523	6.67254e+02	7.52300e+03	1.73458e-02	6.66917e+02
7531	6.67925e+02	7.53100e+03	1.74461e-02	6.67583e+02
7539	6.68602e+02	7.53900e+03	1.74633e-02	6.68250e+02
7547	6.69293e+02	7.54700e+03	1.73762e-02	6.68917e+02
7555	6.69970e+02	7.55500e+03	1.73561e-02	6.69583e+02
7563	6.70646e+02	7.56300e+03	1.73514e-02	6.70250e+02
7571	6.71337e+02	7.57100e+03	1.73217e-02	6.70917e+02
7579	6.72008e+02	7.57900e+03	1.73170e-02	6.71583e+02
7587	6.72669e+02	7.58700e+03	1.72946e-02	6.72250e+02
7595	6.73348e+02	7.59500e+03	1.73207e-02	6.72917e+02
7603	6.74012e+02	7.60300e+03	1.73492e-02	6.73583e+02
7611	6.74696e+02	7.61100e+03	1.73165e-02	6.74250e+02
7619	6.75361e+02	7.61900e+03	1.72542e-02	6.74917e+02
7627	6.76041e+02	7.62700e+03	1.72435e-02	6.75583e+02
7635	6.76709e+02	7.63500e+03	1.72572e-02	6.76250e+02
7643	6.77398e+02	7.64300e+03	1.71610e-02	6.76917e+02
7651	6.78061e+02	7.65100e+03	1.72525e-02	6.77583e+02
7659	6.78739e+02	7.65900e+03	1.73201e-02	6.78250e+02
7667	6.79416e+02	7.66700e+03	1.73339e-02	6.78917e+02
7675	6.80091e+02	7.67500e+03	1.73161e-02	6.79583e+02
7683	6.80753e+02	7.68300e+03	1.72534e-02	6.80250e+02
7691	6.81414e+02	7.69100e+03	1.72262e-02	6.80917e+02
7699	6.82096e+02	7.69900e+03	1.72635e-02	6.81583e+02
7707	6.82764e+02	7.70700e+03	1.72949e-02	6.82250e+02
7715	6.83436e+02	7.71500e+03	1.72264e-02	6.82917e+02
7723	6.84103e+02	7.72300e+03	1.71409e-02	6.83583e+02
7731	6.84757e+02	7.73100e+03	1.71689e-02	6.84250e+02
7739	6.85436e+02	7.73900e+03	1.71752e-02	6.84917e+02
7747	6.86110e+02	7.74700e+03	1.72416e-02	6.85583e+02
7755	6.86776e+02	7.75500e+03	1.72260e-02	6.86250e+02
7763	6.87448e+02	7.76300e+03	1.71603e-02	6.86917e+02
7771	6.88123e+02	7.77100e+03	1.71125e-02	6.87583e+02
7779	6.88782e+02	7.77900e+03	1.71856e-02	6.88250e+02
7787	6.89455e+02	7.78700e+03	1.71974e-02	6.88917e+02
7795	6.90108e+02	7.79500e+03	1.71867e-02	6.89583e+02
7803	6.90784e+02	7.80300e+03	1.71527e-02	6.90250e+02
7811	6.91463e+02	7.81100e+03	1.70751e-02	6.90917e+02
7819	6.92129e+02	7.81900e+03	1.70951e-02	6.91583e+02
7827	6.92798e+02	7.82700e+03	1.71594e-02	6.92250e+02
7835	6.93456e+02	7.83500e+03	1.69319e-02	6.92917e+02
7843	6.94129e+02	7.84300e+03	1.69139e-02	6.93583e+02
7851	6.94796e+02	7.85100e+03	1.70593e-02	6.94250e+02
7859	6.95461e+02	7.85900e+03	1.69647e-02	6.94917e+02
7867	6.96136e+02	7.86700e+03	1.68001e-02	6.95583e+02
7875	6.96787e+02	7.87500e+03	1.67749e-02	6.96250e+02
7883	6.97457e+02	7.88300e+03	1.68180e-02	6.96917e+02
7891	6.98127e+02	7.89100e+03	1.69024e-02	6.97583e+02
7899	6.98650e+02	7.89900e+03	1.69970e-02	6.98250e+02
7907	6.99094e+02	7.90700e+03	1.71248e-02	6.98917e+02
7915	6.99437e+02	7.91500e+03	1.69014e-02	6.99583e+02
7920	6.99615e+02	7.92000e+03	1.68564e-02	7.00000e+02