File: Experiments/TGA/TUBS/tga_nonisotherm/tga_dynamic_n2_dyn60_powder_12mg_r2.txt
index	ts	t	weight	tr
[#]	[°C]	[s]	[mg]	[°C]
643	1.30646e+02	6.43000e+02	1.20568e+01	1.33000e+02
644	1.31671e+02	6.44000e+02	1.20567e+01	1.34000e+02
645	1.32678e+02	6.45000e+02	1.20566e+01	1.35000e+02
646	1.33711e+02	6.46000e+02	1.20565e+01	1.36000e+02
647	1.34739e+02	6.47000e+02	1.20564e+01	1.37000e+02
648	1.35761e+02	6.48000e+02	1.20563e+01	1.38000e+02
649	1.36790e+02	6.49000e+02	1.20561e+01	1.39000e+02
650	1.37804e+02	6.50000e+02	1.20560e+01	1.40000e+02
651	1.38829e+02	6.51000e+02	1.20558e+01	1.41000e+02
652	1.39838e+02	6.52000e+02	1.20556e+01	1.42000e+02
653	1.40864e+02	6.53000e+02	1.20554e+01	1.43000e+02
654	1.41892e+02	6.54000e+02	1.20551e+01	1.44000e+02
655	1.42903e+02	6.55000e+02	1.20549e+01	1.45000e+02
656	1.43917e+02	6.56000e+02	1.20545e+01	1.46000e+02
657	1.44931e+02	6.57000e+02	1.20542e+01	1.47000e+02
658	1.45961e+02	6.58000e+02	1.20538e+01	1.48000e+02
659	1.46986e+02	6.59000e+02	1.20534e+01	1.49000e+02
660	1.48011e+02	6.60000e+02	1.20529e+01	1.50000e+02
661	1.49018e+02	6.61000e+02	1.20524e+01	1.51000e+02
662	1.50034e+02	6.62000e+02	1.20519e+01	1.52000e+02
663	1.51055e+02	6.63000e+02	1.20513e+01	1.53000e+02
664	1.52073e+02	6.64000e+02	1.20505e+01	1.54000e+02
665	1.53092e+02	6.65000e+02	1.20498e+01	1.55000e+02
666	1.54105e+02	6.66000e+02	1.20490e+01	1.56000e+02
667	1.55120e+02	6.67000e+02	1.20481e+01	1.57000e+02
668	1.56135e+02	6.68000e+02	1.20471e+01	1.58000e+02
669	1.57163e+02	6.69000e+02	1.20461e+01	1.59000e+02
670	1.58183e+02	6.70000e+02	1.20450e+01	1.60000e+02
671	1.59193e+02	6.71000e+02	1.20439e+01	1.61000e+02
672	1.60212e+02	6.72000e+02	1.20425e+01	1.62000e+02
673	1.61224e+02	6.73000e+02	1.20412e+01	1.63000e+02
674	1.62244e+02	6.74000e+02	1.20399e+01	1.64000e+02
675	1.63263e+02	6.75000e+02	1.20385e+01	1.65000e+02
676	1.64281e+02	6.76000e+02	1.20370e+01	1.66000e+02
677	1.65303e+02	6.77000e+02	1.20355e+01	1.67000e+02
678	1.66314e+02	6.78000e+02	1.20339e+01	1.68000e+02
679	1.67310e+02	6.79000e+02	1.20323e+01	1.69000e+02
680	1.68336e+02	6.80000e+02	1.20306e+01	1.70000e+02
681	1.69328e+02	6.81000e+02	1.20288e+01	1.71000e+02
682	1.70348e+02	6.82000e+02	1.20270e+01	1.72000e+02
683	1.71372e+02	6.83000e+02	1.20251e+01	1.73000e+02
684	1.72387e+02	6.84000e+02	1.20231e+01	1.74000e+02
685	1.73400e+02	6.85000e+02	1.20210e+01	1.75000e+02
686	1.74408e+02	6.86000e+02	1.20188e+01	1.76000e+02
687	1.75428e+02	6.87000e+02	1.20166e+01	1.77000e+02
688	1.76430e+02	6.88000e+02	1.20140e+01	1.78000e+02
689	1.77444e+02	6.89000e+02	1.20114e+01	1.79000e+02
690	1.78465e+02	6.90000e+02	1.20087e+01	1.80000e+02
691	1.79474e+02	6.91000e+02	1.20058e+01	1.81000e+02
692	1.80492e+02	6.92000e+02	1.20025e+01	1.82000e+02
693	1.81483e+02	6.93000e+02	1.19992e+01	1.83000e+02
694	1.82504e+02	6.94000e+02	1.19957e+01	1.84000e+02
695	1.83517e+02	6.95000e+02	1.19920e+01	1.85000e+02
696	1.84526e+02	6.96000e+02	1.19877e+01	1.86000e+02
697	1.85527e+02	6.97000e+02	1.19834e+01	1.87000e+02
698	1.86548e+02	6.98000e+02	1.19788e+01	1.88000e+02
699	1.87554e+02	6.99000e+02	1.19741e+01	1.89000e+02
700	1.88561e+02	7.00000e+02	1.19685e+01	1.90000e+02
701	1.89566e+02	7.01000e+02	1.19629e+01	1.91000e+02
702	1.90588e+02	7.02000e+02	1.19570e+01	1.92000e+02
703	1.91605e+02	7.03000e+02	1.19509e+01	1.93000e+02
704	1.92610e+02	7.04000e+02	1.19436e+01	1.94000e+02
705	1.93618e+02	7.05000e+02	1.19364e+01	1.95000e+02
706	1.94622e+02	7.06000e+02	1.19289e+01	1.96000e+02
707	1.95631e+02	7.07000e+02	1.19211e+01	1.97000e+02
708	1.96639e+02	7.08000e+02	1.19120e+01	1.98000e+02
709	1.97642e+02	7.09000e+02	1.19031e+01	1.99000e+02
710	1.98658e+02	7.10000e+02	1.18940e+01	2.00000e+02
711	1.99669e+02	7.11000e+02	1.18845e+01	2.01000e+02
712	2.00675e+02	7.12000e+02	1.18738e+01	2.02000e+02
713	2.01678e+02	7.13000e+02	1.18633e+01	2.03000e+02
714	2.02691e+02	7.14000e+02	1.18527e+01	2.04000e+02
715	2.03700e+02	7.15000e+02	1.18418e+01	2.05000e+02
716	2.04714e+02	7.16000e+02	1.18298e+01	2.06000e+02
717	2.05731e+02	7.17000e+02	1.18182e+01	2.07000e+02
718	2.06742e+02	7.18000e+02	1.18064e+01	2.08000e+02
719	2.07754e+02	7.19000e+02	1.17946e+01	2.09000e+02
720	2.08767e+02	7.20000e+02	1.17821e+01	2.10000e+02
721	2.09791e+02	7.21000e+02	1.17700e+01	2.11000e+02
722	2.10802e+02	7.22000e+02	1.17578e+01	2.12000e+02
723	2.11829e+02	7.23000e+02	1.17457e+01	2.13000e+02
724	2.12834e+02	7.24000e+02	1.17337e+01	2.14000e+02
725	2.13859e+02	7.25000e+02	1.17218e+01	2.15000e+02
726	2.14883e+02	7.26000e+02	1.17101e+01	2.16000e+02
727	2.15902e+02	7.27000e+02	1.16986e+01	2.17000e+02
728	2.16927e+02	7.28000e+02	1.16879e+01	2.18000e+02
729	2.17946e+02	7.29000e+02	1.16772e+01	2.19000e+02
730	2.18978e+02	7.30000e+02	1.16668e+01	2.20000e+02
731	2.19996e+02	7.31000e+02	1.16567e+01	2.21000e+02
732	2.21021e+02	7.32000e+02	1.16480e+01	2.22000e+02
733	2.22033e+02	7.33000e+02	1.16392e+01	2.23000e+02
734	2.23057e+02	7.34000e+02	1.16307e+01	2.24000e+02
735	2.24082e+02	7.35000e+02	1.16226e+01	2.25000e+02
736	2.25094e+02	7.36000e+02	1.16161e+01	2.26000e+02
737	2.26108e+02	7.37000e+02	1.16093e+01	2.27000e+02
738	2.27134e+02	7.38000e+02	1.16028e+01	2.28000e+02
739	2.28159e+02	7.39000e+02	1.15966e+01	2.29000e+02
740	2.29163e+02	7.40000e+02	1.15918e+01	2.30000e+02
741	2.30192e+02	7.41000e+02	1.15868e+01	2.31000e+02
742	2.31211e+02	7.42000e+02	1.15819e+01	2.32000e+02
743	2.32236e+02	7.43000e+02	1.15772e+01	2.33000e+02
744	2.33263e+02	7.44000e+02	1.15735e+01	2.34000e+02
745	2.34279e+02	7.45000e+02	1.15696e+01	2.35000e+02
746	2.35305e+02	7.46000e+02	1.15658e+01	2.36000e+02
747	2.36331e+02	7.47000e+02	1.15620e+01	2.37000e+02
748	2.37346e+02	7.48000e+02	1.15588e+01	2.38000e+02
749	2.38363e+02	7.49000e+02	1.15555e+01	2.39000e+02
750	2.39371e+02	7.50000e+02	1.15521e+01	2.40000e+02
751	2.40406e+02	7.51000e+02	1.15488e+01	2.41000e+02
752	2.41413e+02	7.52000e+02	1.15457e+01	2.42000e+02
753	2.42419e+02	7.53000e+02	1.15426e+01	2.43000e+02
754	2.43436e+02	7.54000e+02	1.15394e+01	2.44000e+02
755	2.44449e+02	7.55000e+02	1.15362e+01	2.45000e+02
756	2.45471e+02	7.56000e+02	1.15331e+01	2.46000e+02
757	2.46487e+02	7.57000e+02	1.15299e+01	2.47000e+02
758	2.47499e+02	7.58000e+02	1.15268e+01	2.48000e+02
759	2.48517e+02	7.59000e+02	1.15236e+01	2.49000e+02
760	2.49512e+02	7.60000e+02	1.15204e+01	2.50000e+02
761	2.50495e+02	7.61000e+02	1.15173e+01	2.51000e+02
762	2.51489e+02	7.62000e+02	1.15141e+01	2.52000e+02
763	2.52489e+02	7.63000e+02	1.15110e+01	2.53000e+02
764	2.53499e+02	7.64000e+02	1.15079e+01	2.54000e+02
765	2.54501e+02	7.65000e+02	1.15048e+01	2.55000e+02
766	2.55501e+02	7.66000e+02	1.15017e+01	2.56000e+02
767	2.56529e+02	7.67000e+02	1.14987e+01	2.57000e+02
768	2.57543e+02	7.68000e+02	1.14957e+01	2.58000e+02
769	2.58543e+02	7.69000e+02	1.14927e+01	2.59000e+02
770	2.59572e+02	7.70000e+02	1.14898e+01	2.60000e+02
771	2.60576e+02	7.71000e+02	1.14868e+01	2.61000e+02
772	2.61594e+02	7.72000e+02	1.14840e+01	2.62000e+02
773	2.62591e+02	7.73000e+02	1.14812e+01	2.63000e+02
774	2.63594e+02	7.74000e+02	1.14784e+01	2.64000e+02
775	2.64591e+02	7.75000e+02	1.14757e+01	2.65000e+02
776	2.65593e+02	7.76000e+02	1.14730e+01	2.66000e+02
777	2.66599e+02	7.77000e+02	1.14704e+01	2.67000e+02
778	2.67614e+02	7.78000e+02	1.14677e+01	2.68000e+02
779	2.68624e+02	7.79000e+02	1.14651e+01	2.69000e+02
780	2.69627e+02	7.80000e+02	1.14625e+01	2.70000e+02
781	2.70628e+02	7.81000e+02	1.14600e+01	2.71000e+02
782	2.71610e+02	7.82000e+02	1.14574e+01	2.72000e+02
783	2.72626e+02	7.83000e+02	1.14548e+01	2.73000e+02
784	2.73647e+02	7.84000e+02	1.14523e+01	2.74000e+02
785	2.74651e+02	7.85000e+02	1.14497e+01	2.75000e+02
786	2.75686e+02	7.86000e+02	1.14471e+01	2.76000e+02
787	2.76696e+02	7.87000e+02	1.14446e+01	2.77000e+02
788	2.77725e+02	7.88000e+02	1.14419e+01	2.78000e+02
789	2.78735e+02	7.89000e+02	1.14393e+01	2.79000e+02
790	2.79740e+02	7.90000e+02	1.14366e+01	2.80000e+02
791	2.80755e+02	7.91000e+02	1.14339e+01	2.81000e+02
792	2.81752e+02	7.92000e+02	1.14310e+01	2.82000e+02
793	2.82769e+02	7.93000e+02	1.14281e+01	2.83000e+02
794	2.83796e+02	7.94000e+02	1.14252e+01	2.84000e+02
795	2.84799e+02	7.95000e+02	1.14222e+01	2.85000e+02
796	2.85794e+02	7.96000e+02	1.14189e+01	2.86000e+02
797	2.86782e+02	7.97000e+02	1.14156e+01	2.87000e+02
798	2.87788e+02	7.98000e+02	1.14121e+01	2.88000e+02
799	2.88795e+02	7.99000e+02	1.14086e+01	2.89000e+02
800	2.89807e+02	8.00000e+02	1.14046e+01	2.90000e+02
801	2.90798e+02	8.01000e+02	1.14007e+01	2.91000e+02
802	2.91813e+02	8.02000e+02	1.13966e+01	2.92000e+02
803	2.92832e+02	8.03000e+02	1.13923e+01	2.93000e+02
804	2.93855e+02	8.04000e+02	1.13874e+01	2.94000e+02
805	2.94863e+02	8.05000e+02	1.13826e+01	2.95000e+02
806	2.95891e+02	8.06000e+02	1.13775e+01	2.96000e+02
807	2.96925e+02	8.07000e+02	1.13723e+01	2.97000e+02
808	2.97959e+02	8.08000e+02	1.13663e+01	2.98000e+02
809	2.98991e+02	8.09000e+02	1.13604e+01	2.99000e+02
810	3.00032e+02	8.10000e+02	1.13542e+01	3.00000e+02
811	3.01052e+02	8.11000e+02	1.13478e+01	3.01000e+02
812	3.02077e+02	8.12000e+02	1.13403e+01	3.02000e+02
813	3.03115e+02	8.13000e+02	1.13330e+01	3.03000e+02
814	3.04114e+02	8.14000e+02	1.13254e+01	3.04000e+02
815	3.05137e+02	8.15000e+02	1.13175e+01	3.05000e+02
816	3.06148e+02	8.16000e+02	1.13085e+01	3.06000e+02
817	3.07163e+02	8.17000e+02	1.12995e+01	3.07000e+02
818	3.08177e+02	8.18000e+02	1.12903e+01	3.08000e+02
819	3.09184e+02	8.19000e+02	1.12808e+01	3.09000e+02
820	3.10192e+02	8.20000e+02	1.12700e+01	3.10000e+02
821	3.11226e+02	8.21000e+02	1.12594e+01	3.11000e+02
822	3.12253e+02	8.22000e+02	1.12485e+01	3.12000e+02
823	3.13261e+02	8.23000e+02	1.12374e+01	3.13000e+02
824	3.14309e+02	8.24000e+02	1.12249e+01	3.14000e+02
825	3.15344e+02	8.25000e+02	1.12126e+01	3.15000e+02
826	3.16355e+02	8.26000e+02	1.12001e+01	3.16000e+02
827	3.17359e+02	8.27000e+02	1.11873e+01	3.17000e+02
828	3.18390e+02	8.28000e+02	1.11732e+01	3.18000e+02
829	3.19422e+02	8.29000e+02	1.11594e+01	3.19000e+02
830	3.20450e+02	8.30000e+02	1.11453e+01	3.20000e+02
831	3.21466e+02	8.31000e+02	1.11311e+01	3.21000e+02
832	3.22490e+02	8.32000e+02	1.11158e+01	3.22000e+02
833	3.23527e+02	8.33000e+02	1.11006e+01	3.23000e+02
834	3.24563e+02	8.34000e+02	1.10853e+01	3.24000e+02
835	3.25564e+02	8.35000e+02	1.10698e+01	3.25000e+02
836	3.26598e+02	8.36000e+02	1.10534e+01	3.26000e+02
837	3.27618e+02	8.37000e+02	1.10372e+01	3.27000e+02
838	3.28646e+02	8.38000e+02	1.10209e+01	3.28000e+02
839	3.29655e+02	8.39000e+02	1.10043e+01	3.29000e+02
840	3.30667e+02	8.40000e+02	1.09870e+01	3.30000e+02
841	3.31698e+02	8.41000e+02	1.09698e+01	3.31000e+02
842	3.32705e+02	8.42000e+02	1.09523e+01	3.32000e+02
843	3.33709e+02	8.43000e+02	1.09347e+01	3.33000e+02
844	3.34714e+02	8.44000e+02	1.09161e+01	3.34000e+02
845	3.35735e+02	8.45000e+02	1.08975e+01	3.35000e+02
846	3.36740e+02	8.46000e+02	1.08785e+01	3.36000e+02
847	3.37741e+02	8.47000e+02	1.08593e+01	3.37000e+02
848	3.38756e+02	8.48000e+02	1.08385e+01	3.38000e+02
849	3.39755e+02	8.49000e+02	1.08180e+01	3.39000e+02
850	3.40767e+02	8.50000e+02	1.07975e+01	3.40000e+02
851	3.41783e+02	8.51000e+02	1.07760e+01	3.41000e+02
852	3.42791e+02	8.52000e+02	1.07521e+01	3.42000e+02
853	3.43799e+02	8.53000e+02	1.07280e+01	3.43000e+02
854	3.44802e+02	8.54000e+02	1.07031e+01	3.44000e+02
855	3.45815e+02	8.55000e+02	1.06773e+01	3.45000e+02
856	3.46828e+02	8.56000e+02	1.06488e+01	3.46000e+02
857	3.47826e+02	8.57000e+02	1.06208e+01	3.47000e+02
858	3.48833e+02	8.58000e+02	1.05903e+01	3.48000e+02
859	3.49855e+02	8.59000e+02	1.05576e+01	3.49000e+02
860	3.50856e+02	8.60000e+02	1.05239e+01	3.50000e+02
861	3.51855e+02	8.61000e+02	1.04887e+01	3.51000e+02
862	3.52884e+02	8.62000e+02	1.04517e+01	3.52000e+02
863	3.53877e+02	8.63000e+02	1.04131e+01	3.53000e+02
864	3.54864e+02	8.64000e+02	1.03705e+01	3.54000e+02
865	3.55861e+02	8.65000e+02	1.03269e+01	3.55000e+02
866	3.56852e+02	8.66000e+02	1.02814e+01	3.56000e+02
867	3.57836e+02	8.67000e+02	1.02341e+01	3.57000e+02
868	3.58832e+02	8.68000e+02	1.01827e+01	3.58000e+02
869	3.59825e+02	8.69000e+02	1.01301e+01	3.59000e+02
870	3.60786e+02	8.70000e+02	1.00753e+01	3.60000e+02
871	3.61764e+02	8.71000e+02	1.00187e+01	3.61000e+02
872	3.62731e+02	8.72000e+02	9.95871e+00	3.62000e+02
873	3.63714e+02	8.73000e+02	9.89585e+00	3.63000e+02
874	3.64693e+02	8.74000e+02	9.82942e+00	3.64000e+02
875	3.65648e+02	8.75000e+02	9.76179e+00	3.65000e+02
876	3.66627e+02	8.76000e+02	9.69020e+00	3.66000e+02
877	3.67610e+02	8.77000e+02	9.61753e+00	3.67000e+02
878	3.68591e+02	8.78000e+02	9.54057e+00	3.68000e+02
879	3.69564e+02	8.79000e+02	9.46223e+00	3.69000e+02
880	3.70539e+02	8.80000e+02	9.38066e+00	3.70000e+02
881	3.71502e+02	8.81000e+02	9.29595e+00	3.71000e+02
882	3.72486e+02	8.82000e+02	9.20739e+00	3.72000e+02
883	3.73465e+02	8.83000e+02	9.11766e+00	3.73000e+02
884	3.74444e+02	8.84000e+02	9.02383e+00	3.74000e+02
885	3.75372e+02	8.85000e+02	8.92906e+00	3.75000e+02
886	3.76336e+02	8.86000e+02	8.83031e+00	3.76000e+02
887	3.77282e+02	8.87000e+02	8.73034e+00	3.77000e+02
888	3.78236e+02	8.88000e+02	8.62642e+00	3.78000e+02
889	3.79162e+02	8.89000e+02	8.52157e+00	3.79000e+02
890	3.80105e+02	8.90000e+02	8.41287e+00	3.80000e+02
891	3.81040e+02	8.91000e+02	8.30308e+00	3.81000e+02
892	3.81975e+02	8.92000e+02	8.18952e+00	3.82000e+02
893	3.82928e+02	8.93000e+02	8.07532e+00	3.83000e+02
894	3.83867e+02	8.94000e+02	7.95909e+00	3.84000e+02
895	3.84812e+02	8.95000e+02	7.84076e+00	3.85000e+02
896	3.85758e+02	8.96000e+02	7.72143e+00	3.86000e+02
897	3.86711e+02	8.97000e+02	7.60075e+00	3.87000e+02
898	3.87693e+02	8.98000e+02	7.47792e+00	3.88000e+02
899	3.88666e+02	8.99000e+02	7.35282e+00	3.89000e+02
900	3.89630e+02	9.00000e+02	7.22583e+00	3.90000e+02
901	3.90605e+02	9.01000e+02	7.09911e+00	3.91000e+02
902	3.91547e+02	9.02000e+02	6.96997e+00	3.92000e+02
903	3.92477e+02	9.03000e+02	6.83866e+00	3.93000e+02
904	3.93444e+02	9.04000e+02	6.70545e+00	3.94000e+02
905	3.94401e+02	9.05000e+02	6.57248e+00	3.95000e+02
906	3.95367e+02	9.06000e+02	6.43702e+00	3.96000e+02
907	3.96340e+02	9.07000e+02	6.29935e+00	3.97000e+02
908	3.97304e+02	9.08000e+02	6.15987e+00	3.98000e+02
909	3.98258e+02	9.09000e+02	6.02031e+00	3.99000e+02
910	3.99233e+02	9.10000e+02	5.87863e+00	4.00000e+02
911	4.00213e+02	9.11000e+02	5.73659e+00	4.01000e+02
912	4.01181e+02	9.12000e+02	5.59195e+00	4.02000e+02
913	4.02198e+02	9.13000e+02	5.44766e+00	4.03000e+02
914	4.03167e+02	9.14000e+02	5.30113e+00	4.04000e+02
915	4.04140e+02	9.15000e+02	5.15254e+00	4.05000e+02
916	4.05116e+02	9.16000e+02	5.00205e+00	4.06000e+02
917	4.06079e+02	9.17000e+02	4.85147e+00	4.07000e+02
918	4.07051e+02	9.18000e+02	4.69981e+00	4.08000e+02
919	4.08026e+02	9.19000e+02	4.54693e+00	4.09000e+02
920	4.09002e+02	9.20000e+02	4.39279e+00	4.10000e+02
921	4.09987e+02	9.21000e+02	4.23909e+00	4.11000e+02
922	4.10960e+02	9.22000e+02	4.08519e+00	4.12000e+02
923	4.11947e+02	9.23000e+02	3.93041e+00	4.13000e+02
924	4.12929e+02	9.24000e+02	3.77321e+00	4.14000e+02
925	4.13935e+02	9.25000e+02	3.61601e+00	4.15000e+02
926	4.14937e+02	9.26000e+02	3.45805e+00	4.16000e+02
927	4.15939e+02	9.27000e+02	3.29950e+00	4.17000e+02
928	4.16981e+02	9.28000e+02	3.13783e+00	4.18000e+02
929	4.18039e+02	9.29000e+02	2.97722e+00	4.19000e+02
930	4.19109e+02	9.30000e+02	2.81671e+00	4.20000e+02
931	4.20193e+02	9.31000e+02	2.65625e+00	4.21000e+02
932	4.21294e+02	9.32000e+02	2.49471e+00	4.22000e+02
933	4.22393e+02	9.33000e+02	2.33359e+00	4.23000e+02
934	4.23494e+02	9.34000e+02	2.17373e+00	4.24000e+02
935	4.24637e+02	9.35000e+02	2.01619e+00	4.25000e+02
936	4.25798e+02	9.36000e+02	1.86622e+00	4.26000e+02
937	4.26942e+02	9.37000e+02	1.72050e+00	4.27000e+02
938	4.28064e+02	9.38000e+02	1.58113e+00	4.28000e+02
939	4.29307e+02	9.39000e+02	1.44631e+00	4.29000e+02
940	4.30457e+02	9.40000e+02	1.32384e+00	4.30000e+02
941	4.31577e+02	9.41000e+02	1.20696e+00	4.31000e+02
942	4.32721e+02	9.42000e+02	1.09774e+00	4.32000e+02
943	4.33862e+02	9.43000e+02	9.93632e-01	4.33000e+02
944	4.34988e+02	9.44000e+02	9.02437e-01	4.34000e+02
945	4.36113e+02	9.45000e+02	8.16681e-01	4.35000e+02
946	4.37227e+02	9.46000e+02	7.38141e-01	4.36000e+02
947	4.38364e+02	9.47000e+02	6.64268e-01	4.37000e+02
948	4.39465e+02	9.48000e+02	6.01166e-01	4.38000e+02
949	4.40540e+02	9.49000e+02	5.42293e-01	4.39000e+02
950	4.41668e+02	9.50000e+02	4.88986e-01	4.40000e+02
951	4.42774e+02	9.51000e+02	4.39284e-01	4.41000e+02
952	4.43967e+02	9.52000e+02	3.97784e-01	4.42000e+02
953	4.45039e+02	9.53000e+02	3.59538e-01	4.43000e+02
954	4.46151e+02	9.54000e+02	3.25510e-01	4.44000e+02
955	4.47247e+02	9.55000e+02	2.94139e-01	4.45000e+02
956	4.48404e+02	9.56000e+02	2.68595e-01	4.46000e+02
957	4.49613e+02	9.57000e+02	2.45633e-01	4.47000e+02
958	4.50733e+02	9.58000e+02	2.25949e-01	4.48000e+02
959	4.51819e+02	9.59000e+02	2.07282e-01	4.49000e+02
960	4.52908e+02	9.60000e+02	1.92548e-01	4.50000e+02
961	4.54010e+02	9.61000e+02	1.78519e-01	4.51000e+02
962	4.55096e+02	9.62000e+02	1.66506e-01	4.52000e+02
963	4.56143e+02	9.63000e+02	1.56469e-01	4.53000e+02
964	4.57178e+02	9.64000e+02	1.48323e-01	4.54000e+02
965	4.58215e+02	9.65000e+02	1.40277e-01	4.55000e+02
966	4.59234e+02	9.66000e+02	1.33388e-01	4.56000e+02
967	4.60191e+02	9.67000e+02	1.27780e-01	4.57000e+02
968	4.61155e+02	9.68000e+02	1.23396e-01	4.58000e+02
969	4.62156e+02	9.69000e+02	1.18770e-01	4.59000e+02
970	4.63181e+02	9.70000e+02	1.14567e-01	4.60000e+02
971	4.64207e+02	9.71000e+02	1.10714e-01	4.61000e+02
972	4.65222e+02	9.72000e+02	1.08518e-01	4.62000e+02
973	4.66244e+02	9.73000e+02	1.05913e-01	4.63000e+02
974	4.67228e+02	9.74000e+02	1.03493e-01	4.64000e+02
975	4.68238e+02	9.75000e+02	1.01272e-01	4.65000e+02
976	4.69249e+02	9.76000e+02	1.00097e-01	4.66000e+02
977	4.70231e+02	9.77000e+02	9.86488e-02	4.67000e+02
978	4.71260e+02	9.78000e+02	9.73008e-02	4.68000e+02
979	4.72266e+02	9.79000e+02	9.60721e-02	4.69000e+02
980	4.73277e+02	9.80000e+02	9.54483e-02	4.70000e+02
981	4.74332e+02	9.81000e+02	9.46753e-02	4.71000e+02
982	4.75402e+02	9.82000e+02	9.39654e-02	4.72000e+02
983	4.76519e+02	9.83000e+02	9.33280e-02	4.73000e+02
984	4.77593e+02	9.84000e+02	9.30604e-02	4.74000e+02
985	4.78596e+02	9.85000e+02	9.26968e-02	4.75000e+02
986	4.79665e+02	9.86000e+02	9.23654e-02	4.76000e+02
987	4.80601e+02	9.87000e+02	9.20723e-02	4.77000e+02
988	4.81525e+02	9.88000e+02	9.19755e-02	4.78000e+02
989	4.82382e+02	9.89000e+02	9.18107e-02	4.79000e+02
990	4.83353e+02	9.90000e+02	9.16504e-02	4.80000e+02
991	4.84330e+02	9.91000e+02	9.15028e-02	4.81000e+02
992	4.85287e+02	9.92000e+02	9.14216e-02	4.82000e+02
993	4.86205e+02	9.93000e+02	9.13158e-02	4.83000e+02
994	4.87160e+02	9.94000e+02	9.12107e-02	4.84000e+02
995	4.88104e+02	9.95000e+02	9.11097e-02	4.85000e+02
996	4.89061e+02	9.96000e+02	9.10291e-02	4.86000e+02
997	4.90038e+02	9.97000e+02	9.09453e-02	4.87000e+02
998	4.91080e+02	9.98000e+02	9.08655e-02	4.88000e+02
999	4.92142e+02	9.99000e+02	9.07901e-02	4.89000e+02
1000	4.93119e+02	1.00000e+03	9.07347e-02	4.90000e+02
1001	4.94143e+02	1.00100e+03	9.06773e-02	4.91000e+02
1002	4.95189e+02	1.00200e+03	9.06243e-02	4.92000e+02
1003	4.96080e+02	1.00300e+03	9.05748e-02	4.93000e+02
1004	4.96997e+02	1.00400e+03	9.05445e-02	4.94000e+02
1005	4.98084e+02	1.00500e+03	9.05084e-02	4.95000e+02
1006	4.99104e+02	1.00600e+03	9.04732e-02	4.96000e+02
1007	5.00236e+02	1.00700e+03	9.04389e-02	4.97000e+02
1008	5.01223e+02	1.00800e+03	9.04102e-02	4.98000e+02
1009	5.02154e+02	1.00900e+03	9.03772e-02	4.99000e+02
1010	5.03127e+02	1.01000e+03	9.03419e-02	5.00000e+02
1011	5.04145e+02	1.01100e+03	9.03045e-02	5.01000e+02
1012	5.05041e+02	1.01200e+03	9.02592e-02	5.02000e+02
1013	5.06091e+02	1.01300e+03	9.02134e-02	5.03000e+02
1014	5.06910e+02	1.01400e+03	9.01661e-02	5.04000e+02
1015	5.07791e+02	1.01500e+03	9.01186e-02	5.05000e+02
1016	5.08678e+02	1.01600e+03	9.00676e-02	5.06000e+02
1017	5.09531e+02	1.01700e+03	9.00238e-02	5.07000e+02
1018	5.10407e+02	1.01800e+03	8.99844e-02	5.08000e+02
1019	5.11324e+02	1.01900e+03	8.99474e-02	5.09000e+02
1020	5.12217e+02	1.02000e+03	8.99268e-02	5.10000e+02
1021	5.13123e+02	1.02100e+03	8.99044e-02	5.11000e+02
1022	5.14048e+02	1.02200e+03	8.98845e-02	5.12000e+02
1023	5.14984e+02	1.02300e+03	8.98669e-02	5.13000e+02
1024	5.15909e+02	1.02400e+03	8.98638e-02	5.14000e+02
1025	5.16838e+02	1.02500e+03	8.98558e-02	5.15000e+02
1026	5.17733e+02	1.02600e+03	8.98476e-02	5.16000e+02
1027	5.18640e+02	1.02700e+03	8.98397e-02	5.17000e+02
1028	5.19572e+02	1.02800e+03	8.98347e-02	5.18000e+02
1029	5.20487e+02	1.02900e+03	8.98256e-02	5.19000e+02
1030	5.21430e+02	1.03000e+03	8.98127e-02	5.20000e+02
1031	5.22388e+02	1.03100e+03	8.97966e-02	5.21000e+02
1032	5.23357e+02	1.03200e+03	8.97682e-02	5.22000e+02
1033	5.24328e+02	1.03300e+03	8.97394e-02	5.23000e+02
1034	5.25315e+02	1.03400e+03	8.97084e-02	5.24000e+02
1035	5.26270e+02	1.03500e+03	8.96756e-02	5.25000e+02
1036	5.27265e+02	1.03600e+03	8.96301e-02	5.26000e+02
1037	5.28239e+02	1.03700e+03	8.95922e-02	5.27000e+02
1038	5.29178e+02	1.03800e+03	8.95569e-02	5.28000e+02
1039	5.30257e+02	1.03900e+03	8.95234e-02	5.29000e+02
1040	5.31310e+02	1.04000e+03	8.94982e-02	5.30000e+02
1041	5.32290e+02	1.04100e+03	8.94755e-02	5.31000e+02
1042	5.33265e+02	1.04200e+03	8.94570e-02	5.32000e+02
1043	5.34200e+02	1.04300e+03	8.94412e-02	5.33000e+02
1044	5.35190e+02	1.04400e+03	8.94402e-02	5.34000e+02
1045	5.36189e+02	1.04500e+03	8.94348e-02	5.35000e+02
1046	5.37192e+02	1.04600e+03	8.94285e-02	5.36000e+02
1047	5.38171e+02	1.04700e+03	8.94214e-02	5.37000e+02
1048	5.39145e+02	1.04800e+03	8.94136e-02	5.38000e+02
1049	5.40147e+02	1.04900e+03	8.93991e-02	5.39000e+02
1050	5.41170e+02	1.05000e+03	8.93792e-02	5.40000e+02
1051	5.42174e+02	1.05100e+03	8.93559e-02	5.41000e+02
1052	5.43202e+02	1.05200e+03	8.93165e-02	5.42000e+02
1053	5.44178e+02	1.05300e+03	8.92837e-02	5.43000e+02
1054	5.45119e+02	1.05400e+03	8.92519e-02	5.44000e+02
1055	5.46082e+02	1.05500e+03	8.92196e-02	5.45000e+02
1056	5.47023e+02	1.05600e+03	8.91832e-02	5.46000e+02
1057	5.48016e+02	1.05700e+03	8.91500e-02	5.47000e+02
1058	5.49019e+02	1.05800e+03	8.91179e-02	5.48000e+02
1059	5.50003e+02	1.05900e+03	8.90863e-02	5.49000e+02
1060	5.50996e+02	1.06000e+03	8.90610e-02	5.50000e+02
1061	5.51977e+02	1.06100e+03	8.90361e-02	5.51000e+02
1062	5.52926e+02	1.06200e+03	8.90134e-02	5.52000e+02
1063	5.53865e+02	1.06300e+03	8.89925e-02	5.53000e+02
1064	5.54865e+02	1.06400e+03	8.89831e-02	5.54000e+02
1065	5.55838e+02	1.06500e+03	8.89748e-02	5.55000e+02
1066	5.56808e+02	1.06600e+03	8.89712e-02	5.56000e+02
1067	5.57812e+02	1.06700e+03	8.89708e-02	5.57000e+02
1068	5.58822e+02	1.06800e+03	8.89858e-02	5.58000e+02
1069	5.59761e+02	1.06900e+03	8.89970e-02	5.59000e+02
1070	5.61009e+02	1.07000e+03	8.90090e-02	5.60000e+02
1071	5.62067e+02	1.07100e+03	8.90216e-02	5.61000e+02
1072	5.63096e+02	1.07200e+03	8.90356e-02	5.62000e+02
1073	5.64204e+02	1.07300e+03	8.90412e-02	5.63000e+02
1074	5.65055e+02	1.07400e+03	8.90402e-02	5.64000e+02
1075	5.65927e+02	1.07500e+03	8.90349e-02	5.65000e+02
1076	5.66877e+02	1.07600e+03	8.90114e-02	5.66000e+02
1077	5.67821e+02	1.07700e+03	8.89923e-02	5.67000e+02
1078	5.68807e+02	1.07800e+03	8.89734e-02	5.68000e+02
1079	5.69773e+02	1.07900e+03	8.89550e-02	5.69000e+02
1080	5.70719e+02	1.08000e+03	8.89326e-02	5.70000e+02
1081	5.71670e+02	1.08100e+03	8.89180e-02	5.71000e+02
1082	5.72648e+02	1.08200e+03	8.89064e-02	5.72000e+02
1083	5.73622e+02	1.08300e+03	8.88958e-02	5.73000e+02
1084	5.74594e+02	1.08400e+03	8.88945e-02	5.74000e+02
1085	5.75599e+02	1.08500e+03	8.88860e-02	5.75000e+02
1086	5.76587e+02	1.08600e+03	8.88744e-02	5.76000e+02
1087	5.77577e+02	1.08700e+03	8.88612e-02	5.77000e+02
1088	5.78580e+02	1.08800e+03	8.88414e-02	5.78000e+02
1089	5.79607e+02	1.08900e+03	8.88235e-02	5.79000e+02
1090	5.80692e+02	1.09000e+03	8.88067e-02	5.80000e+02
1091	5.81753e+02	1.09100e+03	8.87913e-02	5.81000e+02
1092	5.82812e+02	1.09200e+03	8.87795e-02	5.82000e+02
1093	5.83857e+02	1.09300e+03	8.87721e-02	5.83000e+02
1094	5.84929e+02	1.09400e+03	8.87681e-02	5.84000e+02
1095	5.86074e+02	1.09500e+03	8.87662e-02	5.85000e+02
1096	5.87287e+02	1.09600e+03	8.87796e-02	5.86000e+02
1097	5.88259e+02	1.09700e+03	8.87873e-02	5.87000e+02
1098	5.89285e+02	1.09800e+03	8.87939e-02	5.88000e+02
1099	5.90261e+02	1.09900e+03	8.88002e-02	5.89000e+02
1100	5.91241e+02	1.10000e+03	8.88075e-02	5.90000e+02
1101	5.92210e+02	1.10100e+03	8.88098e-02	5.91000e+02
1102	5.93235e+02	1.10200e+03	8.88074e-02	5.92000e+02
1103	5.94234e+02	1.10300e+03	8.88018e-02	5.93000e+02
1104	5.95225e+02	1.10400e+03	8.87832e-02	5.94000e+02
1105	5.96206e+02	1.10500e+03	8.87666e-02	5.95000e+02
1106	5.97201e+02	1.10600e+03	8.87490e-02	5.96000e+02
1107	5.98181e+02	1.10700e+03	8.87309e-02	5.97000e+02
1108	5.99172e+02	1.10800e+03	8.87069e-02	5.98000e+02
1109	6.00167e+02	1.10900e+03	8.86886e-02	5.99000e+02
1110	6.01164e+02	1.11000e+03	8.86729e-02	6.00000e+02
1111	6.02152e+02	1.11100e+03	8.86590e-02	6.01000e+02
1112	6.03178e+02	1.11200e+03	8.86535e-02	6.02000e+02
1113	6.04176e+02	1.11300e+03	8.86465e-02	6.03000e+02
1114	6.05123e+02	1.11400e+03	8.86412e-02	6.04000e+02
1115	6.06084e+02	1.11500e+03	8.86374e-02	6.05000e+02
1116	6.07073e+02	1.11600e+03	8.86404e-02	6.06000e+02
1117	6.08014e+02	1.11700e+03	8.86406e-02	6.07000e+02
1118	6.08975e+02	1.11800e+03	8.86397e-02	6.08000e+02
1119	6.09925e+02	1.11900e+03	8.86383e-02	6.09000e+02
1120	6.10869e+02	1.12000e+03	8.86381e-02	6.10000e+02
1121	6.11794e+02	1.12100e+03	8.86363e-02	6.11000e+02
1122	6.12754e+02	1.12200e+03	8.86338e-02	6.12000e+02
1123	6.13725e+02	1.12300e+03	8.86308e-02	6.13000e+02
1124	6.14703e+02	1.12400e+03	8.86250e-02	6.14000e+02
1125	6.15725e+02	1.12500e+03	8.86195e-02	6.15000e+02
1126	6.16738e+02	1.12600e+03	8.86122e-02	6.16000e+02
1127	6.17720e+02	1.12700e+03	8.86035e-02	6.17000e+02
1128	6.18691e+02	1.12800e+03	8.85899e-02	6.18000e+02
1129	6.19689e+02	1.12900e+03	8.85755e-02	6.19000e+02
1130	6.20630e+02	1.13000e+03	8.85600e-02	6.20000e+02
1131	6.21504e+02	1.13100e+03	8.85440e-02	6.21000e+02
1132	6.22477e+02	1.13200e+03	8.85224e-02	6.22000e+02
1133	6.23443e+02	1.13300e+03	8.85042e-02	6.23000e+02
1134	6.24401e+02	1.13400e+03	8.84871e-02	6.24000e+02
1135	6.25385e+02	1.13500e+03	8.84704e-02	6.25000e+02
1136	6.26250e+02	1.13600e+03	8.84585e-02	6.26000e+02
1137	6.27157e+02	1.13700e+03	8.84476e-02	6.27000e+02
1138	6.28060e+02	1.13800e+03	8.84394e-02	6.28000e+02
1139	6.28993e+02	1.13900e+03	8.84340e-02	6.29000e+02
1140	6.29929e+02	1.14000e+03	8.84397e-02	6.30000e+02
1141	6.30873e+02	1.14100e+03	8.84443e-02	6.31000e+02
1142	6.31837e+02	1.14200e+03	8.84502e-02	6.32000e+02
1143	6.32809e+02	1.14300e+03	8.84575e-02	6.33000e+02
1144	6.33779e+02	1.14400e+03	8.84744e-02	6.34000e+02
1145	6.34734e+02	1.14500e+03	8.84861e-02	6.35000e+02
1146	6.35686e+02	1.14600e+03	8.84958e-02	6.36000e+02
1147	6.36642e+02	1.14700e+03	8.85043e-02	6.37000e+02
1148	6.37597e+02	1.14800e+03	8.85085e-02	6.38000e+02
1149	6.38554e+02	1.14900e+03	8.85101e-02	6.39000e+02
1150	6.39522e+02	1.15000e+03	8.85079e-02	6.40000e+02
1151	6.40490e+02	1.15100e+03	8.85034e-02	6.41000e+02
1152	6.41445e+02	1.15200e+03	8.84877e-02	6.42000e+02
1153	6.42406e+02	1.15300e+03	8.84752e-02	6.43000e+02
1154	6.43370e+02	1.15400e+03	8.84618e-02	6.44000e+02
1155	6.44349e+02	1.15500e+03	8.84470e-02	6.45000e+02
1156	6.45350e+02	1.15600e+03	8.84264e-02	6.46000e+02
1157	6.46332e+02	1.15700e+03	8.84069e-02	6.47000e+02
1158	6.47327e+02	1.15800e+03	8.83856e-02	6.48000e+02
1159	6.48314e+02	1.15900e+03	8.83634e-02	6.49000e+02
1160	6.49298e+02	1.16000e+03	8.83390e-02	6.50000e+02
1161	6.50289e+02	1.16100e+03	8.83170e-02	6.51000e+02
1162	6.51280e+02	1.16200e+03	8.82971e-02	6.52000e+02
1163	6.52249e+02	1.16300e+03	8.82783e-02	6.53000e+02
1164	6.53242e+02	1.16400e+03	8.82637e-02	6.54000e+02
1165	6.54235e+02	1.16500e+03	8.82508e-02	6.55000e+02
1166	6.55229e+02	1.16600e+03	8.82403e-02	6.56000e+02
1167	6.56214e+02	1.16700e+03	8.82317e-02	6.57000e+02
1168	6.57159e+02	1.16800e+03	8.82364e-02	6.58000e+02
1169	6.58118e+02	1.16900e+03	8.82408e-02	6.59000e+02
1170	6.59120e+02	1.17000e+03	8.82485e-02	6.60000e+02
1171	6.60103e+02	1.17100e+03	8.82588e-02	6.61000e+02
1172	6.61050e+02	1.17200e+03	8.82818e-02	6.62000e+02
1173	6.62036e+02	1.17300e+03	8.82984e-02	6.63000e+02
1174	6.63029e+02	1.17400e+03	8.83122e-02	6.64000e+02
1175	6.64027e+02	1.17500e+03	8.83245e-02	6.65000e+02
1176	6.65021e+02	1.17600e+03	8.83327e-02	6.66000e+02
1177	6.66001e+02	1.17700e+03	8.83363e-02	6.67000e+02
1178	6.67002e+02	1.17800e+03	8.83355e-02	6.68000e+02
1179	6.67992e+02	1.17900e+03	8.83319e-02	6.69000e+02
1180	6.68987e+02	1.18000e+03	8.83127e-02	6.70000e+02
1181	6.69979e+02	1.18100e+03	8.82999e-02	6.71000e+02
1182	6.70985e+02	1.18200e+03	8.82897e-02	6.72000e+02
1183	6.71974e+02	1.18300e+03	8.82813e-02	6.73000e+02
1184	6.72948e+02	1.18400e+03	8.82804e-02	6.74000e+02
1185	6.73293e+02	1.18500e+03	8.82899e-02	6.75000e+02
1186	6.73619e+02	1.18600e+03	8.83112e-02	6.76000e+02
1187	6.74164e+02	1.18700e+03	8.83400e-02	6.77000e+02
1188	6.74829e+02	1.18800e+03	8.84107e-02	6.78000e+02
1189	6.75465e+02	1.18900e+03	8.84702e-02	6.79000e+02
1190	6.76096e+02	1.19000e+03	8.85229e-02	6.80000e+02
1191	6.76719e+02	1.19100e+03	8.85690e-02	6.81000e+02
1192	6.77293e+02	1.19200e+03	8.86261e-02	6.82000e+02
1193	6.77851e+02	1.19300e+03	8.86621e-02	6.83000e+02
1194	6.78409e+02	1.19400e+03	8.86844e-02	6.84000e+02
1195	6.78966e+02	1.19500e+03	8.86988e-02	6.85000e+02
1196	6.79493e+02	1.19600e+03	8.86748e-02	6.86000e+02
1197	6.80042e+02	1.19700e+03	8.86635e-02	6.87000e+02
1198	6.80566e+02	1.19800e+03	8.86508e-02	6.88000e+02
1199	6.81078e+02	1.19900e+03	8.86359e-02	6.89000e+02
1200	6.81580e+02	1.20000e+03	8.86076e-02	6.90000e+02
1201	6.82077e+02	1.20100e+03	8.85872e-02	6.91000e+02
1202	6.82581e+02	1.20200e+03	8.85703e-02	6.92000e+02
1203	6.83016e+02	1.20300e+03	8.85552e-02	6.93000e+02
1204	6.83449e+02	1.20400e+03	8.85434e-02	6.94000e+02
1205	6.83885e+02	1.20500e+03	8.85334e-02	6.95000e+02
1206	6.84322e+02	1.20600e+03	8.85284e-02	6.96000e+02
1207	6.84746e+02	1.20700e+03	8.85271e-02	6.97000e+02
1208	6.85069e+02	1.20800e+03	8.85375e-02	6.98000e+02
1209	6.85414e+02	1.20900e+03	8.85465e-02	6.99000e+02
1210	6.85765e+02	1.21000e+03	8.85579e-02	7.00000e+02