File: Experiments/TGA/TUBS/tga_nonisotherm/tga_dynamic_n2low20_dyn30_powder_3mg_r3.txt
Index	Ts	t	Weight	Tr
[#]	[°C]	[s]	[mg]	[°C]
680	1.30273e+02	6.80000e+02	3.03773	130.0
682	1.31307e+02	6.82000e+02	3.03762	131.0
684	1.32339e+02	6.84000e+02	3.03748	132.0
686	1.33348e+02	6.86000e+02	3.03736	133.0
688	1.34373e+02	6.88000e+02	3.03726	134.0
690	1.35388e+02	6.90000e+02	3.03717	135.0
692	1.36395e+02	6.92000e+02	3.03711	136.0
694	1.37421e+02	6.94000e+02	3.03702	137.0
696	1.38439e+02	6.96000e+02	3.03689	138.0
698	1.39462e+02	6.98000e+02	3.03673	139.0
700	1.40474e+02	7.00000e+02	3.03653	140.0
702	1.41492e+02	7.02000e+02	3.03632	141.0
704	1.42516e+02	7.04000e+02	3.03607	142.0
706	1.43528e+02	7.06000e+02	3.03576	143.0
708	1.44550e+02	7.08000e+02	3.03539	144.0
710	1.45565e+02	7.10000e+02	3.03507	145.0
712	1.46572e+02	7.12000e+02	3.03481	146.0
714	1.47598e+02	7.14000e+02	3.03459	147.0
716	1.48604e+02	7.16000e+02	3.03445	148.0
718	1.49625e+02	7.18000e+02	3.03429	149.0
720	1.50650e+02	7.20000e+02	3.03409	150.0
722	1.51666e+02	7.22000e+02	3.03381	151.0
724	1.52684e+02	7.24000e+02	3.03338	152.0
726	1.53694e+02	7.26000e+02	3.0329	153.0
728	1.54716e+02	7.28000e+02	3.03238	154.0
730	1.55736e+02	7.30000e+02	3.03188	155.0
732	1.56748e+02	7.32000e+02	3.03141	156.0
734	1.57778e+02	7.34000e+02	3.03097	157.0
736	1.58780e+02	7.36000e+02	3.03055	158.0
738	1.59804e+02	7.38000e+02	3.03012	159.0
740	1.60818e+02	7.40000e+02	3.02968	160.0
742	1.61833e+02	7.42000e+02	3.02924	161.0
744	1.62852e+02	7.44000e+02	3.0288	162.0
746	1.63889e+02	7.46000e+02	3.02834	163.0
748	1.64899e+02	7.48000e+02	3.02787	164.0
750	1.65901e+02	7.50000e+02	3.02741	165.0
752	1.66916e+02	7.52000e+02	3.02696	166.0
754	1.67940e+02	7.54000e+02	3.0265	167.0
756	1.68959e+02	7.56000e+02	3.02602	168.0
758	1.69987e+02	7.58000e+02	3.02553	169.0
760	1.70994e+02	7.60000e+02	3.02503	170.0
762	1.72022e+02	7.62000e+02	3.02453	171.0
764	1.73036e+02	7.64000e+02	3.02403	172.0
766	1.74059e+02	7.66000e+02	3.02349	173.0
768	1.75086e+02	7.68000e+02	3.02292	174.0
770	1.76109e+02	7.70000e+02	3.02232	175.0
772	1.77136e+02	7.72000e+02	3.02166	176.0
774	1.78148e+02	7.74000e+02	3.02097	177.0
776	1.79164e+02	7.76000e+02	3.02023	178.0
778	1.80201e+02	7.78000e+02	3.0195	179.0
780	1.81220e+02	7.80000e+02	3.01877	180.0
782	1.82232e+02	7.82000e+02	3.01802	181.0
784	1.83257e+02	7.84000e+02	3.01721	182.0
786	1.84300e+02	7.86000e+02	3.01637	183.0
788	1.85314e+02	7.88000e+02	3.01545	184.0
790	1.86329e+02	7.90000e+02	3.01448	185.0
792	1.87356e+02	7.92000e+02	3.01341	186.0
794	1.88371e+02	7.94000e+02	3.01229	187.0
796	1.89412e+02	7.96000e+02	3.01107	188.0
798	1.90418e+02	7.98000e+02	3.00979	189.0
800	1.91443e+02	8.00000e+02	3.00839	190.0
802	1.92491e+02	8.02000e+02	3.00696	191.0
804	1.93499e+02	8.04000e+02	3.00544	192.0
806	1.94531e+02	8.06000e+02	3.00387	193.0
808	1.95567e+02	8.08000e+02	3.00222	194.0
810	1.96595e+02	8.10000e+02	3.00053	195.0
812	1.97627e+02	8.12000e+02	2.99879	196.0
814	1.98635e+02	8.14000e+02	2.997	197.0
816	1.99662e+02	8.16000e+02	2.99517	198.0
818	2.00699e+02	8.18000e+02	2.99333	199.0
820	2.01723e+02	8.20000e+02	2.99151	200.0
822	2.02760e+02	8.22000e+02	2.98972	201.0
824	2.03786e+02	8.24000e+02	2.98798	202.0
826	2.04820e+02	8.26000e+02	2.98631	203.0
828	2.05850e+02	8.28000e+02	2.98477	204.0
830	2.06862e+02	8.30000e+02	2.9833	205.0
832	2.07894e+02	8.32000e+02	2.98193	206.0
834	2.08920e+02	8.34000e+02	2.98062	207.0
836	2.09944e+02	8.36000e+02	2.97941	208.0
838	2.10961e+02	8.38000e+02	2.97828	209.0
840	2.11975e+02	8.40000e+02	2.97725	210.0
842	2.13012e+02	8.42000e+02	2.97629	211.0
844	2.14040e+02	8.44000e+02	2.97545	212.0
846	2.15069e+02	8.46000e+02	2.97467	213.0
848	2.16102e+02	8.48000e+02	2.97395	214.0
850	2.17130e+02	8.50000e+02	2.97325	215.0
852	2.18146e+02	8.52000e+02	2.97258	216.0
854	2.19170e+02	8.54000e+02	2.97195	217.0
856	2.20194e+02	8.56000e+02	2.97134	218.0
858	2.21215e+02	8.58000e+02	2.97076	219.0
860	2.22238e+02	8.60000e+02	2.97021	220.0
862	2.23270e+02	8.62000e+02	2.96967	221.0
864	2.24291e+02	8.64000e+02	2.96914	222.0
866	2.25341e+02	8.66000e+02	2.96859	223.0
868	2.26366e+02	8.68000e+02	2.96804	224.0
870	2.27404e+02	8.70000e+02	2.96751	225.0
872	2.28439e+02	8.72000e+02	2.96699	226.0
874	2.29474e+02	8.74000e+02	2.96646	227.0
876	2.30508e+02	8.76000e+02	2.96593	228.0
878	2.31533e+02	8.78000e+02	2.9654	229.0
880	2.32581e+02	8.80000e+02	2.96487	230.0
882	2.33630e+02	8.82000e+02	2.96432	231.0
884	2.34687e+02	8.84000e+02	2.96373	232.0
886	2.35722e+02	8.86000e+02	2.96314	233.0
888	2.36754e+02	8.88000e+02	2.96254	234.0
890	2.37778e+02	8.90000e+02	2.96191	235.0
892	2.38825e+02	8.92000e+02	2.96125	236.0
894	2.39847e+02	8.94000e+02	2.96058	237.0
896	2.40874e+02	8.96000e+02	2.9599	238.0
898	2.41911e+02	8.98000e+02	2.9592	239.0
900	2.42932e+02	9.00000e+02	2.95847	240.0
902	2.43960e+02	9.02000e+02	2.95776	241.0
904	2.44998e+02	9.04000e+02	2.95707	242.0
906	2.46016e+02	9.06000e+02	2.95639	243.0
908	2.47062e+02	9.08000e+02	2.95573	244.0
910	2.48093e+02	9.10000e+02	2.95506	245.0
912	2.49130e+02	9.12000e+02	2.95439	246.0
914	2.50148e+02	9.14000e+02	2.95372	247.0
916	2.51154e+02	9.16000e+02	2.95304	248.0
918	2.52172e+02	9.18000e+02	2.9524	249.0
920	2.53186e+02	9.20000e+02	2.95181	250.0
922	2.54198e+02	9.22000e+02	2.95124	251.0
924	2.55200e+02	9.24000e+02	2.95067	252.0
926	2.56216e+02	9.26000e+02	2.95008	253.0
928	2.57237e+02	9.28000e+02	2.94947	254.0
930	2.58267e+02	9.30000e+02	2.94887	255.0
932	2.59353e+02	9.32000e+02	2.94828	256.0
934	2.60354e+02	9.34000e+02	2.94768	257.0
936	2.61362e+02	9.36000e+02	2.9471	258.0
938	2.62366e+02	9.38000e+02	2.94653	259.0
940	2.63390e+02	9.40000e+02	2.94597	260.0
942	2.64388e+02	9.42000e+02	2.9454	261.0
944	2.65406e+02	9.44000e+02	2.94481	262.0
946	2.66399e+02	9.46000e+02	2.94422	263.0
948	2.67409e+02	9.48000e+02	2.94362	264.0
950	2.68389e+02	9.50000e+02	2.94301	265.0
952	2.69424e+02	9.52000e+02	2.94242	266.0
954	2.70468e+02	9.54000e+02	2.94183	267.0
956	2.71499e+02	9.56000e+02	2.94123	268.0
958	2.72512e+02	9.58000e+02	2.94061	269.0
960	2.73498e+02	9.60000e+02	2.93993	270.0
962	2.74512e+02	9.62000e+02	2.93925	271.0
964	2.75520e+02	9.64000e+02	2.93853	272.0
966	2.76546e+02	9.66000e+02	2.93779	273.0
968	2.77562e+02	9.68000e+02	2.937	274.0
970	2.78585e+02	9.70000e+02	2.93619	275.0
972	2.79619e+02	9.72000e+02	2.93535	276.0
974	2.80671e+02	9.74000e+02	2.93445	277.0
976	2.81676e+02	9.76000e+02	2.93348	278.0
978	2.82679e+02	9.78000e+02	2.93248	279.0
980	2.83686e+02	9.80000e+02	2.93143	280.0
982	2.84704e+02	9.82000e+02	2.93035	281.0
984	2.85735e+02	9.84000e+02	2.92921	282.0
986	2.86725e+02	9.86000e+02	2.928	283.0
988	2.87701e+02	9.88000e+02	2.92667	284.0
990	2.88694e+02	9.90000e+02	2.92523	285.0
992	2.89667e+02	9.92000e+02	2.92362	286.0
994	2.90681e+02	9.94000e+02	2.92194	287.0
996	2.91703e+02	9.96000e+02	2.92012	288.0
998	2.92720e+02	9.98000e+02	2.9182	289.0
1000	2.93735e+02	1.00000e+03	2.91612	290.0
1002	2.94761e+02	1.00200e+03	2.91396	291.0
1004	2.95804e+02	1.00400e+03	2.91167	292.0
1006	2.96834e+02	1.00600e+03	2.90928	293.0
1008	2.97845e+02	1.00800e+03	2.90671	294.0
1010	2.98892e+02	1.01000e+03	2.90401	295.0
1012	2.99928e+02	1.01200e+03	2.90108	296.0
1014	3.00966e+02	1.01400e+03	2.89802	297.0
1016	3.02015e+02	1.01600e+03	2.89473	298.0
1018	3.03035e+02	1.01800e+03	2.89131	299.0
1020	3.04049e+02	1.02000e+03	2.88768	300.0
1022	3.05083e+02	1.02200e+03	2.88393	301.0
1024	3.06085e+02	1.02400e+03	2.88001	302.0
1026	3.07076e+02	1.02600e+03	2.87599	303.0
1028	3.08062e+02	1.02800e+03	2.8718	304.0
1030	3.09037e+02	1.03000e+03	2.86753	305.0
1032	3.10030e+02	1.03200e+03	2.86309	306.0
1034	3.11011e+02	1.03400e+03	2.85853	307.0
1036	3.11985e+02	1.03600e+03	2.8538	308.0
1038	3.12950e+02	1.03800e+03	2.84899	309.0
1040	3.13876e+02	1.04000e+03	2.84406	310.0
1042	3.14782e+02	1.04200e+03	2.83905	311.0
1044	3.15664e+02	1.04400e+03	2.83395	312.0
1046	3.16566e+02	1.04600e+03	2.82882	313.0
1048	3.17499e+02	1.04800e+03	2.82363	314.0
1050	3.18438e+02	1.05000e+03	2.81838	315.0
1052	3.19366e+02	1.05200e+03	2.81309	316.0
1054	3.20297e+02	1.05400e+03	2.8078	317.0
1056	3.21220e+02	1.05600e+03	2.80248	318.0
1058	3.22170e+02	1.05800e+03	2.7971	319.0
1060	3.23098e+02	1.06000e+03	2.79161	320.0
1062	3.24065e+02	1.06200e+03	2.78604	321.0
1064	3.25034e+02	1.06400e+03	2.78033	322.0
1066	3.25999e+02	1.06600e+03	2.7745	323.0
1068	3.26997e+02	1.06800e+03	2.76847	324.0
1070	3.27955e+02	1.07000e+03	2.7623	325.0
1072	3.28891e+02	1.07200e+03	2.75591	326.0
1074	3.29830e+02	1.07400e+03	2.74934	327.0
1076	3.30809e+02	1.07600e+03	2.74245	328.0
1078	3.31801e+02	1.07800e+03	2.73534	329.0
1080	3.32796e+02	1.08000e+03	2.72783	330.0
1082	3.33794e+02	1.08200e+03	2.72006	331.0
1084	3.34788e+02	1.08400e+03	2.7118	332.0
1086	3.35783e+02	1.08600e+03	2.7032	333.0
1088	3.36766e+02	1.08800e+03	2.69402	334.0
1090	3.37767e+02	1.09000e+03	2.68447	335.0
1092	3.38764e+02	1.09200e+03	2.67426	336.0
1094	3.39763e+02	1.09400e+03	2.6636	337.0
1096	3.40782e+02	1.09600e+03	2.65218	338.0
1098	3.41799e+02	1.09800e+03	2.64025	339.0
1100	3.42808e+02	1.10000e+03	2.62744	340.0
1102	3.43811e+02	1.10200e+03	2.61402	341.0
1104	3.44815e+02	1.10400e+03	2.5996	342.0
1106	3.45824e+02	1.10600e+03	2.58457	343.0
1108	3.46873e+02	1.10800e+03	2.56847	344.0
1110	3.47864e+02	1.11000e+03	2.5517	345.0
1112	3.48865e+02	1.11200e+03	2.53378	346.0
1114	3.49857e+02	1.11400e+03	2.51517	347.0
1116	3.50848e+02	1.11600e+03	2.49534	348.0
1118	3.51876e+02	1.11800e+03	2.47476	349.0
1120	3.52875e+02	1.12000e+03	2.45293	350.0
1122	3.53872e+02	1.12200e+03	2.43038	351.0
1124	3.54864e+02	1.12400e+03	2.40658	352.0
1126	3.55872e+02	1.12600e+03	2.38202	353.0
1128	3.56857e+02	1.12800e+03	2.35611	354.0
1130	3.57849e+02	1.13000e+03	2.32937	355.0
1132	3.58835e+02	1.13200e+03	2.30122	356.0
1134	3.59826e+02	1.13400e+03	2.27226	357.0
1136	3.60806e+02	1.13600e+03	2.24196	358.0
1138	3.61792e+02	1.13800e+03	2.21091	359.0
1140	3.62807e+02	1.14000e+03	2.17862	360.0
1142	3.63774e+02	1.14200e+03	2.14565	361.0
1144	3.64786e+02	1.14400e+03	2.11156	362.0
1146	3.65784e+02	1.14600e+03	2.07681	363.0
1148	3.66783e+02	1.14800e+03	2.04097	364.0
1150	3.67794e+02	1.15000e+03	2.00446	365.0
1152	3.68780e+02	1.15200e+03	1.96681	366.0
1154	3.69786e+02	1.15400e+03	1.92846	367.0
1156	3.70773e+02	1.15600e+03	1.88893	368.0
1158	3.71778e+02	1.15800e+03	1.84873	369.0
1160	3.72785e+02	1.16000e+03	1.80745	370.0
1162	3.73760e+02	1.16200e+03	1.76565	371.0
1164	3.74751e+02	1.16400e+03	1.72292	372.0
1166	3.75754e+02	1.16600e+03	1.6797	373.0
1168	3.76726e+02	1.16800e+03	1.6357	374.0
1170	3.77716e+02	1.17000e+03	1.59137	375.0
1172	3.78712e+02	1.17200e+03	1.54649	376.0
1174	3.79742e+02	1.17400e+03	1.50123	377.0
1176	3.80749e+02	1.17600e+03	1.45521	378.0
1178	3.81736e+02	1.17800e+03	1.40863	379.0
1180	3.82725e+02	1.18000e+03	1.36131	380.0
1182	3.83716e+02	1.18200e+03	1.31391	381.0
1184	3.84738e+02	1.18400e+03	1.26653	382.0
1186	3.85760e+02	1.18600e+03	1.2195	383.0
1188	3.86774e+02	1.18800e+03	1.17305	384.0
1190	3.87716e+02	1.19000e+03	1.12695	385.0
1192	3.88763e+02	1.19200e+03	1.08137	386.0
1194	3.89745e+02	1.19400e+03	1.03589	387.0
1196	3.90729e+02	1.19600e+03	0.990638	388.0
1198	3.91760e+02	1.19800e+03	0.945593	389.0
1200	3.92772e+02	1.20000e+03	0.900953	390.0
1202	3.93788e+02	1.20200e+03	0.856686	391.0
1204	3.94840e+02	1.20400e+03	0.81306	392.0
1206	3.95877e+02	1.20600e+03	0.769854	393.0
1208	3.96869e+02	1.20800e+03	0.727438	394.0
1210	3.97864e+02	1.21000e+03	0.685703	395.0
1212	3.98896e+02	1.21200e+03	0.64522	396.0
1214	3.99930e+02	1.21400e+03	0.605695	397.0
1216	4.00960e+02	1.21600e+03	0.567804	398.0
1218	4.01973e+02	1.21800e+03	0.530985	399.0
1220	4.02951e+02	1.22000e+03	0.49602	400.0
1222	4.03978e+02	1.22200e+03	0.46224	401.0
1224	4.05002e+02	1.22400e+03	0.430438	402.0
1226	4.06041e+02	1.22600e+03	0.399782	403.0
1228	4.07085e+02	1.22800e+03	0.371094	404.0
1230	4.08106e+02	1.23000e+03	0.343596	405.0
1232	4.09149e+02	1.23200e+03	0.318085	406.0
1234	4.10183e+02	1.23400e+03	0.293702	407.0
1236	4.11218e+02	1.23600e+03	0.271237	408.0
1238	4.12245e+02	1.23800e+03	0.249872	409.0
1240	4.13251e+02	1.24000e+03	0.230323	410.0
1242	4.14259e+02	1.24200e+03	0.211747	411.0
1244	4.15246e+02	1.24400e+03	0.194819	412.0
1246	4.16254e+02	1.24600e+03	0.178824	413.0
1248	4.17259e+02	1.24800e+03	0.16437	414.0
1250	4.18282e+02	1.25000e+03	0.150735	415.0
1252	4.19300e+02	1.25200e+03	0.138464	416.0
1254	4.20297e+02	1.25400e+03	0.126953	417.0
1256	4.21289e+02	1.25600e+03	0.116698	418.0
1258	4.22277e+02	1.25800e+03	0.107096	419.0
1260	4.23287e+02	1.26000e+03	0.0985702	420.0
1262	4.24299e+02	1.26200e+03	0.0906211	421.0
1264	4.25436e+02	1.26400e+03	0.0836459	422.0
1266	4.26521e+02	1.26600e+03	0.0772111	423.0
1268	4.27576e+02	1.26800e+03	0.0716638	424.0
1270	4.28577e+02	1.27000e+03	0.0665746	425.0
1272	4.29621e+02	1.27200e+03	0.0622421	426.0
1274	4.30653e+02	1.27400e+03	0.0582888	427.0
1276	4.31642e+02	1.27600e+03	0.0549403	428.0
1278	4.32659e+02	1.27800e+03	0.0518782	429.0
1280	4.33605e+02	1.28000e+03	0.0492826	430.0
1282	4.34589e+02	1.28200e+03	0.0469053	431.0
1284	4.35565e+02	1.28400e+03	0.044868	432.0
1286	4.36590e+02	1.28600e+03	0.0429928	433.0
1288	4.37610e+02	1.28800e+03	0.0414062	434.0
1290	4.38594e+02	1.29000e+03	0.0399953	435.0
1292	4.39601e+02	1.29200e+03	0.0388519	436.0
1294	4.40600e+02	1.29400e+03	0.0378119	437.0
1296	4.41573e+02	1.29600e+03	0.0369402	438.0
1298	4.42566e+02	1.29800e+03	0.0361373	439.0
1300	4.43620e+02	1.30000e+03	0.0354368	440.0
1302	4.44591e+02	1.30200e+03	0.034772	441.0
1304	4.45522e+02	1.30400e+03	0.034173	442.0
1306	4.46500e+02	1.30600e+03	0.0336143	443.0
1308	4.47466e+02	1.30800e+03	0.033128	444.0
1310	4.48466e+02	1.31000e+03	0.0326972	445.0
1312	4.49438e+02	1.31200e+03	0.0323581	446.0
1314	4.50400e+02	1.31400e+03	0.0320785	447.0
1316	4.51362e+02	1.31600e+03	0.0318848	448.0
1318	4.52334e+02	1.31800e+03	0.0317104	449.0
1320	4.53326e+02	1.32000e+03	0.0315547	450.0
1322	4.54308e+02	1.32200e+03	0.0313949	451.0
1324	4.55277e+02	1.32400e+03	0.0312495	452.0
1326	4.56273e+02	1.32600e+03	0.0311302	453.0
1328	4.57256e+02	1.32800e+03	0.0310477	454.0
1330	4.58242e+02	1.33000e+03	0.0309766	455.0
1332	4.59219e+02	1.33200e+03	0.0309285	456.0
1334	4.60218e+02	1.33400e+03	0.0308913	457.0
1336	4.61199e+02	1.33600e+03	0.0308739	458.0
1338	4.62181e+02	1.33800e+03	0.0308732	459.0
1340	4.63179e+02	1.34000e+03	0.030895	460.0
1342	4.64168e+02	1.34200e+03	0.0309133	461.0
1344	4.65148e+02	1.34400e+03	0.0309165	462.0
1346	4.66155e+02	1.34600e+03	0.0308928	463.0
1348	4.67154e+02	1.34800e+03	0.030831	464.0
1350	4.68187e+02	1.35000e+03	0.0307596	465.0
1352	4.69200e+02	1.35200e+03	0.0306808	466.0
1354	4.70184e+02	1.35400e+03	0.0306198	467.0
1356	4.71156e+02	1.35600e+03	0.0305814	468.0
1358	4.72102e+02	1.35800e+03	0.0305376	469.0
1360	4.73088e+02	1.36000e+03	0.0304853	470.0
1362	4.74048e+02	1.36200e+03	0.0304407	471.0
1364	4.75010e+02	1.36400e+03	0.0304159	472.0
1366	4.76028e+02	1.36600e+03	0.0304131	473.0
1368	4.76996e+02	1.36800e+03	0.0304392	474.0
1370	4.77995e+02	1.37000e+03	0.0304699	475.0
1372	4.78959e+02	1.37200e+03	0.0305088	476.0
1374	4.79896e+02	1.37400e+03	0.0305449	477.0
1376	4.80871e+02	1.37600e+03	0.0305652	478.0
1378	4.81839e+02	1.37800e+03	0.0305622	479.0
1380	4.82825e+02	1.38000e+03	0.0305343	480.0
1382	4.83804e+02	1.38200e+03	0.0305122	481.0
1384	4.84784e+02	1.38400e+03	0.0304997	482.0
1386	4.85800e+02	1.38600e+03	0.0305005	483.0
1388	4.86807e+02	1.38800e+03	0.0305239	484.0
1390	4.87800e+02	1.39000e+03	0.0305483	485.0
1392	4.88807e+02	1.39200e+03	0.0305527	486.0
1394	4.89762e+02	1.39400e+03	0.0305185	487.0
1396	4.90768e+02	1.39600e+03	0.0304449	488.0
1398	4.91809e+02	1.39800e+03	0.0303862	489.0
1400	4.92829e+02	1.40000e+03	0.0303434	490.0
1402	4.93800e+02	1.40200e+03	0.0302954	491.0
1404	4.94798e+02	1.40400e+03	0.030245	492.0
1406	4.95807e+02	1.40600e+03	0.0302013	493.0
1408	4.96775e+02	1.40800e+03	0.0301624	494.0
1410	4.97765e+02	1.41000e+03	0.030125	495.0
1412	4.98754e+02	1.41200e+03	0.0301007	496.0
1414	4.99773e+02	1.41400e+03	0.0300935	497.0
1416	5.00855e+02	1.41600e+03	0.0301013	498.0
1418	5.01974e+02	1.41800e+03	0.0301018	499.0
1420	5.03158e+02	1.42000e+03	0.0300997	500.0
1422	5.04096e+02	1.42200e+03	0.0301083	501.0
1424	5.05017e+02	1.42400e+03	0.0301253	502.0
1426	5.05976e+02	1.42600e+03	0.0301245	503.0
1428	5.06955e+02	1.42800e+03	0.0300942	504.0
1430	5.07876e+02	1.43000e+03	0.0300625	505.0
1432	5.08858e+02	1.43200e+03	0.0300392	506.0
1434	5.09832e+02	1.43400e+03	0.0300297	507.0
1436	5.10810e+02	1.43600e+03	0.0300416	508.0
1438	5.11762e+02	1.43800e+03	0.0300685	509.0
1440	5.12701e+02	1.44000e+03	0.0301179	510.0
1442	5.13632e+02	1.44200e+03	0.030166	511.0
1444	5.14637e+02	1.44400e+03	0.0301962	512.0
1446	5.15634e+02	1.44600e+03	0.0301966	513.0
1448	5.16597e+02	1.44800e+03	0.0301557	514.0
1450	5.17570e+02	1.45000e+03	0.0301077	515.0
1452	5.18536e+02	1.45200e+03	0.0300457	516.0
1454	5.19512e+02	1.45400e+03	0.0299827	517.0
1456	5.20448e+02	1.45600e+03	0.0299253	518.0
1458	5.21401e+02	1.45800e+03	0.0298761	519.0
1460	5.22400e+02	1.46000e+03	0.0298261	520.0
1462	5.23404e+02	1.46200e+03	0.0297677	521.0
1464	5.24395e+02	1.46400e+03	0.0297121	522.0
1466	5.25397e+02	1.46600e+03	0.0296811	523.0
1468	5.26374e+02	1.46800e+03	0.0296781	524.0
1470	5.27345e+02	1.47000e+03	0.0296819	525.0
1472	5.28305e+02	1.47200e+03	0.0296997	526.0
1474	5.29275e+02	1.47400e+03	0.0297235	527.0
1476	5.30230e+02	1.47600e+03	0.0297516	528.0
1478	5.31211e+02	1.47800e+03	0.0297819	529.0
1480	5.32188e+02	1.48000e+03	0.0298182	530.0
1482	5.33163e+02	1.48200e+03	0.0298533	531.0
1484	5.34166e+02	1.48400e+03	0.0298676	532.0
1486	5.35138e+02	1.48600e+03	0.0298382	533.0
1488	5.36133e+02	1.48800e+03	0.0297537	534.0
1490	5.37115e+02	1.49000e+03	0.0296692	535.0
1492	5.38074e+02	1.49200e+03	0.0295873	536.0
1494	5.39029e+02	1.49400e+03	0.0295148	537.0
1496	5.40016e+02	1.49600e+03	0.0294698	538.0
1498	5.40957e+02	1.49800e+03	0.029457	539.0
1500	5.41929e+02	1.50000e+03	0.0294854	540.0
1502	5.42880e+02	1.50200e+03	0.0295101	541.0
1504	5.43830e+02	1.50400e+03	0.0295301	542.0
1506	5.44819e+02	1.50600e+03	0.0295483	543.0
1508	5.45771e+02	1.50800e+03	0.0295586	544.0
1510	5.46805e+02	1.51000e+03	0.0295607	545.0
1512	5.47733e+02	1.51200e+03	0.0295575	546.0
1514	5.48730e+02	1.51400e+03	0.0295652	547.0
1516	5.49806e+02	1.51600e+03	0.0295851	548.0
1518	5.50824e+02	1.51800e+03	0.0295915	549.0
1520	5.51815e+02	1.52000e+03	0.0295778	550.0
1522	5.52900e+02	1.52200e+03	0.0295649	551.0
1524	5.53850e+02	1.52400e+03	0.0295523	552.0
1526	5.54826e+02	1.52600e+03	0.0295383	553.0
1528	5.55740e+02	1.52800e+03	0.0295189	554.0
1530	5.56666e+02	1.53000e+03	0.0295098	555.0
1532	5.57611e+02	1.53200e+03	0.0295208	556.0
1534	5.58518e+02	1.53400e+03	0.0295332	557.0
1536	5.59445e+02	1.53600e+03	0.0295164	558.0
1538	5.60378e+02	1.53800e+03	0.0294526	559.0
1540	5.61319e+02	1.54000e+03	0.0293517	560.0
1542	5.62281e+02	1.54200e+03	0.0292828	561.0
1544	5.63237e+02	1.54400e+03	0.029256	562.0
1546	5.64202e+02	1.54600e+03	0.0292337	563.0
1548	5.65183e+02	1.54800e+03	0.0292173	564.0
1550	5.66152e+02	1.55000e+03	0.029195	565.0
1552	5.67115e+02	1.55200e+03	0.029157	566.0
1554	5.68100e+02	1.55400e+03	0.0291126	567.0
1556	5.69099e+02	1.55600e+03	0.0290709	568.0
1558	5.70068e+02	1.55800e+03	0.0290403	569.0
1560	5.71064e+02	1.56000e+03	0.0290077	570.0
1562	5.72038e+02	1.56200e+03	0.0289511	571.0
1564	5.73030e+02	1.56400e+03	0.0288827	572.0
1566	5.74016e+02	1.56600e+03	0.0288419	573.0
1568	5.74998e+02	1.56800e+03	0.0288339	574.0
1570	5.75976e+02	1.57000e+03	0.0288168	575.0
1572	5.76987e+02	1.57200e+03	0.0287947	576.0
1574	5.77968e+02	1.57400e+03	0.0287854	577.0
1576	5.78963e+02	1.57600e+03	0.0287909	578.0
1578	5.79962e+02	1.57800e+03	0.0287925	579.0
1580	5.80929e+02	1.58000e+03	0.0287857	580.0
1582	5.81917e+02	1.58200e+03	0.0287651	581.0
1584	5.82901e+02	1.58400e+03	0.0287246	582.0
1586	5.83849e+02	1.58600e+03	0.0286807	583.0
1588	5.84827e+02	1.58800e+03	0.0286458	584.0
1590	5.85826e+02	1.59000e+03	0.0286384	585.0
1592	5.86845e+02	1.59200e+03	0.0286611	586.0
1594	5.87882e+02	1.59400e+03	0.0286634	587.0
1596	5.88829e+02	1.59600e+03	0.0286355	588.0
1598	5.89815e+02	1.59800e+03	0.0286103	589.0
1600	5.90774e+02	1.60000e+03	0.028587	590.0
1602	5.91770e+02	1.60200e+03	0.0285597	591.0
1604	5.92762e+02	1.60400e+03	0.0285222	592.0
1606	5.93758e+02	1.60600e+03	0.0284927	593.0
1608	5.94721e+02	1.60800e+03	0.0284825	594.0
1610	5.95686e+02	1.61000e+03	0.0284953	595.0
1612	5.96640e+02	1.61200e+03	0.0285324	596.0
1614	5.97618e+02	1.61400e+03	0.0285666	597.0
1616	5.98597e+02	1.61600e+03	0.0286029	598.0
1618	5.99586e+02	1.61800e+03	0.028643	599.0
1620	6.00575e+02	1.62000e+03	0.0286811	600.0
1622	6.01548e+02	1.62200e+03	0.0287209	601.0
1624	6.02521e+02	1.62400e+03	0.0287575	602.0
1626	6.03508e+02	1.62600e+03	0.0287767	603.0
1628	6.04531e+02	1.62800e+03	0.0287535	604.0
1630	6.05537e+02	1.63000e+03	0.0286958	605.0
1632	6.06543e+02	1.63200e+03	0.0286024	606.0
1634	6.07538e+02	1.63400e+03	0.0285174	607.0
1636	6.08510e+02	1.63600e+03	0.0284272	608.0
1638	6.09516e+02	1.63800e+03	0.0283241	609.0
1640	6.10518e+02	1.64000e+03	0.0282306	610.0
1642	6.11521e+02	1.64200e+03	0.0281875	611.0
1644	6.12543e+02	1.64400e+03	0.028213	612.0
1646	6.13660e+02	1.64600e+03	0.0282587	613.0
1648	6.14867e+02	1.64800e+03	0.0283386	614.0
1650	6.15609e+02	1.65000e+03	0.0284316	615.0
1652	6.16503e+02	1.65200e+03	0.0285213	616.0
1654	6.17427e+02	1.65400e+03	0.0285663	617.0
1656	6.18388e+02	1.65600e+03	0.0285539	618.0
1658	6.19337e+02	1.65800e+03	0.0285174	619.0
1660	6.20317e+02	1.66000e+03	0.0284365	620.0
1662	6.21304e+02	1.66200e+03	0.028321	621.0
1664	6.22281e+02	1.66400e+03	0.0281905	622.0
1666	6.23267e+02	1.66600e+03	0.0281198	623.0
1668	6.24243e+02	1.66800e+03	0.0281313	624.0
1670	6.25228e+02	1.67000e+03	0.0281542	625.0
1672	6.26216e+02	1.67200e+03	0.0281746	626.0
1674	6.27201e+02	1.67400e+03	0.0281632	627.0
1676	6.28182e+02	1.67600e+03	0.0281193	628.0
1678	6.29158e+02	1.67800e+03	0.0280883	629.0
1680	6.30154e+02	1.68000e+03	0.0280834	630.0
1682	6.31138e+02	1.68200e+03	0.0280992	631.0
1684	6.32119e+02	1.68400e+03	0.028136	632.0
1686	6.33097e+02	1.68600e+03	0.0281616	633.0
1688	6.34092e+02	1.68800e+03	0.0281719	634.0
1690	6.35065e+02	1.69000e+03	0.0281897	635.0
1692	6.36056e+02	1.69200e+03	0.0282105	636.0
1694	6.37036e+02	1.69400e+03	0.0282192	637.0
1696	6.38021e+02	1.69600e+03	0.0281949	638.0
1698	6.39016e+02	1.69800e+03	0.0281418	639.0
1700	6.39988e+02	1.70000e+03	0.0280603	640.0
1702	6.40975e+02	1.70200e+03	0.0279862	641.0
1704	6.41965e+02	1.70400e+03	0.0279103	642.0
1706	6.42949e+02	1.70600e+03	0.0278338	643.0
1708	6.43937e+02	1.70800e+03	0.0277661	644.0
1710	6.44912e+02	1.71000e+03	0.0277244	645.0
1712	6.45901e+02	1.71200e+03	0.0277195	646.0
1714	6.46887e+02	1.71400e+03	0.0277296	647.0
1716	6.47881e+02	1.71600e+03	0.0277658	648.0
1718	6.48873e+02	1.71800e+03	0.0278058	649.0
1720	6.49857e+02	1.72000e+03	0.0278302	650.0
1722	6.50834e+02	1.72200e+03	0.0278281	651.0
1724	6.51827e+02	1.72400e+03	0.0277996	652.0
1726	6.52813e+02	1.72600e+03	0.0277706	653.0
1728	6.53802e+02	1.72800e+03	0.027731	654.0
1730	6.54779e+02	1.73000e+03	0.0276777	655.0
1732	6.55769e+02	1.73200e+03	0.0276246	656.0
1734	6.56757e+02	1.73400e+03	0.027585	657.0
1736	6.57740e+02	1.73600e+03	0.0275458	658.0
1738	6.58733e+02	1.73800e+03	0.0274733	659.0
1740	6.59720e+02	1.74000e+03	0.0273594	660.0
1742	6.60712e+02	1.74200e+03	0.027259	661.0
1744	6.61683e+02	1.74400e+03	0.0271926	662.0
1746	6.62679e+02	1.74600e+03	0.0271717	663.0
1748	6.63667e+02	1.74800e+03	0.0272288	664.0
1750	6.64665e+02	1.75000e+03	0.0273258	665.0
1752	6.65645e+02	1.75200e+03	0.027451	666.0
1754	6.66633e+02	1.75400e+03	0.0275266	667.0
1756	6.67630e+02	1.75600e+03	0.0275298	668.0
1758	6.68601e+02	1.75800e+03	0.0275331	669.0
1760	6.69592e+02	1.76000e+03	0.0275393	670.0
1762	6.70582e+02	1.76200e+03	0.0275501	671.0
1764	6.71576e+02	1.76400e+03	0.027559	672.0
1766	6.72562e+02	1.76600e+03	0.0275589	673.0
1768	6.73550e+02	1.76800e+03	0.0275519	674.0
1770	6.74543e+02	1.77000e+03	0.0275514	675.0
1772	6.75526e+02	1.77200e+03	0.0275544	676.0
1774	6.76532e+02	1.77400e+03	0.0275649	677.0
1776	6.77502e+02	1.77600e+03	0.0275859	678.0
1778	6.78504e+02	1.77800e+03	0.0276056	679.0
1780	6.79490e+02	1.78000e+03	0.0276121	680.0
1782	6.80484e+02	1.78200e+03	0.0276011	681.0
1784	6.81470e+02	1.78400e+03	0.0275808	682.0
1786	6.82469e+02	1.78600e+03	0.0275796	683.0
1788	6.83460e+02	1.78800e+03	0.0275904	684.0
1790	6.84447e+02	1.79000e+03	0.0275847	685.0
1792	6.85442e+02	1.79200e+03	0.0275677	686.0
1794	6.86394e+02	1.79400e+03	0.0275628	687.0
1796	6.86753e+02	1.79600e+03	0.027582	688.0
1798	6.87413e+02	1.79800e+03	0.0276239	689.0
1800	6.88143e+02	1.80000e+03	0.0276904	690.0
1802	6.88819e+02	1.80200e+03	0.0277329	691.0
1804	6.89459e+02	1.80400e+03	0.0277244	692.0
1806	6.90057e+02	1.80600e+03	0.0276718	693.0
1808	6.90610e+02	1.80800e+03	0.0275523	694.0
1810	6.91141e+02	1.81000e+03	0.0274357	695.0
1812	6.91623e+02	1.81200e+03	0.0273476	696.0
1814	6.92081e+02	1.81400e+03	0.0273164	697.0
1816	6.92523e+02	1.81600e+03	0.0273549	698.0
1818	6.92932e+02	1.81800e+03	0.0273986	699.0
1820	6.93321e+02	1.82000e+03	0.0274568	700.0
1822	6.93682e+02	1.82200e+03	0.0275285	700.0
1824	6.94028e+02	1.82400e+03	0.0276009	700.0
1826	6.94356e+02	1.82600e+03	0.0276437	700.0
1828	6.94646e+02	1.82800e+03	0.0276453	700.0
1830	6.94939e+02	1.83000e+03	0.0276308	700.0
1832	6.95208e+02	1.83200e+03	0.0275875	700.0
1834	6.95461e+02	1.83400e+03	0.0275293	700.0
1836	6.95693e+02	1.83600e+03	0.0274592	700.0
1838	6.95919e+02	1.83800e+03	0.0273994	700.0
1840	6.96134e+02	1.84000e+03	0.0273521	700.0
1842	6.96336e+02	1.84200e+03	0.0273082	700.0
1844	6.96527e+02	1.84400e+03	0.0272859	700.0
1846	6.96691e+02	1.84600e+03	0.0272945	700.0
1848	6.96871e+02	1.84800e+03	0.0273555	700.0
1850	6.97022e+02	1.85000e+03	0.0274169	700.0
1852	6.97169e+02	1.85200e+03	0.0274604	700.0
1854	6.97323e+02	1.85400e+03	0.0274728	700.0
1856	6.97469e+02	1.85600e+03	0.0274494	700.0
1858	6.97598e+02	1.85800e+03	0.0274358	700.0
1860	6.97715e+02	1.86000e+03	0.0274383	700.0
1862	6.97845e+02	1.86200e+03	0.027446	700.0
1864	6.97962e+02	1.86400e+03	0.0274575	700.0
1866	6.98068e+02	1.86600e+03	0.0274571	700.0
1868	6.98168e+02	1.86800e+03	0.0274322	700.0
1870	6.98270e+02	1.87000e+03	0.0274013	700.0
1872	6.98352e+02	1.87200e+03	0.0273617	700.0
1874	6.98448e+02	1.87400e+03	0.0273178	700.0
1876	6.98525e+02	1.87600e+03	0.0272654	700.0
1878	6.98605e+02	1.87800e+03	0.0272199	700.0
1880	6.98682e+02	1.88000e+03	0.0271969	700.0
1882	6.98755e+02	1.88200e+03	0.0272141	700.0
1884	6.98839e+02	1.88400e+03	0.0272736	700.0
1886	6.98894e+02	1.88600e+03	0.0273168	700.0
1888	6.98956e+02	1.88800e+03	0.0273329	700.0
1890	6.99021e+02	1.89000e+03	0.0273384	700.0
1892	6.99075e+02	1.89200e+03	0.0273291	700.0
1894	6.99125e+02	1.89400e+03	0.027323	700.0
1896	6.99176e+02	1.89600e+03	0.0273213	700.0
1898	6.99229e+02	1.89800e+03	0.0273202	700.0
1900	6.99269e+02	1.90000e+03	0.0273189	700.0
1902	6.99324e+02	1.90200e+03	0.0273048	700.0
1904	6.99375e+02	1.90400e+03	0.0272835	700.0
1906	6.99401e+02	1.90600e+03	0.0272794	700.0
1908	6.99442e+02	1.90800e+03	0.0272896	700.0
1910	6.99481e+02	1.91000e+03	0.0272998	700.0
1912	6.99524e+02	1.91200e+03	0.0273093	700.0
1914	6.99560e+02	1.91400e+03	0.0273219	700.0
1916	6.99588e+02	1.91600e+03	0.0273354	700.0
1918	6.99630e+02	1.91800e+03	0.0273375	700.0
1920	6.99657e+02	1.92000e+03	0.0273238	700.0
1922	6.99684e+02	1.92200e+03	0.0273025	700.0
1924	6.99716e+02	1.92400e+03	0.0272742	700.0
1926	6.99737e+02	1.92600e+03	0.0272498	700.0
1928	6.99768e+02	1.92800e+03	0.0272251	700.0
1930	6.99792e+02	1.93000e+03	0.0272053	700.0
1932	6.99816e+02	1.93200e+03	0.0271909	700.0
1934	6.99857e+02	1.93400e+03	0.0271801	700.0
1936	6.99862e+02	1.93600e+03	0.0271725	700.0
1938	6.99885e+02	1.93800e+03	0.0271608	700.0
1940	6.99903e+02	1.94000e+03	0.0271433	700.0
1942	6.99922e+02	1.94200e+03	0.0271236	700.0
1944	6.99948e+02	1.94400e+03	0.0271009	700.0
1946	6.99963e+02	1.94600e+03	0.0270817	700.0
1948	6.99986e+02	1.94800e+03	0.0270793	700.0
1950	6.99992e+02	1.95000e+03	0.0270857	700.0
1952	7.00012e+02	1.95200e+03	0.0271035	700.0
1954	7.00022e+02	1.95400e+03	0.0271189	700.0
1956	7.00032e+02	1.95600e+03	0.0271325	700.0
1958	7.00058e+02	1.95800e+03	0.0271495	700.0
1960	7.00073e+02	1.96000e+03	0.0271686	700.0
1962	7.00084e+02	1.96200e+03	0.0271847	700.0
1964	7.00099e+02	1.96400e+03	0.0271996	700.0
1966	7.00107e+02	1.96600e+03	0.0272015	700.0
1968	7.00121e+02	1.96800e+03	0.027177	700.0
1970	7.00132e+02	1.97000e+03	0.027129	700.0
1972	7.00137e+02	1.97200e+03	0.027063	700.0
1974	7.00159e+02	1.97400e+03	0.0270223	700.0
1976	7.00158e+02	1.97600e+03	0.0270096	700.0
1978	7.00170e+02	1.97800e+03	0.0269991	700.0
1980	7.00186e+02	1.98000e+03	0.026993	700.0
1982	7.00186e+02	1.98200e+03	0.0269837	700.0
1984	7.00204e+02	1.98400e+03	0.0269621	700.0
1986	7.00215e+02	1.98600e+03	0.0269181	700.0
1988	7.00229e+02	1.98800e+03	0.0268561	700.0
1990	7.00231e+02	1.99000e+03	0.0268043	700.0
1992	7.00246e+02	1.99200e+03	0.0267689	700.0
1994	7.00252e+02	1.99400e+03	0.0267437	700.0
1996	7.00249e+02	1.99600e+03	0.026733	700.0
1998	7.00262e+02	1.99800e+03	0.0267256	700.0
2000	7.00270e+02	2.00000e+03	0.0267229	700.0
2002	7.00280e+02	2.00200e+03	0.0267211	700.0
2004	7.00283e+02	2.00400e+03	0.0267209	700.0
2006	7.00295e+02	2.00600e+03	0.0267291	700.0
2008	7.00296e+02	2.00800e+03	0.0267459	700.0
2010	7.00306e+02	2.01000e+03	0.0267575	700.0
2012	7.00314e+02	2.01200e+03	0.0267714	700.0
2014	7.00323e+02	2.01400e+03	0.0267973	700.0
2016	7.00336e+02	2.01600e+03	0.0268281	700.0
2018	7.00336e+02	2.01800e+03	0.0268491	700.0
2020	7.00334e+02	2.02000e+03	0.0268523	700.0
2022	7.00340e+02	2.02200e+03	0.0268429	700.0
2024	7.00345e+02	2.02400e+03	0.0268134	700.0
2026	7.00350e+02	2.02600e+03	0.0267769	700.0
2028	7.00353e+02	2.02800e+03	0.0267334	700.0
2030	7.00369e+02	2.03000e+03	0.0266951	700.0
2032	7.00360e+02	2.03200e+03	0.0266665	700.0
2034	7.00378e+02	2.03400e+03	0.026645	700.0
2036	7.00375e+02	2.03600e+03	0.0266342	700.0
2038	7.00381e+02	2.03800e+03	0.0266264	700.0
2040	7.00391e+02	2.04000e+03	0.0266211	700.0
2042	7.00390e+02	2.04200e+03	0.0266121	700.0
2044	7.00396e+02	2.04400e+03	0.026597	700.0
2046	7.00398e+02	2.04600e+03	0.0265787	700.0
2048	7.00409e+02	2.04800e+03	0.0265565	700.0
2050	7.00407e+02	2.05000e+03	0.0265338	700.0
2052	7.00411e+02	2.05200e+03	0.0265098	700.0
2054	7.00417e+02	2.05400e+03	0.0264853	700.0
2056	7.00422e+02	2.05600e+03	0.0264635	700.0
2058	7.00423e+02	2.05800e+03	0.0264589	700.0
2060	7.00425e+02	2.06000e+03	0.0264737	700.0
2062	7.00439e+02	2.06200e+03	0.0264887	700.0
2064	7.00434e+02	2.06400e+03	0.0265021	700.0
2066	7.00426e+02	2.06600e+03	0.0265063	700.0
2068	7.00452e+02	2.06800e+03	0.0264971	700.0
2070	7.00458e+02	2.07000e+03	0.0264936	700.0
2072	7.00440e+02	2.07200e+03	0.0264906	700.0
2074	7.00456e+02	2.07400e+03	0.026489	700.0
2076	7.00452e+02	2.07600e+03	0.0264795	700.0
2078	7.00466e+02	2.07800e+03	0.0264433	700.0
2080	7.00468e+02	2.08000e+03	0.0263852	700.0
2082	7.00462e+02	2.08200e+03	0.0263399	700.0
2084	7.00471e+02	2.08400e+03	0.0263179	700.0
2086	7.00455e+02	2.08600e+03	0.0263118	700.0
2088	7.00461e+02	2.08800e+03	0.0263236	700.0
2090	7.00460e+02	2.09000e+03	0.0263304	700.0
2092	7.00469e+02	2.09200e+03	0.0263282	700.0
2094	7.00473e+02	2.09400e+03	0.0263063	700.0
2096	7.00480e+02	2.09600e+03	0.0262593	700.0
2098	7.00481e+02	2.09800e+03	0.0262138	700.0
2100	7.00480e+02	2.10000e+03	0.0261807	700.0
2102	7.00477e+02	2.10200e+03	0.0261673	700.0
2104	7.00484e+02	2.10400e+03	0.0261632	700.0
2106	7.00481e+02	2.10600e+03	0.026139	700.0
2108	7.00488e+02	2.10800e+03	0.026094	700.0
2110	7.00491e+02	2.11000e+03	0.02607	700.0
2112	7.00491e+02	2.11200e+03	0.0260717	700.0
2114	7.00490e+02	2.11400e+03	0.0260801	700.0
2116	7.00485e+02	2.11600e+03	0.0260963	700.0
2118	7.00492e+02	2.11800e+03	0.0261069	700.0
2120	7.00493e+02	2.12000e+03	0.0261035	700.0
2122	7.00491e+02	2.12200e+03	0.0260795	700.0
2124	7.00491e+02	2.12400e+03	0.0260439	700.0
2126	7.00493e+02	2.12600e+03	0.0260236	700.0
2128	7.00495e+02	2.12800e+03	0.0260104	700.0
2130	7.00487e+02	2.13000e+03	0.0259892	700.0
2132	7.00502e+02	2.13200e+03	0.0259657	700.0
2134	7.00498e+02	2.13400e+03	0.0259697	700.0
2136	7.00505e+02	2.13600e+03	0.026005	700.0
2138	7.00496e+02	2.13800e+03	0.0260463	700.0
2140	7.00492e+02	2.14000e+03	0.0260956	700.0
2142	7.00503e+02	2.14200e+03	0.0261265	700.0
2144	7.00508e+02	2.14400e+03	0.0261264	700.0
2146	7.00501e+02	2.14600e+03	0.026102	700.0
2148	7.00496e+02	2.14800e+03	0.0260432	700.0
2150	7.00499e+02	2.15000e+03	0.0259798	700.0
2152	7.00510e+02	2.15200e+03	0.025909	700.0
2154	7.00503e+02	2.15400e+03	0.0258519	700.0
2156	7.00494e+02	2.15600e+03	0.0258138	700.0
2158	7.00505e+02	2.15800e+03	0.025793	700.0
2160	7.00495e+02	2.16000e+03	0.0258091	700.0
2162	7.00494e+02	2.16200e+03	0.0258392	700.0
2164	7.00493e+02	2.16400e+03	0.0258882	700.0
2166	7.00489e+02	2.16600e+03	0.0259327	700.0
2168	7.00512e+02	2.16800e+03	0.0259778	700.0
2170	7.00501e+02	2.17000e+03	0.0260235	700.0
2172	7.00499e+02	2.17200e+03	0.0260655	700.0
2174	7.00506e+02	2.17400e+03	0.026102	700.0
2176	7.00493e+02	2.17600e+03	0.026129	700.0
2178	7.00505e+02	2.17800e+03	0.0261426	700.0
2180	7.00488e+02	2.18000e+03	0.0261358	700.0
2182	7.00496e+02	2.18200e+03	0.026125	700.0
2184	7.00503e+02	2.18400e+03	0.0261171	700.0
2186	7.00491e+02	2.18600e+03	0.0261136	700.0
2188	7.00499e+02	2.18800e+03	0.0261047	700.0
2190	7.00493e+02	2.19000e+03	0.0260855	700.0
2192	7.00496e+02	2.19200e+03	0.0260559	700.0
2194	7.00487e+02	2.19400e+03	0.0260354	700.0
2196	7.00492e+02	2.19600e+03	0.0260279	700.0
2198	7.00492e+02	2.19800e+03	0.0260243	700.0
2200	7.00490e+02	2.20000e+03	0.0260387	700.0
2202	7.00485e+02	2.20200e+03	0.0260601	700.0
2204	7.00489e+02	2.20400e+03	0.0260882	700.0
2206	7.00485e+02	2.20600e+03	0.0261086	700.0
2208	7.00484e+02	2.20800e+03	0.0261298	700.0
2210	7.00491e+02	2.21000e+03	0.0261561	700.0
2212	7.00475e+02	2.21200e+03	0.0261839	700.0
2214	7.00484e+02	2.21400e+03	0.0261981	700.0
2216	7.00484e+02	2.21600e+03	0.0261914	700.0
2218	7.00481e+02	2.21800e+03	0.0261789	700.0
2220	7.00469e+02	2.22000e+03	0.0261602	700.0
2222	7.00488e+02	2.22200e+03	0.0261448	700.0
2224	7.00474e+02	2.22400e+03	0.0261417	700.0
2226	7.00475e+02	2.22600e+03	0.0261544	700.0
2228	7.00476e+02	2.22800e+03	0.0261758	700.0
2230	7.00482e+02	2.23000e+03	0.0261856	700.0
2232	7.00477e+02	2.23200e+03	0.0261815	700.0
2234	7.00476e+02	2.23400e+03	0.0261864	700.0
2236	7.00479e+02	2.23600e+03	0.0261924	700.0
2238	7.00470e+02	2.23800e+03	0.0261889	700.0
2240	7.00471e+02	2.24000e+03	0.0261697	700.0
2242	7.00467e+02	2.24200e+03	0.0261425	700.0
2244	7.00473e+02	2.24400e+03	0.026106	700.0
2246	7.00467e+02	2.24600e+03	0.0260707	700.0
2248	7.00478e+02	2.24800e+03	0.0260425	700.0
2250	7.00461e+02	2.25000e+03	0.0260298	700.0
2252	7.00466e+02	2.25200e+03	0.0260301	700.0
2254	7.00467e+02	2.25400e+03	0.0260269	700.0
2256	7.00460e+02	2.25600e+03	0.0260169	700.0
2258	7.00470e+02	2.25800e+03	0.0260022	700.0
2260	7.00460e+02	2.26000e+03	0.0259842	700.0
2262	7.00460e+02	2.26200e+03	0.0259729	700.0
2264	7.00465e+02	2.26400e+03	0.0259729	700.0
2266	7.00457e+02	2.26600e+03	0.0259792	700.0
2268	7.00457e+02	2.26800e+03	0.0259854	700.0
2270	7.00463e+02	2.27000e+03	0.0259652	700.0
2272	7.00453e+02	2.27200e+03	0.0259033	700.0
2274	7.00458e+02	2.27400e+03	0.0258388	700.0
2276	7.00455e+02	2.27600e+03	0.0257889	700.0
2278	7.00457e+02	2.27800e+03	0.0257576	700.0
2280	7.00459e+02	2.28000e+03	0.0257555	700.0
2282	7.00464e+02	2.28200e+03	0.0257684	700.0
2284	7.00458e+02	2.28400e+03	0.0258061	700.0
2286	7.00449e+02	2.28600e+03	0.0258556	700.0
2288	7.00446e+02	2.28800e+03	0.0259135	700.0
2290	7.00451e+02	2.29000e+03	0.0259559	700.0
2292	7.00458e+02	2.29200e+03	0.0259848	700.0
2294	7.00456e+02	2.29400e+03	0.026008	700.0
2296	7.00456e+02	2.29600e+03	0.0260136	700.0
2298	7.00447e+02	2.29800e+03	0.0260009	700.0
2300	7.00450e+02	2.30000e+03	0.0259813	700.0
2302	7.00447e+02	2.30200e+03	0.0259884	700.0
2304	7.00446e+02	2.30400e+03	0.0260234	700.0
2306	7.00443e+02	2.30600e+03	0.0260563	700.0
2308	7.00442e+02	2.30800e+03	0.0260933	700.0
2310	7.00442e+02	2.31000e+03	0.0261235	700.0
2312	7.00443e+02	2.31200e+03	0.0261347	700.0
2314	7.00443e+02	2.31400e+03	0.0261218	700.0
2316	7.00435e+02	2.31600e+03	0.0260773	700.0
2318	7.00443e+02	2.31800e+03	0.0260326	700.0
2320	7.00442e+02	2.32000e+03	0.0259916	700.0
2322	7.00436e+02	2.32200e+03	0.0259602	700.0
2324	7.00434e+02	2.32400e+03	0.0259493	700.0
2326	7.00439e+02	2.32600e+03	0.0259609	700.0
2328	7.00436e+02	2.32800e+03	0.0259947	700.0
2330	7.00437e+02	2.33000e+03	0.0260212	700.0
2332	7.00433e+02	2.33200e+03	0.0260291	700.0
2334	7.00435e+02	2.33400e+03	0.0260264	700.0
2336	7.00428e+02	2.33600e+03	0.0260094	700.0
2338	7.00435e+02	2.33800e+03	0.0259893	700.0
2340	7.00424e+02	2.34000e+03	0.0259689	700.0
2342	7.00429e+02	2.34200e+03	0.0259512	700.0
2344	7.00440e+02	2.34400e+03	0.0259357	700.0
2346	7.00431e+02	2.34600e+03	0.0259188	700.0
2348	7.00430e+02	2.34800e+03	0.0258999	700.0
2350	7.00436e+02	2.35000e+03	0.0258831	700.0
2352	7.00429e+02	2.35200e+03	0.0258717	700.0
2354	7.00435e+02	2.35400e+03	0.0258606	700.0
2356	7.00440e+02	2.35600e+03	0.0258484	700.0
2358	7.00439e+02	2.35800e+03	0.0258411	700.0
2360	7.00436e+02	2.36000e+03	0.0258483	700.0
2362	7.00431e+02	2.36200e+03	0.0258703	700.0
2364	7.00431e+02	2.36400e+03	0.0259058	700.0
2366	7.00423e+02	2.36600e+03	0.0259409	700.0
2368	7.00425e+02	2.36800e+03	0.0259764	700.0
2370	7.00427e+02	2.37000e+03	0.0260087	700.0
2372	7.00435e+02	2.37200e+03	0.0260313	700.0
2374	7.00424e+02	2.37400e+03	0.0260359	700.0
2376	7.00428e+02	2.37600e+03	0.0260196	700.0
2378	7.00426e+02	2.37800e+03	0.026005	700.0
2380	7.00432e+02	2.38000e+03	0.0259841	700.0
2382	7.00427e+02	2.38200e+03	0.0259491	700.0
2384	7.00429e+02	2.38400e+03	0.0258938	700.0
2386	7.00423e+02	2.38600e+03	0.0258412	700.0
2388	7.00431e+02	2.38800e+03	0.0258026	700.0
2390	7.00421e+02	2.39000e+03	0.0257866	700.0
2392	7.00420e+02	2.39200e+03	0.0258099	700.0
2394	7.00424e+02	2.39400e+03	0.0258396	700.0
2396	7.00425e+02	2.39600e+03	0.0258661	700.0
2398	7.00421e+02	2.39800e+03	0.0258751	700.0
2400	7.00420e+02	2.40000e+03	0.0258672	700.0
2402	7.00422e+02	2.40200e+03	0.0258739	700.0
2404	7.00413e+02	2.40400e+03	0.0259016	700.0
2406	7.00417e+02	2.40600e+03	0.0259203	700.0
2408	7.00413e+02	2.40800e+03	0.0259213	700.0
2410	7.00425e+02	2.41000e+03	0.025914	700.0
2412	7.00419e+02	2.41200e+03	0.0259057	700.0
2414	7.00415e+02	2.41400e+03	0.0259197	700.0
2416	7.00414e+02	2.41600e+03	0.0259614	700.0
2418	7.00410e+02	2.41800e+03	0.0259911	700.0
2420	7.00414e+02	2.42000e+03	0.0259672	700.0
2422	7.00408e+02	2.42200e+03	0.0258771	700.0
2424	7.00419e+02	2.42400e+03	0.0257069	700.0
2426	7.00414e+02	2.42600e+03	0.025564	700.0
2428	7.00414e+02	2.42800e+03	0.0254948	700.0
2430	7.00417e+02	2.43000e+03	0.0254966	700.0
2432	7.00413e+02	2.43200e+03	0.0255945	700.0
2434	7.00421e+02	2.43400e+03	0.0256975	700.0
2436	7.00419e+02	2.43600e+03	0.0257995	700.0
2438	7.00409e+02	2.43800e+03	0.0258811	700.0
2440	7.00410e+02	2.44000e+03	0.0259325	700.0
2442	7.00413e+02	2.44200e+03	0.0259799	700.0
2444	7.00418e+02	2.44400e+03	0.0260241	700.0
2446	7.00405e+02	2.44600e+03	0.0260702	700.0
2448	7.00415e+02	2.44800e+03	0.0261121	700.0
2450	7.00408e+02	2.45000e+03	0.0261384	700.0
2452	7.00410e+02	2.45200e+03	0.0261371	700.0
2454	7.00410e+02	2.45400e+03	0.0261169	700.0
2456	7.00410e+02	2.45600e+03	0.0260607	700.0
2458	7.00407e+02	2.45800e+03	0.0259988	700.0
2460	7.00409e+02	2.46000e+03	0.0259396	700.0
2462	7.00409e+02	2.46200e+03	0.0259045	700.0
2464	7.00415e+02	2.46400e+03	0.0258935	700.0
2466	7.00403e+02	2.46600e+03	0.025879	700.0
2468	7.00407e+02	2.46800e+03	0.0258667	700.0
2470	7.00408e+02	2.47000e+03	0.0258791	700.0
2472	7.00405e+02	2.47200e+03	0.0259154	700.0
2474	7.00401e+02	2.47400e+03	0.0259429	700.0
2476	7.00403e+02	2.47600e+03	0.0259678	700.0
2478	7.00397e+02	2.47800e+03	0.0260011	700.0
2480	7.00402e+02	2.48000e+03	0.0260323	700.0
2482	7.00397e+02	2.48200e+03	0.0260482	700.0
2484	7.00406e+02	2.48400e+03	0.0260405	700.0
2486	7.00396e+02	2.48600e+03	0.0260231	700.0
2488	7.00400e+02	2.48800e+03	0.0259943	700.0
2490	7.00404e+02	2.49000e+03	0.025969	700.0
2492	7.00391e+02	2.49200e+03	0.0259507	700.0
2494	7.00400e+02	2.49400e+03	0.0259464	700.0
2496	7.00393e+02	2.49600e+03	0.0259557	700.0
2498	7.00396e+02	2.49800e+03	0.0259603	700.0
2500	7.00389e+02	2.50000e+03	0.0259667	700.0
2502	7.00405e+02	2.50200e+03	0.0259811	700.0
2504	7.00394e+02	2.50400e+03	0.0260063	700.0
2506	7.00396e+02	2.50600e+03	0.0260317	700.0
2508	7.00394e+02	2.50800e+03	0.0260506	700.0
2510	7.00395e+02	2.51000e+03	0.0260566	700.0
2512	7.00399e+02	2.51200e+03	0.0260471	700.0
2514	7.00404e+02	2.51400e+03	0.0260384	700.0
2516	7.00395e+02	2.51600e+03	0.0260321	700.0
2518	7.00397e+02	2.51800e+03	0.0260413	700.0
2520	7.00394e+02	2.52000e+03	0.0260661	700.0
2522	7.00401e+02	2.52200e+03	0.0260812	700.0
2524	7.00399e+02	2.52400e+03	0.026082	700.0
2526	7.00397e+02	2.52600e+03	0.0260799	700.0
2528	7.00397e+02	2.52800e+03	0.0260835	700.0
2530	7.00393e+02	2.53000e+03	0.0261038	700.0
2532	7.00394e+02	2.53200e+03	0.0261382	700.0
2534	7.00388e+02	2.53400e+03	0.0261585	700.0
2536	7.00393e+02	2.53600e+03	0.0261589	700.0
2538	7.00391e+02	2.53800e+03	0.0261528	700.0
2540	7.00398e+02	2.54000e+03	0.0261366	700.0
2542	7.00387e+02	2.54200e+03	0.026118	700.0
2544	7.00389e+02	2.54400e+03	0.0261047	700.0
2546	7.00384e+02	2.54600e+03	0.0261012	700.0
2548	7.00392e+02	2.54800e+03	0.0260993	700.0
2550	7.00388e+02	2.55000e+03	0.0260848	700.0
2552	7.00384e+02	2.55200e+03	0.0260616	700.0
2554	7.00386e+02	2.55400e+03	0.0260513	700.0
2556	7.00392e+02	2.55600e+03	0.0260576	700.0
2558	7.00391e+02	2.55800e+03	0.0260631	700.0
2560	7.00397e+02	2.56000e+03	0.0260597	700.0
2562	7.00394e+02	2.56200e+03	0.0260436	700.0
2564	7.00395e+02	2.56400e+03	0.0260158	700.0
2566	7.00385e+02	2.56600e+03	0.0259947	700.0
2568	7.00392e+02	2.56800e+03	0.025988	700.0
2570	7.00398e+02	2.57000e+03	0.0259942	700.0
2572	7.00387e+02	2.57200e+03	0.0260082	700.0
2574	7.00393e+02	2.57400e+03	0.0260057	700.0
2576	7.00395e+02	2.57600e+03	0.0259853	700.0
2578	7.00390e+02	2.57800e+03	0.0259705	700.0
2580	7.00393e+02	2.58000e+03	0.0259629	700.0
2582	7.00398e+02	2.58200e+03	0.0259492	700.0
2584	7.00390e+02	2.58400e+03	0.0259315	700.0
2586	7.00383e+02	2.58600e+03	0.0259266	700.0
2588	7.00394e+02	2.58800e+03	0.0259325	700.0
2590	7.00384e+02	2.59000e+03	0.0259392	700.0
2592	7.00390e+02	2.59200e+03	0.0259415	700.0
2594	7.00387e+02	2.59400e+03	0.0259319	700.0
2596	7.00389e+02	2.59600e+03	0.0259054	700.0
2598	7.00384e+02	2.59800e+03	0.0258646	700.0
2600	7.00391e+02	2.60000e+03	0.0258158	700.0
2602	7.00385e+02	2.60200e+03	0.0257762	700.0
2604	7.00393e+02	2.60400e+03	0.0257505	700.0
2606	7.00380e+02	2.60600e+03	0.0257329	700.0
2608	7.00391e+02	2.60800e+03	0.0257267	700.0
2610	7.00385e+02	2.61000e+03	0.0257226	700.0
2612	7.00391e+02	2.61200e+03	0.0257211	700.0
2614	7.00389e+02	2.61400e+03	0.0257174	700.0
2616	7.00379e+02	2.61600e+03	0.0257061	700.0
2618	7.00393e+02	2.61800e+03	0.0256856	700.0
2620	7.00380e+02	2.62000e+03	0.0256547	700.0
2622	7.00387e+02	2.62200e+03	0.0256274	700.0
2624	7.00385e+02	2.62400e+03	0.0256094	700.0
2626	7.00380e+02	2.62600e+03	0.0256062	700.0
2628	7.00385e+02	2.62800e+03	0.0256315	700.0
2630	7.00391e+02	2.63000e+03	0.0256635	700.0
2632	7.00385e+02	2.63200e+03	0.025705	700.0
2634	7.00387e+02	2.63400e+03	0.0257416	700.0
2636	7.00390e+02	2.63600e+03	0.0257766	700.0
2638	7.00390e+02	2.63800e+03	0.0258189	700.0
2640	7.00386e+02	2.64000e+03	0.0258606	700.0
2642	7.00391e+02	2.64200e+03	0.0258911	700.0
2644	7.00372e+02	2.64400e+03	0.0259064	700.0
2646	7.00386e+02	2.64600e+03	0.0259213	700.0
2648	7.00383e+02	2.64800e+03	0.0259344	700.0
2650	7.00384e+02	2.65000e+03	0.025943	700.0
2652	7.00388e+02	2.65200e+03	0.0259401	700.0
2654	7.00385e+02	2.65400e+03	0.0259343	700.0
2656	7.00384e+02	2.65600e+03	0.0259289	700.0
2658	7.00382e+02	2.65800e+03	0.0259226	700.0
2660	7.00386e+02	2.66000e+03	0.0259143	700.0
2662	7.00386e+02	2.66200e+03	0.0258994	700.0
2664	7.00377e+02	2.66400e+03	0.0258751	700.0
2666	7.00386e+02	2.66600e+03	0.0258492	700.0
2668	7.00383e+02	2.66800e+03	0.025822	700.0
2670	7.00384e+02	2.67000e+03	0.025808	700.0
2672	7.00375e+02	2.67200e+03	0.0258082	700.0
2674	7.00379e+02	2.67400e+03	0.0258115	700.0
2676	7.00397e+02	2.67600e+03	0.0258229	700.0
2678	7.00386e+02	2.67800e+03	0.0258422	700.0
2680	7.00385e+02	2.68000e+03	0.0258699	700.0
2682	7.00382e+02	2.68200e+03	0.0258926	700.0
2684	7.00381e+02	2.68400e+03	0.0259125	700.0
2686	7.00382e+02	2.68600e+03	0.025928	700.0
2688	7.00395e+02	2.68800e+03	0.0259357	700.0
2690	7.00383e+02	2.69000e+03	0.025938	700.0
2692	7.00385e+02	2.69200e+03	0.0259352	700.0
2694	7.00380e+02	2.69400e+03	0.0259356	700.0
2696	7.00384e+02	2.69600e+03	0.0259483	700.0
2698	7.00376e+02	2.69800e+03	0.0259644	700.0
2700	7.00383e+02	2.70000e+03	0.0259782	700.0
2702	7.00383e+02	2.70200e+03	0.0259869	700.0
2704	7.00384e+02	2.70400e+03	0.0259833	700.0
2706	7.00388e+02	2.70600e+03	0.0259717	700.0
2708	7.00374e+02	2.70800e+03	0.0259472	700.0
2710	7.00383e+02	2.71000e+03	0.025916	700.0
2712	7.00381e+02	2.71200e+03	0.0258915	700.0
2714	7.00376e+02	2.71400e+03	0.025867	700.0
2716	7.00383e+02	2.71600e+03	0.0258437	700.0
2718	7.00381e+02	2.71800e+03	0.0258293	700.0
2720	7.00390e+02	2.72000e+03	0.02582	700.0