File: Experiments/TGA/TUBS/tga_nonisotherm/tga_dynamic_n2high50_dyn30_powder_3mg_r1.txt
Index	Ts	t	Weight	Tr
[#]	[°C]	[s]	[mg]	[°C]
681	1.30102e+02	6.81000e+02	2.96888	130.5
683	1.31100e+02	6.83000e+02	2.96887	131.5
685	1.32102e+02	6.85000e+02	2.96885	132.5
687	1.33103e+02	6.87000e+02	2.9688	133.5
689	1.34120e+02	6.89000e+02	2.96872	134.5
691	1.35128e+02	6.91000e+02	2.96863	135.5
693	1.36114e+02	6.93000e+02	2.96851	136.5
695	1.37128e+02	6.95000e+02	2.96838	137.5
697	1.38141e+02	6.97000e+02	2.96825	138.5
699	1.39133e+02	6.99000e+02	2.96811	139.5
701	1.40146e+02	7.01000e+02	2.96796	140.5
703	1.41152e+02	7.03000e+02	2.96781	141.5
705	1.42173e+02	7.05000e+02	2.96765	142.5
707	1.43171e+02	7.07000e+02	2.96746	143.5
709	1.44196e+02	7.09000e+02	2.96723	144.5
711	1.45208e+02	7.11000e+02	2.96698	145.5
713	1.46224e+02	7.13000e+02	2.96668	146.5
715	1.47229e+02	7.15000e+02	2.96638	147.5
717	1.48249e+02	7.17000e+02	2.96605	148.5
719	1.49262e+02	7.19000e+02	2.96573	149.5
721	1.50267e+02	7.21000e+02	2.96541	150.5
723	1.51281e+02	7.23000e+02	2.96511	151.5
725	1.52281e+02	7.25000e+02	2.9648	152.5
727	1.53301e+02	7.27000e+02	2.96446	153.5
729	1.54306e+02	7.29000e+02	2.96406	154.5
731	1.55316e+02	7.31000e+02	2.96366	155.5
733	1.56330e+02	7.33000e+02	2.96323	156.5
735	1.57342e+02	7.35000e+02	2.9628	157.5
737	1.58350e+02	7.37000e+02	2.96234	158.5
739	1.59364e+02	7.39000e+02	2.96187	159.5
741	1.60375e+02	7.41000e+02	2.96138	160.5
743	1.61376e+02	7.43000e+02	2.96089	161.5
745	1.62390e+02	7.45000e+02	2.96038	162.5
747	1.63415e+02	7.47000e+02	2.95984	163.5
749	1.64415e+02	7.49000e+02	2.95927	164.5
751	1.65431e+02	7.51000e+02	2.95869	165.5
753	1.66434e+02	7.53000e+02	2.95807	166.5
755	1.67447e+02	7.55000e+02	2.95745	167.5
757	1.68470e+02	7.57000e+02	2.95677	168.5
759	1.69476e+02	7.59000e+02	2.95607	169.5
761	1.70492e+02	7.61000e+02	2.9553	170.5
763	1.71512e+02	7.63000e+02	2.95452	171.5
765	1.72527e+02	7.65000e+02	2.95367	172.5
767	1.73546e+02	7.67000e+02	2.95281	173.5
769	1.74544e+02	7.69000e+02	2.95185	174.5
771	1.75563e+02	7.71000e+02	2.95085	175.5
773	1.76578e+02	7.73000e+02	2.9497	176.5
775	1.77598e+02	7.75000e+02	2.9485	177.5
777	1.78593e+02	7.77000e+02	2.94711	178.5
779	1.79626e+02	7.79000e+02	2.94566	179.5
781	1.80624e+02	7.81000e+02	2.94401	180.5
783	1.81648e+02	7.83000e+02	2.94229	181.5
785	1.82663e+02	7.85000e+02	2.94035	182.5
787	1.83682e+02	7.87000e+02	2.93835	183.5
789	1.84690e+02	7.89000e+02	2.93614	184.5
791	1.85700e+02	7.91000e+02	2.93387	185.5
793	1.86715e+02	7.93000e+02	2.93139	186.5
795	1.87741e+02	7.95000e+02	2.92884	187.5
797	1.88741e+02	7.97000e+02	2.92608	188.5
799	1.89764e+02	7.99000e+02	2.92328	189.5
801	1.90793e+02	8.01000e+02	2.92029	190.5
803	1.91818e+02	8.03000e+02	2.91726	191.5
805	1.92823e+02	8.05000e+02	2.91409	192.5
807	1.93834e+02	8.07000e+02	2.91093	193.5
809	1.94847e+02	8.09000e+02	2.90769	194.5
811	1.95850e+02	8.11000e+02	2.90444	195.5
813	1.96878e+02	8.13000e+02	2.90116	196.5
815	1.97889e+02	8.15000e+02	2.89788	197.5
817	1.98906e+02	8.17000e+02	2.89463	198.5
819	1.99922e+02	8.19000e+02	2.89145	199.5
821	2.00962e+02	8.21000e+02	2.88841	200.5
823	2.01968e+02	8.23000e+02	2.88544	201.5
825	2.02998e+02	8.25000e+02	2.88268	202.5
827	2.04018e+02	8.27000e+02	2.87998	203.5
829	2.05039e+02	8.29000e+02	2.8775	204.5
831	2.06056e+02	8.31000e+02	2.87508	205.5
833	2.07091e+02	8.33000e+02	2.8729	206.5
835	2.08118e+02	8.35000e+02	2.87079	207.5
837	2.09141e+02	8.37000e+02	2.86895	208.5
839	2.10158e+02	8.39000e+02	2.86718	209.5
841	2.11190e+02	8.41000e+02	2.86568	210.5
843	2.12216e+02	8.43000e+02	2.86423	211.5
845	2.13276e+02	8.45000e+02	2.86301	212.5
847	2.14315e+02	8.47000e+02	2.86182	213.5
849	2.15345e+02	8.49000e+02	2.8608	214.5
851	2.16390e+02	8.51000e+02	2.85979	215.5
853	2.17420e+02	8.53000e+02	2.85889	216.5
855	2.18450e+02	8.55000e+02	2.85801	217.5
857	2.19479e+02	8.57000e+02	2.85721	218.5
859	2.20532e+02	8.59000e+02	2.85642	219.5
861	2.21544e+02	8.61000e+02	2.85568	220.5
863	2.22572e+02	8.63000e+02	2.85495	221.5
865	2.23601e+02	8.65000e+02	2.85424	222.5
867	2.24607e+02	8.67000e+02	2.85353	223.5
869	2.25617e+02	8.69000e+02	2.85284	224.5
871	2.26647e+02	8.71000e+02	2.85213	225.5
873	2.27661e+02	8.73000e+02	2.85143	226.5
875	2.28688e+02	8.75000e+02	2.85074	227.5
877	2.29700e+02	8.77000e+02	2.85006	228.5
879	2.30714e+02	8.79000e+02	2.84938	229.5
881	2.31712e+02	8.81000e+02	2.84869	230.5
883	2.32725e+02	8.83000e+02	2.84798	231.5
885	2.33756e+02	8.85000e+02	2.84723	232.5
887	2.34769e+02	8.87000e+02	2.8465	233.5
889	2.35798e+02	8.89000e+02	2.84578	234.5
891	2.36819e+02	8.91000e+02	2.84509	235.5
893	2.37842e+02	8.93000e+02	2.84442	236.5
895	2.38855e+02	8.95000e+02	2.84373	237.5
897	2.39881e+02	8.97000e+02	2.843	238.5
899	2.40896e+02	8.99000e+02	2.84226	239.5
901	2.41928e+02	9.01000e+02	2.84148	240.5
903	2.42977e+02	9.03000e+02	2.84074	241.5
905	2.44008e+02	9.05000e+02	2.84003	242.5
907	2.45043e+02	9.07000e+02	2.83935	243.5
909	2.46064e+02	9.09000e+02	2.83872	244.5
911	2.47091e+02	9.11000e+02	2.83809	245.5
913	2.48105e+02	9.13000e+02	2.83751	246.5
915	2.49141e+02	9.15000e+02	2.83696	247.5
917	2.50153e+02	9.17000e+02	2.83648	248.5
919	2.51193e+02	9.19000e+02	2.83599	249.5
921	2.52220e+02	9.21000e+02	2.83549	250.5
923	2.53250e+02	9.23000e+02	2.83497	251.5
925	2.54324e+02	9.25000e+02	2.83441	252.5
927	2.55370e+02	9.27000e+02	2.83388	253.5
929	2.56391e+02	9.29000e+02	2.83338	254.5
931	2.57471e+02	9.31000e+02	2.83287	255.5
933	2.58497e+02	9.33000e+02	2.83236	256.5
935	2.59540e+02	9.35000e+02	2.83184	257.5
937	2.60579e+02	9.37000e+02	2.83133	258.5
939	2.61614e+02	9.39000e+02	2.83084	259.5
941	2.62647e+02	9.41000e+02	2.83042	260.5
943	2.63662e+02	9.43000e+02	2.83001	261.5
945	2.64680e+02	9.45000e+02	2.82963	262.5
947	2.65715e+02	9.47000e+02	2.82922	263.5
949	2.66738e+02	9.49000e+02	2.82878	264.5
951	2.67769e+02	9.51000e+02	2.82831	265.5
953	2.68800e+02	9.53000e+02	2.82777	266.5
955	2.69818e+02	9.55000e+02	2.8272	267.5
957	2.70840e+02	9.57000e+02	2.82656	268.5
959	2.71857e+02	9.59000e+02	2.82593	269.5
961	2.72876e+02	9.61000e+02	2.82529	270.5
963	2.73905e+02	9.63000e+02	2.82466	271.5
965	2.74928e+02	9.65000e+02	2.82405	272.5
967	2.75945e+02	9.67000e+02	2.82342	273.5
969	2.76965e+02	9.69000e+02	2.82278	274.5
971	2.77959e+02	9.71000e+02	2.82211	275.5
973	2.78968e+02	9.73000e+02	2.8214	276.5
975	2.79981e+02	9.75000e+02	2.82067	277.5
977	2.81009e+02	9.77000e+02	2.81987	278.5
979	2.82019e+02	9.79000e+02	2.81905	279.5
981	2.83022e+02	9.81000e+02	2.81814	280.5
983	2.84038e+02	9.83000e+02	2.8172	281.5
985	2.85047e+02	9.85000e+02	2.81617	282.5
987	2.86069e+02	9.87000e+02	2.8151	283.5
989	2.87077e+02	9.89000e+02	2.81392	284.5
991	2.88093e+02	9.91000e+02	2.81273	285.5
993	2.89114e+02	9.93000e+02	2.81144	286.5
995	2.90110e+02	9.95000e+02	2.81011	287.5
997	2.91129e+02	9.97000e+02	2.80861	288.5
999	2.92130e+02	9.99000e+02	2.80706	289.5
1001	2.93138e+02	1.00100e+03	2.80531	290.5
1003	2.94139e+02	1.00300e+03	2.80352	291.5
1005	2.95135e+02	1.00500e+03	2.80154	292.5
1007	2.96126e+02	1.00700e+03	2.79951	293.5
1009	2.97121e+02	1.00900e+03	2.79729	294.5
1011	2.98111e+02	1.01100e+03	2.79503	295.5
1013	2.99089e+02	1.01300e+03	2.79255	296.5
1015	3.00080e+02	1.01500e+03	2.79002	297.5
1017	3.01057e+02	1.01700e+03	2.78725	298.5
1019	3.02038e+02	1.01900e+03	2.78441	299.5
1021	3.03009e+02	1.02100e+03	2.78131	300.5
1023	3.03989e+02	1.02300e+03	2.77814	301.5
1025	3.04953e+02	1.02500e+03	2.77472	302.5
1027	3.05909e+02	1.02700e+03	2.77127	303.5
1029	3.06845e+02	1.02900e+03	2.76761	304.5
1031	3.07802e+02	1.03100e+03	2.76395	305.5
1033	3.08750e+02	1.03300e+03	2.76013	306.5
1035	3.09723e+02	1.03500e+03	2.75627	307.5
1037	3.10710e+02	1.03700e+03	2.75224	308.5
1039	3.11681e+02	1.03900e+03	2.74816	309.5
1041	3.12667e+02	1.04100e+03	2.74392	310.5
1043	3.13656e+02	1.04300e+03	2.73966	311.5
1045	3.14658e+02	1.04500e+03	2.73527	312.5
1047	3.15648e+02	1.04700e+03	2.73088	313.5
1049	3.16644e+02	1.04900e+03	2.7264	314.5
1051	3.17641e+02	1.05100e+03	2.72189	315.5
1053	3.18631e+02	1.05300e+03	2.71727	316.5
1055	3.19617e+02	1.05500e+03	2.71259	317.5
1057	3.20629e+02	1.05700e+03	2.70775	318.5
1059	3.21633e+02	1.05900e+03	2.70289	319.5
1061	3.22643e+02	1.06100e+03	2.69789	320.5
1063	3.23648e+02	1.06300e+03	2.69285	321.5
1065	3.24659e+02	1.06500e+03	2.68767	322.5
1067	3.25665e+02	1.06700e+03	2.68247	323.5
1069	3.26667e+02	1.06900e+03	2.67714	324.5
1071	3.27674e+02	1.07100e+03	2.6718	325.5
1073	3.28672e+02	1.07300e+03	2.66633	326.5
1075	3.29669e+02	1.07500e+03	2.6608	327.5
1077	3.30676e+02	1.07700e+03	2.65509	328.5
1079	3.31673e+02	1.07900e+03	2.64929	329.5
1081	3.32664e+02	1.08100e+03	2.64314	330.5
1083	3.33665e+02	1.08300e+03	2.6368	331.5
1085	3.34665e+02	1.08500e+03	2.62987	332.5
1087	3.35667e+02	1.08700e+03	2.62273	333.5
1089	3.36661e+02	1.08900e+03	2.61489	334.5
1091	3.37667e+02	1.09100e+03	2.60687	335.5
1093	3.38661e+02	1.09300e+03	2.59811	336.5
1095	3.39656e+02	1.09500e+03	2.58912	337.5
1097	3.40662e+02	1.09700e+03	2.57927	338.5
1099	3.41650e+02	1.09900e+03	2.56914	339.5
1101	3.42654e+02	1.10100e+03	2.55802	340.5
1103	3.43653e+02	1.10300e+03	2.5466	341.5
1105	3.44646e+02	1.10500e+03	2.53407	342.5
1107	3.45642e+02	1.10700e+03	2.5212	343.5
1109	3.46647e+02	1.10900e+03	2.50708	344.5
1111	3.47642e+02	1.11100e+03	2.4926	345.5
1113	3.48641e+02	1.11300e+03	2.47672	346.5
1115	3.49644e+02	1.11500e+03	2.46046	347.5
1117	3.50646e+02	1.11700e+03	2.44269	348.5
1119	3.51640e+02	1.11900e+03	2.42453	349.5
1121	3.52628e+02	1.12100e+03	2.40474	350.5
1123	3.53610e+02	1.12300e+03	2.38452	351.5
1125	3.54600e+02	1.12500e+03	2.36257	352.5
1127	3.55585e+02	1.12700e+03	2.34022	353.5
1129	3.56573e+02	1.12900e+03	2.31612	354.5
1131	3.57560e+02	1.13100e+03	2.29161	355.5
1133	3.58532e+02	1.13300e+03	2.26536	356.5
1135	3.59519e+02	1.13500e+03	2.23871	357.5
1137	3.60503e+02	1.13700e+03	2.21031	358.5
1139	3.61485e+02	1.13900e+03	2.1815	359.5
1141	3.62461e+02	1.14100e+03	2.15098	360.5
1143	3.63440e+02	1.14300e+03	2.12011	361.5
1145	3.64420e+02	1.14500e+03	2.08761	362.5
1147	3.65422e+02	1.14700e+03	2.05477	363.5
1149	3.66410e+02	1.14900e+03	2.02037	364.5
1151	3.67392e+02	1.15100e+03	1.98567	365.5
1153	3.68379e+02	1.15300e+03	1.94954	366.5
1155	3.69369e+02	1.15500e+03	1.91311	367.5
1157	3.70361e+02	1.15700e+03	1.87525	368.5
1159	3.71351e+02	1.15900e+03	1.83704	369.5
1161	3.72357e+02	1.16100e+03	1.79738	370.5
1163	3.73350e+02	1.16300e+03	1.75743	371.5
1165	3.74362e+02	1.16500e+03	1.7161	372.5
1167	3.75367e+02	1.16700e+03	1.67448	373.5
1169	3.76400e+02	1.16900e+03	1.63164	374.5
1171	3.77395e+02	1.17100e+03	1.58869	375.5
1173	3.78414e+02	1.17300e+03	1.54486	376.5
1175	3.79435e+02	1.17500e+03	1.50096	377.5
1177	3.80428e+02	1.17700e+03	1.45635	378.5
1179	3.81427e+02	1.17900e+03	1.41156	379.5
1181	3.82412e+02	1.18100e+03	1.36603	380.5
1183	3.83407e+02	1.18300e+03	1.3204	381.5
1185	3.84392e+02	1.18500e+03	1.27437	382.5
1187	3.85382e+02	1.18700e+03	1.2286	383.5
1189	3.86368e+02	1.18900e+03	1.18316	384.5
1191	3.87373e+02	1.19100e+03	1.13801	385.5
1193	3.88369e+02	1.19300e+03	1.09359	386.5
1195	3.89373e+02	1.19500e+03	1.04934	387.5
1197	3.90382e+02	1.19700e+03	1.00578	388.5
1199	3.91388e+02	1.19900e+03	0.962248	389.5
1201	3.92386e+02	1.20100e+03	0.919217	390.5
1203	3.93378e+02	1.20300e+03	0.876313	391.5
1205	3.94359e+02	1.20500e+03	0.834033	392.5
1207	3.95364e+02	1.20700e+03	0.79201	393.5
1209	3.96357e+02	1.20900e+03	0.750872	394.5
1211	3.97349e+02	1.21100e+03	0.710096	395.5
1213	3.98347e+02	1.21300e+03	0.670543	396.5
1215	3.99356e+02	1.21500e+03	0.631465	397.5
1217	4.00358e+02	1.21700e+03	0.593987	398.5
1219	4.01380e+02	1.21900e+03	0.557056	399.5
1221	4.02376e+02	1.22100e+03	0.522125	400.5
1223	4.03390e+02	1.22300e+03	0.487872	401.5
1225	4.04395e+02	1.22500e+03	0.455981	402.5
1227	4.05405e+02	1.22700e+03	0.424716	403.5
1229	4.06406e+02	1.22900e+03	0.395961	404.5
1231	4.07420e+02	1.23100e+03	0.367839	405.5
1233	4.08449e+02	1.23300e+03	0.342286	406.5
1235	4.09470e+02	1.23500e+03	0.317288	407.5
1237	4.10475e+02	1.23700e+03	0.294761	408.5
1239	4.11506e+02	1.23900e+03	0.272724	409.5
1241	4.12518e+02	1.24100e+03	0.252946	410.5
1243	4.13536e+02	1.24300e+03	0.233593	411.5
1245	4.14545e+02	1.24500e+03	0.216315	412.5
1247	4.15553e+02	1.24700e+03	0.199487	413.5
1249	4.16549e+02	1.24900e+03	0.184636	414.5
1251	4.17561e+02	1.25100e+03	0.170187	415.5
1253	4.18573e+02	1.25300e+03	0.157588	416.5
1255	4.19577e+02	1.25500e+03	0.145351	417.5
1257	4.20591e+02	1.25700e+03	0.134807	418.5
1259	4.21596e+02	1.25900e+03	0.124577	419.5
1261	4.22606e+02	1.26100e+03	0.115855	420.5
1263	4.23597e+02	1.26300e+03	0.107412	421.5
1265	4.24605e+02	1.26500e+03	0.100319	422.5
1267	4.25598e+02	1.26700e+03	0.093476	423.5
1269	4.26619e+02	1.26900e+03	0.0878187	424.5
1271	4.27610e+02	1.27100e+03	0.082344	425.5
1273	4.28611e+02	1.27300e+03	0.0778462	426.5
1275	4.29611e+02	1.27500e+03	0.0734889	427.5
1277	4.30605e+02	1.27700e+03	0.069919	428.5
1279	4.31594e+02	1.27900e+03	0.0664606	429.5
1281	4.32586e+02	1.28100e+03	0.0636338	430.5
1283	4.33574e+02	1.28300e+03	0.0609052	431.5
1285	4.34560e+02	1.28500e+03	0.0587026	432.5
1287	4.35557e+02	1.28700e+03	0.0565809	433.5
1289	4.36553e+02	1.28900e+03	0.0548931	434.5
1291	4.37535e+02	1.29100e+03	0.0532563	435.5
1293	4.38521e+02	1.29300e+03	0.0519373	436.5
1295	4.39509e+02	1.29500e+03	0.0506521	437.5
1297	4.40500e+02	1.29700e+03	0.0496061	438.5
1299	4.41486e+02	1.29900e+03	0.0486079	439.5
1301	4.42484e+02	1.30100e+03	0.0478245	440.5
1303	4.43472e+02	1.30300e+03	0.0470743	441.5
1305	4.44461e+02	1.30500e+03	0.0464984	442.5
1307	4.45450e+02	1.30700e+03	0.0459415	443.5
1309	4.46436e+02	1.30900e+03	0.0455177	444.5
1311	4.47413e+02	1.31100e+03	0.0451114	445.5
1313	4.48396e+02	1.31300e+03	0.0447977	446.5
1315	4.49365e+02	1.31500e+03	0.0444625	447.5
1317	4.50363e+02	1.31700e+03	0.0441456	448.5
1319	4.51347e+02	1.31900e+03	0.0438166	449.5
1321	4.52329e+02	1.32100e+03	0.0435079	450.5
1323	4.53302e+02	1.32300e+03	0.0432497	451.5
1325	4.54290e+02	1.32500e+03	0.0430778	452.5
1327	4.55258e+02	1.32700e+03	0.0429227	453.5
1329	4.56263e+02	1.32900e+03	0.0428423	454.5
1331	4.57256e+02	1.33100e+03	0.0427625	455.5
1333	4.58232e+02	1.33300e+03	0.0427187	456.5
1335	4.59214e+02	1.33500e+03	0.0426694	457.5
1337	4.60193e+02	1.33700e+03	0.0426246	458.5
1339	4.61189e+02	1.33900e+03	0.0425651	459.5
1341	4.62173e+02	1.34100e+03	0.0424832	460.5
1343	4.63175e+02	1.34300e+03	0.0423998	461.5
1345	4.64177e+02	1.34500e+03	0.0423169	462.5
1347	4.65162e+02	1.34700e+03	0.0422498	463.5
1349	4.66142e+02	1.34900e+03	0.042212	464.5
1351	4.67112e+02	1.35100e+03	0.0421751	465.5
1353	4.68094e+02	1.35300e+03	0.0421383	466.5
1355	4.69073e+02	1.35500e+03	0.0420733	467.5
1357	4.70059e+02	1.35700e+03	0.0419632	468.5
1359	4.71023e+02	1.35900e+03	0.0418556	469.5
1361	4.71993e+02	1.36100e+03	0.0417492	470.5
1363	4.72966e+02	1.36300e+03	0.041676	471.5
1365	4.73935e+02	1.36500e+03	0.0416557	472.5
1367	4.74908e+02	1.36700e+03	0.0416386	473.5
1369	4.75886e+02	1.36900e+03	0.0416458	474.5
1371	4.76874e+02	1.37100e+03	0.0416492	475.5
1373	4.77854e+02	1.37300e+03	0.0416444	476.5
1375	4.78843e+02	1.37500e+03	0.0416221	477.5
1377	4.79821e+02	1.37700e+03	0.0415736	478.5
1379	4.80796e+02	1.37900e+03	0.0415296	479.5
1381	4.81783e+02	1.38100e+03	0.0414956	480.5
1383	4.82760e+02	1.38300e+03	0.0414776	481.5
1385	4.83735e+02	1.38500e+03	0.0414743	482.5
1387	4.84717e+02	1.38700e+03	0.0414462	483.5
1389	4.85698e+02	1.38900e+03	0.041381	484.5
1391	4.86683e+02	1.39100e+03	0.041296	485.5
1393	4.87661e+02	1.39300e+03	0.041168	486.5
1395	4.88647e+02	1.39500e+03	0.041056	487.5
1397	4.89624e+02	1.39700e+03	0.0409523	488.5
1399	4.90615e+02	1.39900e+03	0.0408649	489.5
1401	4.91585e+02	1.40100e+03	0.0408002	490.5
1403	4.92568e+02	1.40300e+03	0.0407269	491.5
1405	4.93551e+02	1.40500e+03	0.0406632	492.5
1407	4.94524e+02	1.40700e+03	0.0406056	493.5
1409	4.95513e+02	1.40900e+03	0.0405607	494.5
1411	4.96495e+02	1.41100e+03	0.040513	495.5
1413	4.97467e+02	1.41300e+03	0.0404787	496.5
1415	4.98445e+02	1.41500e+03	0.0404599	497.5
1417	4.99427e+02	1.41700e+03	0.0404694	498.5
1419	5.00389e+02	1.41900e+03	0.0404755	499.5
1421	5.01367e+02	1.42100e+03	0.0404822	500.5
1423	5.02334e+02	1.42300e+03	0.04048	501.5
1425	5.03310e+02	1.42500e+03	0.0404603	502.5
1427	5.04295e+02	1.42700e+03	0.0404424	503.5
1429	5.05259e+02	1.42900e+03	0.0404132	504.5
1431	5.06234e+02	1.43100e+03	0.0403769	505.5
1433	5.07212e+02	1.43300e+03	0.0403184	506.5
1435	5.08195e+02	1.43500e+03	0.0402547	507.5
1437	5.09172e+02	1.43700e+03	0.0401732	508.5
1439	5.10154e+02	1.43900e+03	0.0401055	509.5
1441	5.11126e+02	1.44100e+03	0.0400683	510.5
1443	5.12096e+02	1.44300e+03	0.0400488	511.5
1445	5.13064e+02	1.44500e+03	0.0400596	512.5
1447	5.14052e+02	1.44700e+03	0.0400469	513.5
1449	5.15027e+02	1.44900e+03	0.0400132	514.5
1451	5.15998e+02	1.45100e+03	0.0399699	515.5
1453	5.16980e+02	1.45300e+03	0.0399128	516.5
1455	5.17960e+02	1.45500e+03	0.0398747	517.5
1457	5.18952e+02	1.45700e+03	0.039865	518.5
1459	5.19920e+02	1.45900e+03	0.0398623	519.5
1461	5.20914e+02	1.46100e+03	0.0398673	520.5
1463	5.21875e+02	1.46300e+03	0.0398572	521.5
1465	5.22862e+02	1.46500e+03	0.0398298	522.5
1467	5.23856e+02	1.46700e+03	0.0398079	523.5
1469	5.24817e+02	1.46900e+03	0.0397767	524.5
1471	5.25819e+02	1.47100e+03	0.0397398	525.5
1473	5.26794e+02	1.47300e+03	0.0396927	526.5
1475	5.27779e+02	1.47500e+03	0.0396445	527.5
1477	5.28755e+02	1.47700e+03	0.0395875	528.5
1479	5.29743e+02	1.47900e+03	0.0395234	529.5
1481	5.30718e+02	1.48100e+03	0.0394475	530.5
1483	5.31705e+02	1.48300e+03	0.0393709	531.5
1485	5.32687e+02	1.48500e+03	0.0392971	532.5
1487	5.33674e+02	1.48700e+03	0.0392348	533.5
1489	5.34667e+02	1.48900e+03	0.0391984	534.5
1491	5.35642e+02	1.49100e+03	0.0391677	535.5
1493	5.36632e+02	1.49300e+03	0.039156	536.5
1495	5.37610e+02	1.49500e+03	0.0391384	537.5
1497	5.38598e+02	1.49700e+03	0.0391306	538.5
1499	5.39587e+02	1.49900e+03	0.0391257	539.5
1501	5.40571e+02	1.50100e+03	0.0391227	540.5
1503	5.41568e+02	1.50300e+03	0.0391148	541.5
1505	5.42557e+02	1.50500e+03	0.0390902	542.5
1507	5.43535e+02	1.50700e+03	0.0390565	543.5
1509	5.44529e+02	1.50900e+03	0.0389952	544.5
1511	5.45504e+02	1.51100e+03	0.0389349	545.5
1513	5.46477e+02	1.51300e+03	0.0388727	546.5
1515	5.47453e+02	1.51500e+03	0.0388305	547.5
1517	5.48432e+02	1.51700e+03	0.0388131	548.5
1519	5.49435e+02	1.51900e+03	0.0387881	549.5
1521	5.50430e+02	1.52100e+03	0.0387679	550.5
1523	5.51419e+02	1.52300e+03	0.0387411	551.5
1525	5.52395e+02	1.52500e+03	0.0387151	552.5
1527	5.53386e+02	1.52700e+03	0.0386923	553.5
1529	5.54372e+02	1.52900e+03	0.0386712	554.5
1531	5.55339e+02	1.53100e+03	0.0386481	555.5
1533	5.56319e+02	1.53300e+03	0.0386227	556.5
1535	5.57295e+02	1.53500e+03	0.0385978	557.5
1537	5.58286e+02	1.53700e+03	0.0385691	558.5
1539	5.59265e+02	1.53900e+03	0.038536	559.5
1541	5.60248e+02	1.54100e+03	0.0384959	560.5
1543	5.61231e+02	1.54300e+03	0.0384516	561.5
1545	5.62220e+02	1.54500e+03	0.0383944	562.5
1547	5.63196e+02	1.54700e+03	0.0383412	563.5
1549	5.64183e+02	1.54900e+03	0.038298	564.5
1551	5.65169e+02	1.55100e+03	0.0382709	565.5
1553	5.66154e+02	1.55300e+03	0.0382704	566.5
1555	5.67140e+02	1.55500e+03	0.0382709	567.5
1557	5.68116e+02	1.55700e+03	0.0382966	568.5
1559	5.69082e+02	1.55900e+03	0.0383299	569.5
1561	5.70074e+02	1.56100e+03	0.0383724	570.5
1563	5.71053e+02	1.56300e+03	0.0384007	571.5
1565	5.72048e+02	1.56500e+03	0.038413	572.5
1567	5.73041e+02	1.56700e+03	0.0384252	573.5
1569	5.74034e+02	1.56900e+03	0.0384187	574.5
1571	5.75015e+02	1.57100e+03	0.0384093	575.5
1573	5.76006e+02	1.57300e+03	0.0383845	576.5
1575	5.76998e+02	1.57500e+03	0.0383602	577.5
1577	5.78014e+02	1.57700e+03	0.0383311	578.5
1579	5.79017e+02	1.57900e+03	0.0383071	579.5
1581	5.80026e+02	1.58100e+03	0.0382919	580.5
1583	5.81039e+02	1.58300e+03	0.038285	581.5
1585	5.82004e+02	1.58500e+03	0.0382956	582.5
1587	5.82989e+02	1.58700e+03	0.0383034	583.5
1589	5.83985e+02	1.58900e+03	0.0383069	584.5
1591	5.84966e+02	1.59100e+03	0.0383055	585.5
1593	5.85962e+02	1.59300e+03	0.0383033	586.5
1595	5.86950e+02	1.59500e+03	0.0383161	587.5
1597	5.87944e+02	1.59700e+03	0.038336	588.5
1599	5.88954e+02	1.59900e+03	0.0383399	589.5
1601	5.89951e+02	1.60100e+03	0.0383243	590.5
1603	5.90956e+02	1.60300e+03	0.0383101	591.5
1605	5.91970e+02	1.60500e+03	0.0382954	592.5
1607	5.92989e+02	1.60700e+03	0.0382981	593.5
1609	5.94007e+02	1.60900e+03	0.0383225	594.5
1611	5.95050e+02	1.61100e+03	0.0383367	595.5
1613	5.96074e+02	1.61300e+03	0.0383471	596.5
1615	5.97131e+02	1.61500e+03	0.0383547	597.5
1617	5.98223e+02	1.61700e+03	0.0383543	598.5
1619	6.00161e+02	1.61900e+03	0.0383525	599.5
1621	6.01205e+02	1.62100e+03	0.0383405	600.5
1623	6.02189e+02	1.62300e+03	0.0383272	601.5
1625	6.03224e+02	1.62500e+03	0.0383096	602.5
1627	6.04248e+02	1.62700e+03	0.0383046	603.5
1629	6.05251e+02	1.62900e+03	0.0383111	604.5
1631	6.06203e+02	1.63100e+03	0.0383143	605.5
1633	6.07147e+02	1.63300e+03	0.0383188	606.5
1635	6.08119e+02	1.63500e+03	0.0383163	607.5
1637	6.09083e+02	1.63700e+03	0.0382992	608.5
1639	6.10061e+02	1.63900e+03	0.0382875	609.5
1641	6.11044e+02	1.64100e+03	0.038288	610.5
1643	6.12034e+02	1.64300e+03	0.0383052	611.5
1645	6.13024e+02	1.64500e+03	0.0383409	612.5
1647	6.13983e+02	1.64700e+03	0.0383611	613.5
1649	6.14974e+02	1.64900e+03	0.0383594	614.5
1651	6.15939e+02	1.65100e+03	0.038348	615.5
1653	6.16942e+02	1.65300e+03	0.0383127	616.5
1655	6.17921e+02	1.65500e+03	0.0382874	617.5
1657	6.18924e+02	1.65700e+03	0.0382641	618.5
1659	6.19898e+02	1.65900e+03	0.0382435	619.5
1661	6.20870e+02	1.66100e+03	0.0382282	620.5
1663	6.21846e+02	1.66300e+03	0.0382145	621.5
1665	6.22811e+02	1.66500e+03	0.0382154	622.5
1667	6.23790e+02	1.66700e+03	0.0382271	623.5
1669	6.24783e+02	1.66900e+03	0.0382501	624.5
1671	6.25760e+02	1.67100e+03	0.0382599	625.5
1673	6.26772e+02	1.67300e+03	0.0382546	626.5
1675	6.27754e+02	1.67500e+03	0.0382501	627.5
1677	6.28763e+02	1.67700e+03	0.0382418	628.5
1679	6.29763e+02	1.67900e+03	0.0382371	629.5
1681	6.30765e+02	1.68100e+03	0.0382337	630.5
1683	6.31730e+02	1.68300e+03	0.0382324	631.5
1685	6.32714e+02	1.68500e+03	0.0382396	632.5
1687	6.33710e+02	1.68700e+03	0.0382552	633.5
1689	6.34706e+02	1.68900e+03	0.0382795	634.5
1691	6.35711e+02	1.69100e+03	0.0382911	635.5
1693	6.36692e+02	1.69300e+03	0.038285	636.5
1695	6.37683e+02	1.69500e+03	0.0382793	637.5
1697	6.38671e+02	1.69700e+03	0.0382635	638.5
1699	6.39662e+02	1.69900e+03	0.0382498	639.5
1701	6.40659e+02	1.70100e+03	0.0382223	640.5
1703	6.41650e+02	1.70300e+03	0.0381813	641.5
1705	6.42622e+02	1.70500e+03	0.0381245	642.5
1707	6.43599e+02	1.70700e+03	0.03809	643.5
1709	6.44583e+02	1.70900e+03	0.0380861	644.5
1711	6.45593e+02	1.71100e+03	0.0380912	645.5
1713	6.46612e+02	1.71300e+03	0.0381169	646.5
1715	6.47600e+02	1.71500e+03	0.0381297	647.5
1717	6.48607e+02	1.71700e+03	0.0381408	648.5
1719	6.49612e+02	1.71900e+03	0.038153	649.5
1721	6.50596e+02	1.72100e+03	0.0381632	650.5
1723	6.51604e+02	1.72300e+03	0.0381608	651.5
1725	6.52573e+02	1.72500e+03	0.0381392	652.5
1727	6.53555e+02	1.72700e+03	0.0381161	653.5
1729	6.54551e+02	1.72900e+03	0.0380828	654.5
1731	6.55538e+02	1.73100e+03	0.0380602	655.5
1733	6.56519e+02	1.73300e+03	0.038055	656.5
1735	6.57527e+02	1.73500e+03	0.0380553	657.5
1737	6.58527e+02	1.73700e+03	0.0380754	658.5
1739	6.59536e+02	1.73900e+03	0.0380925	659.5
1741	6.60509e+02	1.74100e+03	0.038116	660.5
1743	6.61492e+02	1.74300e+03	0.038133	661.5
1745	6.62468e+02	1.74500e+03	0.0381254	662.5
1747	6.63447e+02	1.74700e+03	0.0380943	663.5
1749	6.64424e+02	1.74900e+03	0.0380372	664.5
1751	6.65408e+02	1.75100e+03	0.0380118	665.5
1753	6.66390e+02	1.75300e+03	0.0380268	666.5
1755	6.67376e+02	1.75500e+03	0.0380524	667.5
1757	6.68362e+02	1.75700e+03	0.0381007	668.5
1759	6.69336e+02	1.75900e+03	0.0381204	669.5
1761	6.70328e+02	1.76100e+03	0.0381068	670.5
1763	6.71308e+02	1.76300e+03	0.0380906	671.5
1765	6.72293e+02	1.76500e+03	0.0380624	672.5
1767	6.73281e+02	1.76700e+03	0.0380433	673.5
1769	6.74281e+02	1.76900e+03	0.038038	674.5
1771	6.75277e+02	1.77100e+03	0.038045	675.5
1773	6.76260e+02	1.77300e+03	0.0381042	676.5
1775	6.77254e+02	1.77500e+03	0.0381897	677.5
1777	6.78211e+02	1.77700e+03	0.0383326	678.5
1779	6.79199e+02	1.77900e+03	0.038448	679.5
1781	6.80178e+02	1.78100e+03	0.0385287	680.5
1783	6.81171e+02	1.78300e+03	0.038569	681.5
1785	6.82147e+02	1.78500e+03	0.0385283	682.5
1787	6.83126e+02	1.78700e+03	0.0384857	683.5
1789	6.84116e+02	1.78900e+03	0.0384069	684.5
1791	6.85095e+02	1.79100e+03	0.0383458	685.5
1793	6.86087e+02	1.79300e+03	0.0382951	686.5
1795	6.86799e+02	1.79500e+03	0.0382555	687.5
1797	6.87275e+02	1.79700e+03	0.038233	688.5
1799	6.88005e+02	1.79900e+03	0.0382055	689.5
1801	6.88713e+02	1.80100e+03	0.0381878	690.5
1803	6.89360e+02	1.80300e+03	0.0381487	691.5
1805	6.89961e+02	1.80500e+03	0.0380991	692.5
1807	6.90531e+02	1.80700e+03	0.0380479	693.5
1809	6.91062e+02	1.80900e+03	0.0380068	694.5
1811	6.91555e+02	1.81100e+03	0.0379926	695.5
1813	6.92048e+02	1.81300e+03	0.0380218	696.5
1815	6.92502e+02	1.81500e+03	0.0380553	697.5
1817	6.92929e+02	1.81700e+03	0.0381066	698.5
1819	6.93315e+02	1.81900e+03	0.0381449	699.5
1821	6.93697e+02	1.82100e+03	0.0381548	700.0
1823	6.94036e+02	1.82300e+03	0.0381531	700.0
1825	6.94374e+02	1.82500e+03	0.0381326	700.0
1827	6.94682e+02	1.82700e+03	0.0381276	700.0
1829	6.94967e+02	1.82900e+03	0.0381313	700.0
1831	6.95244e+02	1.83100e+03	0.0381358	700.0
1833	6.95517e+02	1.83300e+03	0.0381395	700.0
1835	6.95710e+02	1.83500e+03	0.0381371	700.0
1837	6.95919e+02	1.83700e+03	0.0381187	700.0
1839	6.96111e+02	1.83900e+03	0.0380978	700.0
1841	6.96312e+02	1.84100e+03	0.0380722	700.0
1843	6.96497e+02	1.84300e+03	0.0380641	700.0
1845	6.96662e+02	1.84500e+03	0.0380729	700.0
1847	6.96834e+02	1.84700e+03	0.0380726	700.0
1849	6.97008e+02	1.84900e+03	0.0380749	700.0
1851	6.97157e+02	1.85100e+03	0.038079	700.0
1853	6.97301e+02	1.85300e+03	0.0380839	700.0
1855	6.97440e+02	1.85500e+03	0.0380892	700.0
1857	6.97563e+02	1.85700e+03	0.0380819	700.0
1859	6.97692e+02	1.85900e+03	0.0380713	700.0
1861	6.97801e+02	1.86100e+03	0.0380433	700.0
1863	6.97928e+02	1.86300e+03	0.0380146	700.0
1865	6.98037e+02	1.86500e+03	0.0379894	700.0
1867	6.98141e+02	1.86700e+03	0.0379803	700.0
1869	6.98245e+02	1.86900e+03	0.0379966	700.0
1871	6.98330e+02	1.87100e+03	0.0380172	700.0
1873	6.98423e+02	1.87300e+03	0.0380506	700.0
1875	6.98498e+02	1.87500e+03	0.0380726	700.0
1877	6.98573e+02	1.87700e+03	0.0380837	700.0
1879	6.98649e+02	1.87900e+03	0.0380935	700.0
1881	6.98725e+02	1.88100e+03	0.0380957	700.0
1883	6.98790e+02	1.88300e+03	0.0380987	700.0
1885	6.98858e+02	1.88500e+03	0.0380978	700.0
1887	6.98915e+02	1.88700e+03	0.0380942	700.0
1889	6.98973e+02	1.88900e+03	0.0380816	700.0
1891	6.99027e+02	1.89100e+03	0.0380589	700.0
1893	6.99085e+02	1.89300e+03	0.0380369	700.0
1895	6.99129e+02	1.89500e+03	0.0380285	700.0
1897	6.99181e+02	1.89700e+03	0.0380394	700.0
1899	6.99210e+02	1.89900e+03	0.0380517	700.0
1901	6.99268e+02	1.90100e+03	0.0380718	700.0
1903	6.99309e+02	1.90300e+03	0.0380848	700.0
1905	6.99350e+02	1.90500e+03	0.0380909	700.0
1907	6.99382e+02	1.90700e+03	0.0380965	700.0
1909	6.99415e+02	1.90900e+03	0.0380942	700.0
1911	6.99453e+02	1.91100e+03	0.0380859	700.0
1913	6.99488e+02	1.91300e+03	0.0380635	700.0
1915	6.99515e+02	1.91500e+03	0.0380514	700.0
1917	6.99553e+02	1.91700e+03	0.0380423	700.0
1919	6.99588e+02	1.91900e+03	0.0380407	700.0
1921	6.99616e+02	1.92100e+03	0.0380554	700.0
1923	6.99635e+02	1.92300e+03	0.0380669	700.0
1925	6.99663e+02	1.92500e+03	0.0380794	700.0
1927	6.99694e+02	1.92700e+03	0.0380869	700.0
1929	6.99709e+02	1.92900e+03	0.0380797	700.0
1931	6.99735e+02	1.93100e+03	0.0380618	700.0
1933	6.99763e+02	1.93300e+03	0.038016	700.0
1935	6.99777e+02	1.93500e+03	0.0379686	700.0
1937	6.99795e+02	1.93700e+03	0.0379128	700.0
1939	6.99827e+02	1.93900e+03	0.037881	700.0
1941	6.99839e+02	1.94100e+03	0.0378786	700.0
1943	6.99859e+02	1.94300e+03	0.0378778	700.0
1945	6.99881e+02	1.94500e+03	0.0378944	700.0
1947	6.99893e+02	1.94700e+03	0.037903	700.0
1949	6.99904e+02	1.94900e+03	0.0379151	700.0
1951	6.99914e+02	1.95100e+03	0.0379357	700.0
1953	6.99928e+02	1.95300e+03	0.0379717	700.0
1955	6.99932e+02	1.95500e+03	0.0380063	700.0
1957	6.99962e+02	1.95700e+03	0.0380466	700.0
1959	6.99965e+02	1.95900e+03	0.0380917	700.0
1961	6.99965e+02	1.96100e+03	0.0381267	700.0
1963	6.99983e+02	1.96300e+03	0.0381433	700.0
1965	6.99993e+02	1.96500e+03	0.038123	700.0
1967	6.99994e+02	1.96700e+03	0.0381037	700.0
1969	7.00007e+02	1.96900e+03	0.0380765	700.0
1971	7.00013e+02	1.97100e+03	0.0380763	700.0
1973	7.00018e+02	1.97300e+03	0.0381334	700.0
1975	7.00027e+02	1.97500e+03	0.0381974	700.0
1977	7.00035e+02	1.97700e+03	0.0382854	700.0
1979	7.00041e+02	1.97900e+03	0.0383409	700.0
1981	7.00055e+02	1.98100e+03	0.0383445	700.0
1983	7.00055e+02	1.98300e+03	0.0383287	700.0
1985	7.00053e+02	1.98500e+03	0.0382584	700.0
1987	7.00062e+02	1.98700e+03	0.0381979	700.0
1989	7.00075e+02	1.98900e+03	0.0381311	700.0
1991	7.00088e+02	1.99100e+03	0.0380765	700.0
1993	7.00093e+02	1.99300e+03	0.038034	700.0
1995	7.00089e+02	1.99500e+03	0.0379856	700.0
1997	7.00103e+02	1.99700e+03	0.0379321	700.0
1999	7.00101e+02	1.99900e+03	0.0378883	700.0
2001	7.00111e+02	2.00100e+03	0.0378698	700.0
2003	7.00106e+02	2.00300e+03	0.0378761	700.0
2005	7.00109e+02	2.00500e+03	0.0379198	700.0
2007	7.00122e+02	2.00700e+03	0.037948	700.0
2009	7.00115e+02	2.00900e+03	0.0379703	700.0
2011	7.00125e+02	2.01100e+03	0.0379824	700.0
2013	7.00125e+02	2.01300e+03	0.0379702	700.0
2015	7.00125e+02	2.01500e+03	0.0379523	700.0
2017	7.00127e+02	2.01700e+03	0.0379172	700.0
2019	7.00121e+02	2.01900e+03	0.037891	700.0
2021	7.00141e+02	2.02100e+03	0.0378718	700.0
2023	7.00139e+02	2.02300e+03	0.0378538	700.0
2025	7.00146e+02	2.02500e+03	0.0378348	700.0
2027	7.00139e+02	2.02700e+03	0.0378074	700.0
2029	7.00145e+02	2.02900e+03	0.0377682	700.0
2031	7.00145e+02	2.03100e+03	0.0377324	700.0
2033	7.00148e+02	2.03300e+03	0.0376979	700.0
2035	7.00155e+02	2.03500e+03	0.0376773	700.0
2037	7.00154e+02	2.03700e+03	0.0376911	700.0
2039	7.00156e+02	2.03900e+03	0.0377244	700.0
2041	7.00157e+02	2.04100e+03	0.0377889	700.0
2043	7.00159e+02	2.04300e+03	0.0378338	700.0
2045	7.00159e+02	2.04500e+03	0.0378645	700.0
2047	7.00172e+02	2.04700e+03	0.0378897	700.0
2049	7.00175e+02	2.04900e+03	0.0379002	700.0
2051	7.00169e+02	2.05100e+03	0.0379067	700.0
2053	7.00173e+02	2.05300e+03	0.0378871	700.0
2055	7.00172e+02	2.05500e+03	0.0378673	700.0
2057	7.00169e+02	2.05700e+03	0.0378345	700.0
2059	7.00174e+02	2.05900e+03	0.0378237	700.0
2061	7.00176e+02	2.06100e+03	0.0378498	700.0
2063	7.00180e+02	2.06300e+03	0.0378765	700.0
2065	7.00172e+02	2.06500e+03	0.0379056	700.0
2067	7.00178e+02	2.06700e+03	0.0379111	700.0
2069	7.00180e+02	2.06900e+03	0.0378842	700.0
2071	7.00189e+02	2.07100e+03	0.0378626	700.0
2073	7.00177e+02	2.07300e+03	0.0378332	700.0
2075	7.00183e+02	2.07500e+03	0.0378088	700.0
2077	7.00183e+02	2.07700e+03	0.0378016	700.0
2079	7.00185e+02	2.07900e+03	0.0377956	700.0
2081	7.00191e+02	2.08100e+03	0.0377956	700.0
2083	7.00188e+02	2.08300e+03	0.0377868	700.0
2085	7.00183e+02	2.08500e+03	0.0377814	700.0
2087	7.00190e+02	2.08700e+03	0.037801	700.0
2089	7.00193e+02	2.08900e+03	0.037849	700.0
2091	7.00189e+02	2.09100e+03	0.0378957	700.0
2093	7.00184e+02	2.09300e+03	0.0379526	700.0
2095	7.00190e+02	2.09500e+03	0.0380063	700.0
2097	7.00190e+02	2.09700e+03	0.0380425	700.0
2099	7.00184e+02	2.09900e+03	0.0380753	700.0
2101	7.00192e+02	2.10100e+03	0.0380764	700.0
2103	7.00193e+02	2.10300e+03	0.0380661	700.0
2105	7.00195e+02	2.10500e+03	0.0380285	700.0
2107	7.00186e+02	2.10700e+03	0.0379985	700.0
2109	7.00186e+02	2.10900e+03	0.0379752	700.0
2111	7.00182e+02	2.11100e+03	0.0379664	700.0
2113	7.00184e+02	2.11300e+03	0.0379827	700.0
2115	7.00197e+02	2.11500e+03	0.037996	700.0
2117	7.00187e+02	2.11700e+03	0.0380111	700.0
2119	7.00194e+02	2.11900e+03	0.0380167	700.0
2121	7.00186e+02	2.12100e+03	0.0380098	700.0
2123	7.00193e+02	2.12300e+03	0.0380027	700.0
2125	7.00191e+02	2.12500e+03	0.0379868	700.0
2127	7.00194e+02	2.12700e+03	0.0379678	700.0
2129	7.00184e+02	2.12900e+03	0.0379386	700.0
2131	7.00193e+02	2.13100e+03	0.0379095	700.0
2133	7.00192e+02	2.13300e+03	0.0378824	700.0
2135	7.00194e+02	2.13500e+03	0.0378748	700.0
2137	7.00191e+02	2.13700e+03	0.0378876	700.0
2139	7.00188e+02	2.13900e+03	0.0378956	700.0
2141	7.00183e+02	2.14100e+03	0.0378904	700.0
2143	7.00189e+02	2.14300e+03	0.0378698	700.0
2145	7.00187e+02	2.14500e+03	0.0378365	700.0
2147	7.00178e+02	2.14700e+03	0.0378244	700.0
2149	7.00185e+02	2.14900e+03	0.0378374	700.0
2151	7.00185e+02	2.15100e+03	0.037847	700.0
2153	7.00188e+02	2.15300e+03	0.0378568	700.0
2155	7.00177e+02	2.15500e+03	0.0378535	700.0
2157	7.00180e+02	2.15700e+03	0.0378288	700.0
2159	7.00184e+02	2.15900e+03	0.0378034	700.0
2161	7.00186e+02	2.16100e+03	0.0377708	700.0
2163	7.00186e+02	2.16300e+03	0.0377578	700.0
2165	7.00174e+02	2.16500e+03	0.0377651	700.0
2167	7.00176e+02	2.16700e+03	0.0377726	700.0
2169	7.00177e+02	2.16900e+03	0.0377901	700.0
2171	7.00177e+02	2.17100e+03	0.0377983	700.0
2173	7.00178e+02	2.17300e+03	0.0377983	700.0
2175	7.00180e+02	2.17500e+03	0.0378	700.0
2177	7.00185e+02	2.17700e+03	0.0377998	700.0
2179	7.00172e+02	2.17900e+03	0.0378	700.0
2181	7.00175e+02	2.18100e+03	0.0378027	700.0
2183	7.00180e+02	2.18300e+03	0.0378161	700.0
2185	7.00163e+02	2.18500e+03	0.0378295	700.0
2187	7.00170e+02	2.18700e+03	0.0378319	700.0
2189	7.00168e+02	2.18900e+03	0.0378168	700.0
2191	7.00172e+02	2.19100e+03	0.0377964	700.0
2193	7.00166e+02	2.19300e+03	0.0377637	700.0
2195	7.00172e+02	2.19500e+03	0.037739	700.0
2197	7.00166e+02	2.19700e+03	0.0377185	700.0
2199	7.00159e+02	2.19900e+03	0.0376967	700.0
2201	7.00163e+02	2.20100e+03	0.0376744	700.0
2203	7.00159e+02	2.20300e+03	0.0376519	700.0
2205	7.00164e+02	2.20500e+03	0.0376322	700.0
2207	7.00157e+02	2.20700e+03	0.0376169	700.0
2209	7.00156e+02	2.20900e+03	0.0376251	700.0
2211	7.00158e+02	2.21100e+03	0.0376537	700.0
2213	7.00150e+02	2.21300e+03	0.037718	700.0
2215	7.00150e+02	2.21500e+03	0.0377794	700.0
2217	7.00153e+02	2.21700e+03	0.0378459	700.0
2219	7.00152e+02	2.21900e+03	0.0378951	700.0
2221	7.00149e+02	2.22100e+03	0.0379184	700.0
2223	7.00147e+02	2.22300e+03	0.037924	700.0
2225	7.00149e+02	2.22500e+03	0.037882	700.0
2227	7.00147e+02	2.22700e+03	0.037829	700.0
2229	7.00144e+02	2.22900e+03	0.0377434	700.0
2231	7.00149e+02	2.23100e+03	0.0376744	700.0
2233	7.00137e+02	2.23300e+03	0.0376175	700.0
2235	7.00146e+02	2.23500e+03	0.0375688	700.0
2237	7.00152e+02	2.23700e+03	0.037545	700.0
2239	7.00139e+02	2.23900e+03	0.0375379	700.0
2241	7.00137e+02	2.24100e+03	0.0375565	700.0
2243	7.00147e+02	2.24300e+03	0.0375697	700.0
2245	7.00142e+02	2.24500e+03	0.0375874	700.0
2247	7.00135e+02	2.24700e+03	0.037597	700.0
2249	7.00140e+02	2.24900e+03	0.0375976	700.0
2251	7.00140e+02	2.25100e+03	0.0376009	700.0
2253	7.00121e+02	2.25300e+03	0.0376202	700.0
2255	7.00132e+02	2.25500e+03	0.0376568	700.0
2257	7.00133e+02	2.25700e+03	0.0377115	700.0
2259	7.00123e+02	2.25900e+03	0.0377501	700.0
2261	7.00132e+02	2.26100e+03	0.0377699	700.0
2263	7.00123e+02	2.26300e+03	0.0377754	700.0
2265	7.00136e+02	2.26500e+03	0.0377435	700.0
2267	7.00131e+02	2.26700e+03	0.0377082	700.0
2269	7.00128e+02	2.26900e+03	0.0376535	700.0
2271	7.00129e+02	2.27100e+03	0.0376112	700.0
2273	7.00134e+02	2.27300e+03	0.0375857	700.0
2275	7.00131e+02	2.27500e+03	0.0375715	700.0
2277	7.00127e+02	2.27700e+03	0.0375859	700.0
2279	7.00125e+02	2.27900e+03	0.0376025	700.0
2281	7.00120e+02	2.28100e+03	0.0376521	700.0
2283	7.00122e+02	2.28300e+03	0.037707	700.0
2285	7.00125e+02	2.28500e+03	0.0377659	700.0
2287	7.00123e+02	2.28700e+03	0.0377968	700.0
2289	7.00119e+02	2.28900e+03	0.0377782	700.0
2291	7.00126e+02	2.29100e+03	0.0377467	700.0
2293	7.00122e+02	2.29300e+03	0.0376713	700.0
2295	7.00120e+02	2.29500e+03	0.0376042	700.0
2297	7.00112e+02	2.29700e+03	0.0375351	700.0
2299	7.00122e+02	2.29900e+03	0.03748	700.0
2301	7.00109e+02	2.30100e+03	0.0374508	700.0
2303	7.00111e+02	2.30300e+03	0.0374424	700.0
2305	7.00110e+02	2.30500e+03	0.0374697	700.0
2307	7.00115e+02	2.30700e+03	0.0374953	700.0
2309	7.00110e+02	2.30900e+03	0.0375348	700.0
2311	7.00119e+02	2.31100e+03	0.037562	700.0
2313	7.00118e+02	2.31300e+03	0.0375764	700.0
2315	7.00113e+02	2.31500e+03	0.0375894	700.0
2317	7.00117e+02	2.31700e+03	0.0376034	700.0
2319	7.00109e+02	2.31900e+03	0.0376288	700.0
2321	7.00111e+02	2.32100e+03	0.0376597	700.0
2323	7.00110e+02	2.32300e+03	0.0376858	700.0
2325	7.00106e+02	2.32500e+03	0.0376988	700.0
2327	7.00107e+02	2.32700e+03	0.0377018	700.0
2329	7.00093e+02	2.32900e+03	0.0376921	700.0
2331	7.00107e+02	2.33100e+03	0.0376881	700.0
2333	7.00098e+02	2.33300e+03	0.03769	700.0
2335	7.00107e+02	2.33500e+03	0.0376872	700.0
2337	7.00101e+02	2.33700e+03	0.037679	700.0
2339	7.00105e+02	2.33900e+03	0.0376706	700.0
2341	7.00100e+02	2.34100e+03	0.0376622	700.0
2343	7.00103e+02	2.34300e+03	0.0376566	700.0
2345	7.00106e+02	2.34500e+03	0.0376541	700.0
2347	7.00100e+02	2.34700e+03	0.0376431	700.0
2349	7.00097e+02	2.34900e+03	0.0376385	700.0
2351	7.00106e+02	2.35100e+03	0.0376483	700.0
2353	7.00092e+02	2.35300e+03	0.0376719	700.0
2355	7.00094e+02	2.35500e+03	0.0376884	700.0
2357	7.00104e+02	2.35700e+03	0.0377103	700.0
2359	7.00087e+02	2.35900e+03	0.0377275	700.0
2361	7.00101e+02	2.36100e+03	0.0377357	700.0
2363	7.00097e+02	2.36300e+03	0.0377298	700.0
2365	7.00098e+02	2.36500e+03	0.037695	700.0
2367	7.00099e+02	2.36700e+03	0.0376571	700.0
2369	7.00096e+02	2.36900e+03	0.0376023	700.0
2371	7.00094e+02	2.37100e+03	0.0375559	700.0
2373	7.00104e+02	2.37300e+03	0.0375266	700.0
2375	7.00095e+02	2.37500e+03	0.0375156	700.0
2377	7.00095e+02	2.37700e+03	0.0375455	700.0
2379	7.00097e+02	2.37900e+03	0.0375787	700.0
2381	7.00091e+02	2.38100e+03	0.0376324	700.0
2383	7.00088e+02	2.38300e+03	0.0376741	700.0
2385	7.00083e+02	2.38500e+03	0.0377151	700.0
2387	7.00096e+02	2.38700e+03	0.0377522	700.0
2389	7.00092e+02	2.38900e+03	0.0377693	700.0
2391	7.00088e+02	2.39100e+03	0.0377716	700.0
2393	7.00092e+02	2.39300e+03	0.037741	700.0
2395	7.00095e+02	2.39500e+03	0.0377129	700.0
2397	7.00093e+02	2.39700e+03	0.0376805	700.0
2399	7.00096e+02	2.39900e+03	0.0376615	700.0
2401	7.00094e+02	2.40100e+03	0.0376599	700.0
2403	7.00085e+02	2.40300e+03	0.0376672	700.0
2405	7.00100e+02	2.40500e+03	0.0376844	700.0
2407	7.00085e+02	2.40700e+03	0.0376914	700.0
2409	7.00095e+02	2.40900e+03	0.0376881	700.0
2411	7.00092e+02	2.41100e+03	0.0376775	700.0
2413	7.00084e+02	2.41300e+03	0.0376568	700.0
2415	7.00092e+02	2.41500e+03	0.0376465	700.0
2417	7.00089e+02	2.41700e+03	0.0376498	700.0
2419	7.00092e+02	2.41900e+03	0.0376567	700.0
2421	7.00081e+02	2.42100e+03	0.0376727	700.0
2423	7.00091e+02	2.42300e+03	0.0376827	700.0
2425	7.00089e+02	2.42500e+03	0.0376833	700.0
2427	7.00092e+02	2.42700e+03	0.0376825	700.0
2429	7.00081e+02	2.42900e+03	0.0376753	700.0
2431	7.00083e+02	2.43100e+03	0.0376619	700.0
2433	7.00081e+02	2.43300e+03	0.0376391	700.0
2435	7.00084e+02	2.43500e+03	0.0376151	700.0
2437	7.00071e+02	2.43700e+03	0.0375954	700.0
2439	7.00085e+02	2.43900e+03	0.037591	700.0
2441	7.00072e+02	2.44100e+03	0.0375999	700.0
2443	7.00072e+02	2.44300e+03	0.0375912	700.0
2445	7.00065e+02	2.44500e+03	0.037583	700.0
2447	7.00076e+02	2.44700e+03	0.0375932	700.0
2449	7.00067e+02	2.44900e+03	0.0376233	700.0
2451	7.00071e+02	2.45100e+03	0.0376496	700.0
2453	7.00067e+02	2.45300e+03	0.0376797	700.0
2455	7.00070e+02	2.45500e+03	0.0376964	700.0
2457	7.00072e+02	2.45700e+03	0.0376965	700.0
2459	7.00061e+02	2.45900e+03	0.0377	700.0
2461	7.00073e+02	2.46100e+03	0.0376855	700.0
2463	7.00068e+02	2.46300e+03	0.0376644	700.0
2465	7.00072e+02	2.46500e+03	0.0376311	700.0
2467	7.00067e+02	2.46700e+03	0.0376049	700.0
2469	7.00067e+02	2.46900e+03	0.0375906	700.0
2471	7.00064e+02	2.47100e+03	0.0375871	700.0
2473	7.00062e+02	2.47300e+03	0.0376069	700.0
2475	7.00069e+02	2.47500e+03	0.0376241	700.0
2477	7.00063e+02	2.47700e+03	0.0376405	700.0
2479	7.00069e+02	2.47900e+03	0.0376456	700.0
2481	7.00061e+02	2.48100e+03	0.0376401	700.0
2483	7.00062e+02	2.48300e+03	0.0376416	700.0
2485	7.00061e+02	2.48500e+03	0.0376349	700.0
2487	7.00065e+02	2.48700e+03	0.0376134	700.0
2489	7.00057e+02	2.48900e+03	0.0375775	700.0
2491	7.00066e+02	2.49100e+03	0.0375494	700.0
2493	7.00054e+02	2.49300e+03	0.0375313	700.0
2495	7.00060e+02	2.49500e+03	0.0375328	700.0
2497	7.00061e+02	2.49700e+03	0.0375546	700.0
2499	7.00057e+02	2.49900e+03	0.0375696	700.0
2501	7.00061e+02	2.50100e+03	0.0375808	700.0
2503	7.00061e+02	2.50300e+03	0.037581	700.0
2505	7.00056e+02	2.50500e+03	0.0375707	700.0
2507	7.00060e+02	2.50700e+03	0.0375752	700.0
2509	7.00052e+02	2.50900e+03	0.0375845	700.0
2511	7.00051e+02	2.51100e+03	0.0375921	700.0
2513	7.00054e+02	2.51300e+03	0.0376043	700.0
2515	7.00048e+02	2.51500e+03	0.0376173	700.0
2517	7.00067e+02	2.51700e+03	0.037632	700.0
2519	7.00048e+02	2.51900e+03	0.0376428	700.0
2521	7.00059e+02	2.52100e+03	0.0376435	700.0
2523	7.00052e+02	2.52300e+03	0.0376391	700.0
2525	7.00049e+02	2.52500e+03	0.0376249	700.0
2527	7.00047e+02	2.52700e+03	0.0376156	700.0
2529	7.00049e+02	2.52900e+03	0.0376092	700.0
2531	7.00046e+02	2.53100e+03	0.0376036	700.0
2533	7.00040e+02	2.53300e+03	0.0376005	700.0
2535	7.00051e+02	2.53500e+03	0.0376067	700.0
2537	7.00057e+02	2.53700e+03	0.037622	700.0
2539	7.00047e+02	2.53900e+03	0.0376452	700.0
2541	7.00042e+02	2.54100e+03	0.0376721	700.0
2543	7.00052e+02	2.54300e+03	0.0376893	700.0
2545	7.00041e+02	2.54500e+03	0.0376953	700.0
2547	7.00044e+02	2.54700e+03	0.0376991	700.0
2549	7.00046e+02	2.54900e+03	0.0376924	700.0
2551	7.00053e+02	2.55100e+03	0.0376883	700.0
2553	7.00044e+02	2.55300e+03	0.0376888	700.0
2555	7.00048e+02	2.55500e+03	0.0377049	700.0
2557	7.00047e+02	2.55700e+03	0.0377591	700.0
2559	7.00050e+02	2.55900e+03	0.0378243	700.0
2561	7.00046e+02	2.56100e+03	0.037905	700.0
2563	7.00042e+02	2.56300e+03	0.0379576	700.0
2565	7.00043e+02	2.56500e+03	0.0379657	700.0
2567	7.00044e+02	2.56700e+03	0.0379458	700.0
2569	7.00035e+02	2.56900e+03	0.0378723	700.0
2571	7.00042e+02	2.57100e+03	0.0378065	700.0
2573	7.00036e+02	2.57300e+03	0.0377316	700.0
2575	7.00048e+02	2.57500e+03	0.0376734	700.0
2577	7.00039e+02	2.57700e+03	0.0376359	700.0
2579	7.00039e+02	2.57900e+03	0.0376	700.0
2581	7.00047e+02	2.58100e+03	0.0375814	700.0
2583	7.00036e+02	2.58300e+03	0.0375721	700.0
2585	7.00039e+02	2.58500e+03	0.0376054	700.0
2587	7.00034e+02	2.58700e+03	0.0376479	700.0
2589	7.00035e+02	2.58900e+03	0.0377205	700.0
2591	7.00033e+02	2.59100e+03	0.0377733	700.0
2593	7.00035e+02	2.59300e+03	0.0378051	700.0
2595	7.00035e+02	2.59500e+03	0.0378267	700.0
2597	7.00037e+02	2.59700e+03	0.0378222	700.0
2599	7.00026e+02	2.59900e+03	0.03782	700.0
2601	7.00027e+02	2.60100e+03	0.0378055	700.0
2603	7.00029e+02	2.60300e+03	0.0377826	700.0
2605	7.00037e+02	2.60500e+03	0.0377374	700.0
2607	7.00031e+02	2.60700e+03	0.0376949	700.0
2609	7.00035e+02	2.60900e+03	0.0376498	700.0
2611	7.00020e+02	2.61100e+03	0.0376207	700.0
2613	7.00031e+02	2.61300e+03	0.0376169	700.0
2615	7.00026e+02	2.61500e+03	0.0376149	700.0
2617	7.00023e+02	2.61700e+03	0.0376321	700.0
2619	7.00022e+02	2.61900e+03	0.0376595	700.0
2621	7.00023e+02	2.62100e+03	0.0376937	700.0
2623	7.00025e+02	2.62300e+03	0.0377214	700.0
2625	7.00032e+02	2.62500e+03	0.0377452	700.0
2627	7.00029e+02	2.62700e+03	0.0377469	700.0
2629	7.00034e+02	2.62900e+03	0.0377144	700.0
2631	7.00021e+02	2.63100e+03	0.0376776	700.0
2633	7.00022e+02	2.63300e+03	0.0376256	700.0
2635	7.00028e+02	2.63500e+03	0.0375971	700.0
2637	7.00031e+02	2.63700e+03	0.0375971	700.0
2639	7.00032e+02	2.63900e+03	0.0376002	700.0
2641	7.00022e+02	2.64100e+03	0.0376268	700.0
2643	7.00025e+02	2.64300e+03	0.037656	700.0
2645	7.00034e+02	2.64500e+03	0.0376956	700.0
2647	7.00023e+02	2.64700e+03	0.0377239	700.0
2649	7.00027e+02	2.64900e+03	0.0377312	700.0
2651	7.00019e+02	2.65100e+03	0.0377273	700.0
2653	7.00016e+02	2.65300e+03	0.0376981	700.0
2655	7.00021e+02	2.65500e+03	0.0376773	700.0
2657	7.00017e+02	2.65700e+03	0.037662	700.0
2659	7.00023e+02	2.65900e+03	0.0376549	700.0
2661	7.00017e+02	2.66100e+03	0.0376604	700.0
2663	7.00014e+02	2.66300e+03	0.0376638	700.0
2665	7.00020e+02	2.66500e+03	0.0376741	700.0
2667	7.00012e+02	2.66700e+03	0.0376932	700.0
2669	7.00021e+02	2.66900e+03	0.0377411	700.0
2671	7.00026e+02	2.67100e+03	0.0377879	700.0
2673	7.00022e+02	2.67300e+03	0.0378375	700.0
2675	7.00015e+02	2.67500e+03	0.0378627	700.0
2677	7.00018e+02	2.67700e+03	0.0378486	700.0
2679	7.00009e+02	2.67900e+03	0.0378312	700.0
2681	7.00015e+02	2.68100e+03	0.037792	700.0
2683	7.00018e+02	2.68300e+03	0.0377616	700.0
2685	7.00014e+02	2.68500e+03	0.0377209	700.0
2687	7.00016e+02	2.68700e+03	0.0376803	700.0
2689	7.00011e+02	2.68900e+03	0.0376444	700.0
2691	7.00015e+02	2.69100e+03	0.0376332	700.0
2693	7.00009e+02	2.69300e+03	0.0376507	700.0
2695	7.00015e+02	2.69500e+03	0.0376648	700.0
2697	7.00022e+02	2.69700e+03	0.0376911	700.0
2699	7.00022e+02	2.69900e+03	0.0377115	700.0
2701	7.00015e+02	2.70100e+03	0.0377251	700.0
2703	7.00018e+02	2.70300e+03	0.0377265	700.0
2705	7.00007e+02	2.70500e+03	0.0377181	700.0
2707	7.00021e+02	2.70700e+03	0.0377109	700.0
2709	7.00015e+02	2.70900e+03	0.0376972	700.0
2711	7.00016e+02	2.71100e+03	0.0376907	700.0
2713	7.00012e+02	2.71300e+03	0.037696	700.0
2715	7.00003e+02	2.71500e+03	0.0376996	700.0
2717	7.00005e+02	2.71700e+03	0.037703	700.0
2719	7.00008e+02	2.71900e+03	0.0377091	700.0
2720	7.00003e+02	2.72000e+03	0.0377101	700.0