File: Experiments/TGA/TUBS/tga_nonisotherm/tga_dynamic_n2_dyn5_powder_1mg_r3.txt
index	ts	t	weight	tr
[#]	[°C]	[s]	[mg]	[°C]
1083	1.30372e+02	1.08300e+03	1.00935e+00	1.30250e+02
1091	1.31039e+02	1.09100e+03	1.00941e+00	1.30917e+02
1099	1.31704e+02	1.09900e+03	1.00938e+00	1.31583e+02
1107	1.32372e+02	1.10700e+03	1.00925e+00	1.32250e+02
1115	1.33034e+02	1.11500e+03	1.00920e+00	1.32917e+02
1123	1.33709e+02	1.12300e+03	1.00911e+00	1.33583e+02
1131	1.34370e+02	1.13100e+03	1.00904e+00	1.34250e+02
1139	1.35036e+02	1.13900e+03	1.00892e+00	1.34917e+02
1147	1.35713e+02	1.14700e+03	1.00887e+00	1.35583e+02
1155	1.36376e+02	1.15500e+03	1.00879e+00	1.36250e+02
1163	1.37039e+02	1.16300e+03	1.00859e+00	1.36917e+02
1171	1.37714e+02	1.17100e+03	1.00851e+00	1.37583e+02
1179	1.38372e+02	1.17900e+03	1.00858e+00	1.38250e+02
1187	1.39053e+02	1.18700e+03	1.00846e+00	1.38917e+02
1195	1.39718e+02	1.19500e+03	1.00822e+00	1.39583e+02
1203	1.40389e+02	1.20300e+03	1.00803e+00	1.40250e+02
1211	1.41059e+02	1.21100e+03	1.00793e+00	1.40917e+02
1219	1.41718e+02	1.21900e+03	1.00787e+00	1.41583e+02
1227	1.42380e+02	1.22700e+03	1.00776e+00	1.42250e+02
1235	1.43061e+02	1.23500e+03	1.00762e+00	1.42917e+02
1243	1.43719e+02	1.24300e+03	1.00745e+00	1.43583e+02
1251	1.44384e+02	1.25100e+03	1.00733e+00	1.44250e+02
1259	1.45054e+02	1.25900e+03	1.00731e+00	1.44917e+02
1267	1.45725e+02	1.26700e+03	1.00710e+00	1.45583e+02
1275	1.46397e+02	1.27500e+03	1.00681e+00	1.46250e+02
1283	1.47065e+02	1.28300e+03	1.00661e+00	1.46917e+02
1291	1.47729e+02	1.29100e+03	1.00641e+00	1.47583e+02
1299	1.48393e+02	1.29900e+03	1.00618e+00	1.48250e+02
1307	1.49069e+02	1.30700e+03	1.00603e+00	1.48917e+02
1315	1.49729e+02	1.31500e+03	1.00591e+00	1.49583e+02
1323	1.50405e+02	1.32300e+03	1.00567e+00	1.50250e+02
1331	1.51070e+02	1.33100e+03	1.00544e+00	1.50917e+02
1339	1.51751e+02	1.33900e+03	1.00519e+00	1.51583e+02
1347	1.52409e+02	1.34700e+03	1.00505e+00	1.52250e+02
1355	1.53069e+02	1.35500e+03	1.00484e+00	1.52917e+02
1363	1.53750e+02	1.36300e+03	1.00459e+00	1.53583e+02
1371	1.54421e+02	1.37100e+03	1.00439e+00	1.54250e+02
1379	1.55090e+02	1.37900e+03	1.00420e+00	1.54917e+02
1387	1.55744e+02	1.38700e+03	1.00383e+00	1.55583e+02
1395	1.56426e+02	1.39500e+03	1.00349e+00	1.56250e+02
1403	1.57091e+02	1.40300e+03	1.00328e+00	1.56917e+02
1411	1.57758e+02	1.41100e+03	1.00299e+00	1.57583e+02
1419	1.58435e+02	1.41900e+03	1.00253e+00	1.58250e+02
1427	1.59097e+02	1.42700e+03	1.00220e+00	1.58917e+02
1435	1.59779e+02	1.43500e+03	1.00191e+00	1.59583e+02
1443	1.60443e+02	1.44300e+03	1.00142e+00	1.60250e+02
1451	1.61121e+02	1.45100e+03	1.00083e+00	1.60917e+02
1459	1.61783e+02	1.45900e+03	1.00035e+00	1.61583e+02
1467	1.62456e+02	1.46700e+03	9.99875e-01	1.62250e+02
1475	1.63141e+02	1.47500e+03	9.99360e-01	1.62917e+02
1483	1.63801e+02	1.48300e+03	9.98735e-01	1.63583e+02
1491	1.64472e+02	1.49100e+03	9.97962e-01	1.64250e+02
1499	1.65138e+02	1.49900e+03	9.97285e-01	1.64917e+02
1507	1.65798e+02	1.50700e+03	9.96510e-01	1.65583e+02
1515	1.66465e+02	1.51500e+03	9.95806e-01	1.66250e+02
1523	1.67132e+02	1.52300e+03	9.95057e-01	1.66917e+02
1531	1.67809e+02	1.53100e+03	9.94180e-01	1.67583e+02
1539	1.68477e+02	1.53900e+03	9.93225e-01	1.68250e+02
1547	1.69144e+02	1.54700e+03	9.92347e-01	1.68917e+02
1555	1.69788e+02	1.55500e+03	9.91418e-01	1.69583e+02
1563	1.70480e+02	1.56300e+03	9.90462e-01	1.70250e+02
1571	1.71134e+02	1.57100e+03	9.89569e-01	1.70917e+02
1579	1.71809e+02	1.57900e+03	9.88637e-01	1.71583e+02
1587	1.72469e+02	1.58700e+03	9.87613e-01	1.72250e+02
1595	1.73149e+02	1.59500e+03	9.86525e-01	1.72917e+02
1603	1.73823e+02	1.60300e+03	9.85451e-01	1.73583e+02
1611	1.74483e+02	1.61100e+03	9.84438e-01	1.74250e+02
1619	1.75165e+02	1.61900e+03	9.83332e-01	1.74917e+02
1627	1.75821e+02	1.62700e+03	9.82343e-01	1.75583e+02
1635	1.76500e+02	1.63500e+03	9.81616e-01	1.76250e+02
1643	1.77154e+02	1.64300e+03	9.80696e-01	1.76917e+02
1651	1.77829e+02	1.65100e+03	9.79694e-01	1.77583e+02
1659	1.78500e+02	1.65900e+03	9.78842e-01	1.78250e+02
1667	1.79158e+02	1.66700e+03	9.78048e-01	1.78917e+02
1675	1.79841e+02	1.67500e+03	9.77182e-01	1.79583e+02
1683	1.80508e+02	1.68300e+03	9.76386e-01	1.80250e+02
1691	1.81166e+02	1.69100e+03	9.75694e-01	1.80917e+02
1699	1.81846e+02	1.69900e+03	9.74891e-01	1.81583e+02
1707	1.82523e+02	1.70700e+03	9.74222e-01	1.82250e+02
1715	1.83174e+02	1.71500e+03	9.73626e-01	1.82917e+02
1723	1.83836e+02	1.72300e+03	9.73058e-01	1.83583e+02
1731	1.84517e+02	1.73100e+03	9.72531e-01	1.84250e+02
1739	1.85183e+02	1.73900e+03	9.71956e-01	1.84917e+02
1747	1.85844e+02	1.74700e+03	9.71449e-01	1.85583e+02
1755	1.86532e+02	1.75500e+03	9.71132e-01	1.86250e+02
1763	1.87186e+02	1.76300e+03	9.70770e-01	1.86917e+02
1771	1.87858e+02	1.77100e+03	9.70432e-01	1.87583e+02
1779	1.88519e+02	1.77900e+03	9.70042e-01	1.88250e+02
1787	1.89196e+02	1.78700e+03	9.69727e-01	1.88917e+02
1795	1.89864e+02	1.79500e+03	9.69455e-01	1.89583e+02
1803	1.90532e+02	1.80300e+03	9.69459e-01	1.90250e+02
1811	1.91195e+02	1.81100e+03	9.69175e-01	1.90917e+02
1819	1.91865e+02	1.81900e+03	9.68916e-01	1.91583e+02
1827	1.92529e+02	1.82700e+03	9.68669e-01	1.92250e+02
1835	1.93205e+02	1.83500e+03	9.68507e-01	1.92917e+02
1843	1.93871e+02	1.84300e+03	9.68402e-01	1.93583e+02
1851	1.94543e+02	1.85100e+03	9.68222e-01	1.94250e+02
1859	1.95210e+02	1.85900e+03	9.67973e-01	1.94917e+02
1867	1.95880e+02	1.86700e+03	9.67847e-01	1.95583e+02
1875	1.96546e+02	1.87500e+03	9.67612e-01	1.96250e+02
1883	1.97210e+02	1.88300e+03	9.67389e-01	1.96917e+02
1891	1.97885e+02	1.89100e+03	9.67272e-01	1.97583e+02
1899	1.98553e+02	1.89900e+03	9.67025e-01	1.98250e+02
1907	1.99222e+02	1.90700e+03	9.66576e-01	1.98917e+02
1915	1.99886e+02	1.91500e+03	9.66532e-01	1.99583e+02
1923	2.00542e+02	1.92300e+03	9.66478e-01	2.00250e+02
1931	2.01216e+02	1.93100e+03	9.66316e-01	2.00917e+02
1939	2.01883e+02	1.93900e+03	9.66170e-01	2.01583e+02
1947	2.02553e+02	1.94700e+03	9.66023e-01	2.02250e+02
1955	2.03222e+02	1.95500e+03	9.65837e-01	2.02917e+02
1963	2.03899e+02	1.96300e+03	9.65768e-01	2.03583e+02
1971	2.04565e+02	1.97100e+03	9.65650e-01	2.04250e+02
1979	2.05222e+02	1.97900e+03	9.65398e-01	2.04917e+02
1987	2.05898e+02	1.98700e+03	9.65124e-01	2.05583e+02
1995	2.06558e+02	1.99500e+03	9.64932e-01	2.06250e+02
2003	2.07234e+02	2.00300e+03	9.64858e-01	2.06917e+02
2011	2.07901e+02	2.01100e+03	9.64745e-01	2.07583e+02
2019	2.08562e+02	2.01900e+03	9.64568e-01	2.08250e+02
2027	2.09222e+02	2.02700e+03	9.64579e-01	2.08917e+02
2035	2.09894e+02	2.03500e+03	9.64462e-01	2.09583e+02
2043	2.10566e+02	2.04300e+03	9.64348e-01	2.10250e+02
2051	2.11232e+02	2.05100e+03	9.64277e-01	2.10917e+02
2059	2.11899e+02	2.05900e+03	9.64069e-01	2.11583e+02
2067	2.12564e+02	2.06700e+03	9.63900e-01	2.12250e+02
2075	2.13230e+02	2.07500e+03	9.63877e-01	2.12917e+02
2083	2.13913e+02	2.08300e+03	9.63904e-01	2.13583e+02
2091	2.14582e+02	2.09100e+03	9.63811e-01	2.14250e+02
2099	2.15239e+02	2.09900e+03	9.63672e-01	2.14917e+02
2107	2.15902e+02	2.10700e+03	9.63503e-01	2.15583e+02
2115	2.16577e+02	2.11500e+03	9.63530e-01	2.16250e+02
2123	2.17245e+02	2.12300e+03	9.63458e-01	2.16917e+02
2131	2.17901e+02	2.13100e+03	9.63421e-01	2.17583e+02
2139	2.18569e+02	2.13900e+03	9.63252e-01	2.18250e+02
2147	2.19252e+02	2.14700e+03	9.63109e-01	2.18917e+02
2155	2.19922e+02	2.15500e+03	9.63081e-01	2.19583e+02
2163	2.20592e+02	2.16300e+03	9.63137e-01	2.20250e+02
2171	2.21249e+02	2.17100e+03	9.62997e-01	2.20917e+02
2179	2.21930e+02	2.17900e+03	9.62985e-01	2.21583e+02
2187	2.22587e+02	2.18700e+03	9.62984e-01	2.22250e+02
2195	2.23255e+02	2.19500e+03	9.62865e-01	2.22917e+02
2203	2.23921e+02	2.20300e+03	9.62847e-01	2.23583e+02
2211	2.24583e+02	2.21100e+03	9.62792e-01	2.24250e+02
2219	2.25255e+02	2.21900e+03	9.62683e-01	2.24917e+02
2227	2.25937e+02	2.22700e+03	9.62657e-01	2.25583e+02
2235	2.26593e+02	2.23500e+03	9.62559e-01	2.26250e+02
2243	2.27246e+02	2.24300e+03	9.62542e-01	2.26917e+02
2251	2.27936e+02	2.25100e+03	9.62479e-01	2.27583e+02
2259	2.28596e+02	2.25900e+03	9.62357e-01	2.28250e+02
2267	2.29265e+02	2.26700e+03	9.62283e-01	2.28917e+02
2275	2.29927e+02	2.27500e+03	9.62253e-01	2.29583e+02
2283	2.30600e+02	2.28300e+03	9.62203e-01	2.30250e+02
2291	2.31267e+02	2.29100e+03	9.62143e-01	2.30917e+02
2299	2.31931e+02	2.29900e+03	9.61980e-01	2.31583e+02
2307	2.32589e+02	2.30700e+03	9.61911e-01	2.32250e+02
2315	2.33253e+02	2.31500e+03	9.61946e-01	2.32917e+02
2323	2.33928e+02	2.32300e+03	9.61922e-01	2.33583e+02
2331	2.34584e+02	2.33100e+03	9.61952e-01	2.34250e+02
2339	2.35254e+02	2.33900e+03	9.61757e-01	2.34917e+02
2347	2.35918e+02	2.34700e+03	9.61645e-01	2.35583e+02
2355	2.36593e+02	2.35500e+03	9.61581e-01	2.36250e+02
2363	2.37250e+02	2.36300e+03	9.61440e-01	2.36917e+02
2371	2.37933e+02	2.37100e+03	9.61496e-01	2.37583e+02
2379	2.38591e+02	2.37900e+03	9.61441e-01	2.38250e+02
2387	2.39272e+02	2.38700e+03	9.61326e-01	2.38917e+02
2395	2.39926e+02	2.39500e+03	9.61311e-01	2.39583e+02
2403	2.40594e+02	2.40300e+03	9.61292e-01	2.40250e+02
2411	2.41258e+02	2.41100e+03	9.61244e-01	2.40917e+02
2419	2.41925e+02	2.41900e+03	9.61156e-01	2.41583e+02
2427	2.42603e+02	2.42700e+03	9.61091e-01	2.42250e+02
2435	2.43262e+02	2.43500e+03	9.61009e-01	2.42917e+02
2443	2.43920e+02	2.44300e+03	9.60938e-01	2.43583e+02
2451	2.44599e+02	2.45100e+03	9.60843e-01	2.44250e+02
2459	2.45266e+02	2.45900e+03	9.60808e-01	2.44917e+02
2467	2.45933e+02	2.46700e+03	9.60625e-01	2.45583e+02
2475	2.46595e+02	2.47500e+03	9.60569e-01	2.46250e+02
2483	2.47273e+02	2.48300e+03	9.60400e-01	2.46917e+02
2491	2.47935e+02	2.49100e+03	9.60288e-01	2.47583e+02
2499	2.48603e+02	2.49900e+03	9.60322e-01	2.48250e+02
2507	2.49271e+02	2.50700e+03	9.60280e-01	2.48917e+02
2515	2.49929e+02	2.51500e+03	9.60047e-01	2.49583e+02
2523	2.50597e+02	2.52300e+03	9.59874e-01	2.50250e+02
2531	2.51271e+02	2.53100e+03	9.59756e-01	2.50917e+02
2539	2.51934e+02	2.53900e+03	9.59640e-01	2.51583e+02
2547	2.52602e+02	2.54700e+03	9.59541e-01	2.52250e+02
2555	2.53256e+02	2.55500e+03	9.59479e-01	2.52917e+02
2563	2.53935e+02	2.56300e+03	9.59296e-01	2.53583e+02
2571	2.54604e+02	2.57100e+03	9.59022e-01	2.54250e+02
2579	2.55257e+02	2.57900e+03	9.58814e-01	2.54917e+02
2587	2.55929e+02	2.58700e+03	9.58697e-01	2.55583e+02
2595	2.56604e+02	2.59500e+03	9.58610e-01	2.56250e+02
2603	2.57279e+02	2.60300e+03	9.58388e-01	2.56917e+02
2611	2.57942e+02	2.61100e+03	9.58090e-01	2.57583e+02
2619	2.58603e+02	2.61900e+03	9.57997e-01	2.58250e+02
2627	2.59262e+02	2.62700e+03	9.57838e-01	2.58917e+02
2635	2.59937e+02	2.63500e+03	9.57602e-01	2.59583e+02
2643	2.60591e+02	2.64300e+03	9.57479e-01	2.60250e+02
2651	2.61267e+02	2.65100e+03	9.57276e-01	2.60917e+02
2659	2.61935e+02	2.65900e+03	9.56939e-01	2.61583e+02
2667	2.62605e+02	2.66700e+03	9.56771e-01	2.62250e+02
2675	2.63271e+02	2.67500e+03	9.56570e-01	2.62917e+02
2683	2.63936e+02	2.68300e+03	9.56333e-01	2.63583e+02
2691	2.64602e+02	2.69100e+03	9.56002e-01	2.64250e+02
2699	2.65258e+02	2.69900e+03	9.55558e-01	2.64917e+02
2707	2.65923e+02	2.70700e+03	9.55279e-01	2.65583e+02
2715	2.66590e+02	2.71500e+03	9.54975e-01	2.66250e+02
2723	2.67261e+02	2.72300e+03	9.54521e-01	2.66917e+02
2731	2.67918e+02	2.73100e+03	9.54073e-01	2.67583e+02
2739	2.68580e+02	2.73900e+03	9.53813e-01	2.68250e+02
2747	2.69256e+02	2.74700e+03	9.53436e-01	2.68917e+02
2755	2.69935e+02	2.75500e+03	9.53042e-01	2.69583e+02
2763	2.70588e+02	2.76300e+03	9.52481e-01	2.70250e+02
2771	2.71267e+02	2.77100e+03	9.52037e-01	2.70917e+02
2779	2.71917e+02	2.77900e+03	9.51633e-01	2.71583e+02
2787	2.72585e+02	2.78700e+03	9.51237e-01	2.72250e+02
2795	2.73252e+02	2.79500e+03	9.50727e-01	2.72917e+02
2803	2.73935e+02	2.80300e+03	9.50243e-01	2.73583e+02
2811	2.74585e+02	2.81100e+03	9.49770e-01	2.74250e+02
2819	2.75264e+02	2.81900e+03	9.49088e-01	2.74917e+02
2827	2.75921e+02	2.82700e+03	9.48482e-01	2.75583e+02
2835	2.76599e+02	2.83500e+03	9.47847e-01	2.76250e+02
2843	2.77265e+02	2.84300e+03	9.47224e-01	2.76917e+02
2851	2.77934e+02	2.85100e+03	9.46501e-01	2.77583e+02
2859	2.78594e+02	2.85900e+03	9.45721e-01	2.78250e+02
2867	2.79256e+02	2.86700e+03	9.44937e-01	2.78917e+02
2875	2.79927e+02	2.87500e+03	9.44111e-01	2.79583e+02
2883	2.80591e+02	2.88300e+03	9.43322e-01	2.80250e+02
2891	2.81249e+02	2.89100e+03	9.42486e-01	2.80917e+02
2899	2.81918e+02	2.89900e+03	9.41634e-01	2.81583e+02
2907	2.82585e+02	2.90700e+03	9.40726e-01	2.82250e+02
2915	2.83249e+02	2.91500e+03	9.39775e-01	2.82917e+02
2923	2.83924e+02	2.92300e+03	9.38952e-01	2.83583e+02
2931	2.84585e+02	2.93100e+03	9.37948e-01	2.84250e+02
2939	2.85248e+02	2.93900e+03	9.36885e-01	2.84917e+02
2947	2.85905e+02	2.94700e+03	9.35832e-01	2.85583e+02
2955	2.86576e+02	2.95500e+03	9.34730e-01	2.86250e+02
2963	2.87242e+02	2.96300e+03	9.33747e-01	2.86917e+02
2971	2.87908e+02	2.97100e+03	9.32619e-01	2.87583e+02
2979	2.88576e+02	2.97900e+03	9.31482e-01	2.88250e+02
2987	2.89243e+02	2.98700e+03	9.30390e-01	2.88917e+02
2995	2.89923e+02	2.99500e+03	9.29159e-01	2.89583e+02
3003	2.90586e+02	3.00300e+03	9.28159e-01	2.90250e+02
3011	2.91247e+02	3.01100e+03	9.26929e-01	2.90917e+02
3019	2.91906e+02	3.01900e+03	9.25693e-01	2.91583e+02
3027	2.92577e+02	3.02700e+03	9.24416e-01	2.92250e+02
3035	2.93237e+02	3.03500e+03	9.23239e-01	2.92917e+02
3043	2.93904e+02	3.04300e+03	9.22111e-01	2.93583e+02
3051	2.94574e+02	3.05100e+03	9.20894e-01	2.94250e+02
3059	2.95242e+02	3.05900e+03	9.19702e-01	2.94917e+02
3067	2.95908e+02	3.06700e+03	9.18547e-01	2.95583e+02
3075	2.96575e+02	3.07500e+03	9.17393e-01	2.96250e+02
3083	2.97245e+02	3.08300e+03	9.16189e-01	2.96917e+02
3091	2.97906e+02	3.09100e+03	9.15021e-01	2.97583e+02
3099	2.98574e+02	3.09900e+03	9.13845e-01	2.98250e+02
3107	2.99229e+02	3.10700e+03	9.12616e-01	2.98917e+02
3115	2.99907e+02	3.11500e+03	9.11515e-01	2.99583e+02
3123	3.00568e+02	3.12300e+03	9.10265e-01	3.00250e+02
3131	3.01234e+02	3.13100e+03	9.08959e-01	3.00917e+02
3139	3.01895e+02	3.13900e+03	9.07786e-01	3.01583e+02
3147	3.02564e+02	3.14700e+03	9.06647e-01	3.02250e+02
3155	3.03231e+02	3.15500e+03	9.05428e-01	3.02917e+02
3163	3.03900e+02	3.16300e+03	9.04131e-01	3.03583e+02
3171	3.04561e+02	3.17100e+03	9.02751e-01	3.04250e+02
3179	3.05235e+02	3.17900e+03	9.01541e-01	3.04917e+02
3187	3.05897e+02	3.18700e+03	9.00381e-01	3.05583e+02
3195	3.06562e+02	3.19500e+03	8.99007e-01	3.06250e+02
3203	3.07225e+02	3.20300e+03	8.97601e-01	3.06917e+02
3211	3.07886e+02	3.21100e+03	8.96177e-01	3.07583e+02
3219	3.08545e+02	3.21900e+03	8.94679e-01	3.08250e+02
3227	3.09220e+02	3.22700e+03	8.93148e-01	3.08917e+02
3235	3.09877e+02	3.23500e+03	8.91658e-01	3.09583e+02
3243	3.10550e+02	3.24300e+03	8.90024e-01	3.10250e+02
3251	3.11214e+02	3.25100e+03	8.88411e-01	3.10917e+02
3259	3.11874e+02	3.25900e+03	8.86674e-01	3.11583e+02
3267	3.12540e+02	3.26700e+03	8.84967e-01	3.12250e+02
3275	3.13202e+02	3.27500e+03	8.83273e-01	3.12917e+02
3283	3.13872e+02	3.28300e+03	8.81288e-01	3.13583e+02
3291	3.14529e+02	3.29100e+03	8.79223e-01	3.14250e+02
3299	3.15198e+02	3.29900e+03	8.77117e-01	3.14917e+02
3307	3.15872e+02	3.30700e+03	8.74976e-01	3.15583e+02
3315	3.16534e+02	3.31500e+03	8.72646e-01	3.16250e+02
3323	3.17185e+02	3.32300e+03	8.70373e-01	3.16917e+02
3331	3.17862e+02	3.33100e+03	8.67901e-01	3.17583e+02
3339	3.18519e+02	3.33900e+03	8.65346e-01	3.18250e+02
3347	3.19190e+02	3.34700e+03	8.62635e-01	3.18917e+02
3355	3.19837e+02	3.35500e+03	8.59768e-01	3.19583e+02
3363	3.20516e+02	3.36300e+03	8.56713e-01	3.20250e+02
3371	3.21187e+02	3.37100e+03	8.53523e-01	3.20917e+02
3379	3.21843e+02	3.37900e+03	8.50288e-01	3.21583e+02
3387	3.22511e+02	3.38700e+03	8.46953e-01	3.22250e+02
3395	3.23180e+02	3.39500e+03	8.43348e-01	3.22917e+02
3403	3.23841e+02	3.40300e+03	8.39628e-01	3.23583e+02
3411	3.24498e+02	3.41100e+03	8.35729e-01	3.24250e+02
3419	3.25167e+02	3.41900e+03	8.31754e-01	3.24917e+02
3427	3.25839e+02	3.42700e+03	8.27425e-01	3.25583e+02
3435	3.26493e+02	3.43500e+03	8.23001e-01	3.26250e+02
3443	3.27169e+02	3.44300e+03	8.18343e-01	3.26917e+02
3451	3.27830e+02	3.45100e+03	8.13407e-01	3.27583e+02
3459	3.28504e+02	3.45900e+03	8.08325e-01	3.28250e+02
3467	3.29167e+02	3.46700e+03	8.03087e-01	3.28917e+02
3475	3.29832e+02	3.47500e+03	7.97550e-01	3.29583e+02
3483	3.30491e+02	3.48300e+03	7.91900e-01	3.30250e+02
3491	3.31159e+02	3.49100e+03	7.85938e-01	3.30917e+02
3499	3.31820e+02	3.49900e+03	7.79714e-01	3.31583e+02
3507	3.32489e+02	3.50700e+03	7.73419e-01	3.32250e+02
3515	3.33140e+02	3.51500e+03	7.66700e-01	3.32917e+02
3523	3.33804e+02	3.52300e+03	7.59714e-01	3.33583e+02
3531	3.34475e+02	3.53100e+03	7.52574e-01	3.34250e+02
3539	3.35137e+02	3.53900e+03	7.45135e-01	3.34917e+02
3547	3.35801e+02	3.54700e+03	7.37574e-01	3.35583e+02
3555	3.36467e+02	3.55500e+03	7.29744e-01	3.36250e+02
3563	3.37124e+02	3.56300e+03	7.21592e-01	3.36917e+02
3571	3.37795e+02	3.57100e+03	7.13233e-01	3.37583e+02
3579	3.38457e+02	3.57900e+03	7.04570e-01	3.38250e+02
3587	3.39122e+02	3.58700e+03	6.95785e-01	3.38917e+02
3595	3.39785e+02	3.59500e+03	6.86746e-01	3.39583e+02
3603	3.40451e+02	3.60300e+03	6.77488e-01	3.40250e+02
3611	3.41111e+02	3.61100e+03	6.68025e-01	3.40917e+02
3619	3.41778e+02	3.61900e+03	6.58464e-01	3.41583e+02
3627	3.42427e+02	3.62700e+03	6.48594e-01	3.42250e+02
3635	3.43090e+02	3.63500e+03	6.38381e-01	3.42917e+02
3643	3.43771e+02	3.64300e+03	6.28142e-01	3.43583e+02
3651	3.44424e+02	3.65100e+03	6.17732e-01	3.44250e+02
3659	3.45087e+02	3.65900e+03	6.07144e-01	3.44917e+02
3667	3.45751e+02	3.66700e+03	5.96319e-01	3.45583e+02
3675	3.46413e+02	3.67500e+03	5.85294e-01	3.46250e+02
3683	3.47080e+02	3.68300e+03	5.74148e-01	3.46917e+02
3691	3.47735e+02	3.69100e+03	5.62763e-01	3.47583e+02
3699	3.48407e+02	3.69900e+03	5.51368e-01	3.48250e+02
3707	3.49077e+02	3.70700e+03	5.39782e-01	3.48917e+02
3715	3.49738e+02	3.71500e+03	5.28134e-01	3.49583e+02
3723	3.50401e+02	3.72300e+03	5.16479e-01	3.50250e+02
3731	3.51063e+02	3.73100e+03	5.04797e-01	3.50917e+02
3739	3.51727e+02	3.73900e+03	4.92940e-01	3.51583e+02
3747	3.52388e+02	3.74700e+03	4.81159e-01	3.52250e+02
3755	3.53059e+02	3.75500e+03	4.69371e-01	3.52917e+02
3763	3.53723e+02	3.76300e+03	4.57644e-01	3.53583e+02
3771	3.54388e+02	3.77100e+03	4.45867e-01	3.54250e+02
3779	3.55060e+02	3.77900e+03	4.34045e-01	3.54917e+02
3787	3.55724e+02	3.78700e+03	4.22134e-01	3.55583e+02
3795	3.56400e+02	3.79500e+03	4.10357e-01	3.56250e+02
3803	3.57064e+02	3.80300e+03	3.98384e-01	3.56917e+02
3811	3.57728e+02	3.81100e+03	3.86111e-01	3.57583e+02
3819	3.58387e+02	3.81900e+03	3.73808e-01	3.58250e+02
3827	3.59040e+02	3.82700e+03	3.61579e-01	3.58917e+02
3835	3.59719e+02	3.83500e+03	3.49669e-01	3.59583e+02
3843	3.60382e+02	3.84300e+03	3.37698e-01	3.60250e+02
3851	3.61046e+02	3.85100e+03	3.25777e-01	3.60917e+02
3859	3.61714e+02	3.85900e+03	3.14013e-01	3.61583e+02
3867	3.62387e+02	3.86700e+03	3.02334e-01	3.62250e+02
3875	3.63044e+02	3.87500e+03	2.90861e-01	3.62917e+02
3883	3.63703e+02	3.88300e+03	2.79497e-01	3.63583e+02
3891	3.64380e+02	3.89100e+03	2.68346e-01	3.64250e+02
3899	3.65045e+02	3.89900e+03	2.57437e-01	3.64917e+02
3907	3.65715e+02	3.90700e+03	2.46675e-01	3.65583e+02
3915	3.66370e+02	3.91500e+03	2.36003e-01	3.66250e+02
3923	3.67041e+02	3.92300e+03	2.25765e-01	3.66917e+02
3931	3.67718e+02	3.93100e+03	2.15711e-01	3.67583e+02
3939	3.68386e+02	3.93900e+03	2.05878e-01	3.68250e+02
3947	3.69035e+02	3.94700e+03	1.96331e-01	3.68917e+02
3955	3.69710e+02	3.95500e+03	1.86931e-01	3.69583e+02
3963	3.70376e+02	3.96300e+03	1.77866e-01	3.70250e+02
3971	3.71034e+02	3.97100e+03	1.69155e-01	3.70917e+02
3979	3.71698e+02	3.97900e+03	1.60523e-01	3.71583e+02
3987	3.72369e+02	3.98700e+03	1.52232e-01	3.72250e+02
3995	3.73035e+02	3.99500e+03	1.44238e-01	3.72917e+02
4003	3.73690e+02	4.00300e+03	1.36474e-01	3.73583e+02
4011	3.74367e+02	4.01100e+03	1.29154e-01	3.74250e+02
4019	3.75029e+02	4.01900e+03	1.21890e-01	3.74917e+02
4027	3.75700e+02	4.02700e+03	1.14888e-01	3.75583e+02
4035	3.76362e+02	4.03500e+03	1.08283e-01	3.76250e+02
4043	3.77037e+02	4.04300e+03	1.01858e-01	3.76917e+02
4051	3.77680e+02	4.05100e+03	9.57650e-02	3.77583e+02
4059	3.78350e+02	4.05900e+03	8.98153e-02	3.78250e+02
4067	3.79016e+02	4.06700e+03	8.40607e-02	3.78917e+02
4075	3.79682e+02	4.07500e+03	7.87960e-02	3.79583e+02
4083	3.80349e+02	4.08300e+03	7.37262e-02	3.80250e+02
4091	3.81019e+02	4.09100e+03	6.88615e-02	3.80917e+02
4099	3.81680e+02	4.09900e+03	6.42191e-02	3.81583e+02
4107	3.82347e+02	4.10700e+03	5.99698e-02	3.82250e+02
4115	3.83017e+02	4.11500e+03	5.57445e-02	3.82917e+02
4123	3.83678e+02	4.12300e+03	5.16383e-02	3.83583e+02
4131	3.84358e+02	4.13100e+03	4.78139e-02	3.84250e+02
4139	3.85020e+02	4.13900e+03	4.41724e-02	3.84917e+02
4147	3.85674e+02	4.14700e+03	4.07851e-02	3.85583e+02
4155	3.86348e+02	4.15500e+03	3.76729e-02	3.86250e+02
4163	3.87014e+02	4.16300e+03	3.46953e-02	3.86917e+02
4171	3.87689e+02	4.17100e+03	3.19774e-02	3.87583e+02
4179	3.88345e+02	4.17900e+03	2.93562e-02	3.88250e+02
4187	3.89002e+02	4.18700e+03	2.68819e-02	3.88917e+02
4195	3.89669e+02	4.19500e+03	2.45384e-02	3.89583e+02
4203	3.90337e+02	4.20300e+03	2.23436e-02	3.90250e+02
4211	3.91000e+02	4.21100e+03	2.03018e-02	3.90917e+02
4219	3.91663e+02	4.21900e+03	1.83182e-02	3.91583e+02
4227	3.92330e+02	4.22700e+03	1.63808e-02	3.92250e+02
4235	3.92993e+02	4.23500e+03	1.50017e-02	3.92917e+02
4243	3.93658e+02	4.24300e+03	1.34511e-02	3.93583e+02
4251	3.94317e+02	4.25100e+03	1.20233e-02	3.94250e+02
4259	3.94996e+02	4.25900e+03	1.07357e-02	3.94917e+02
4267	3.95653e+02	4.26700e+03	9.50861e-03	3.95583e+02
4275	3.96321e+02	4.27500e+03	8.25722e-03	3.96250e+02
4283	3.96990e+02	4.28300e+03	7.27708e-03	3.96917e+02
4291	3.97650e+02	4.29100e+03	6.35052e-03	3.97583e+02
4299	3.98308e+02	4.29900e+03	5.46213e-03	3.98250e+02
4307	3.98981e+02	4.30700e+03	4.67954e-03	3.98917e+02
4315	3.99647e+02	4.31500e+03	3.87037e-03	3.99583e+02
4323	4.00312e+02	4.32300e+03	3.12660e-03	4.00250e+02
4331	4.00972e+02	4.33100e+03	2.47985e-03	4.00917e+02
4339	4.01629e+02	4.33900e+03	1.71027e-03	4.01583e+02
4347	4.02297e+02	4.34700e+03	1.12957e-03	4.02250e+02
4355	4.02961e+02	4.35500e+03	7.19520e-04	4.02917e+02
4363	4.03621e+02	4.36300e+03	2.38811e-04	4.03583e+02
4371	4.04285e+02	4.37100e+03	-2.77210e-04	4.04250e+02
4379	4.04943e+02	4.37900e+03	-7.52479e-04	4.04917e+02
4387	4.05612e+02	4.38700e+03	-1.21378e-03	4.05583e+02
4395	4.06270e+02	4.39500e+03	-1.62634e-03	4.06250e+02
4403	4.06932e+02	4.40300e+03	-2.05607e-03	4.06917e+02
4411	4.07594e+02	4.41100e+03	-2.27468e-03	4.07583e+02
4419	4.08255e+02	4.41900e+03	-2.58109e-03	4.08250e+02
4427	4.08922e+02	4.42700e+03	-2.83596e-03	4.08917e+02
4435	4.09584e+02	4.43500e+03	-3.03992e-03	4.09583e+02
4443	4.10240e+02	4.44300e+03	-3.26721e-03	4.10250e+02
4451	4.10912e+02	4.45100e+03	-3.58534e-03	4.10917e+02
4459	4.11573e+02	4.45900e+03	-3.81499e-03	4.11583e+02
4467	4.12232e+02	4.46700e+03	-4.06221e-03	4.12250e+02
4475	4.12909e+02	4.47500e+03	-4.05911e-03	4.12917e+02
4483	4.13569e+02	4.48300e+03	-4.18423e-03	4.13583e+02
4491	4.14216e+02	4.49100e+03	-4.29350e-03	4.14250e+02
4499	4.14897e+02	4.49900e+03	-4.37875e-03	4.14917e+02
4507	4.15555e+02	4.50700e+03	-4.42180e-03	4.15583e+02
4515	4.16218e+02	4.51500e+03	-4.54874e-03	4.16250e+02
4523	4.16879e+02	4.52300e+03	-4.66500e-03	4.16917e+02
4531	4.17546e+02	4.53100e+03	-4.67021e-03	4.17583e+02
4539	4.18205e+02	4.53900e+03	-4.76512e-03	4.18250e+02
4547	4.18872e+02	4.54700e+03	-4.91900e-03	4.18917e+02
4555	4.19527e+02	4.55500e+03	-4.95584e-03	4.19583e+02
4563	4.20204e+02	4.56300e+03	-4.94776e-03	4.20250e+02
4571	4.20865e+02	4.57100e+03	-4.92043e-03	4.20917e+02
4579	4.21520e+02	4.57900e+03	-4.86087e-03	4.21583e+02
4587	4.22176e+02	4.58700e+03	-4.95476e-03	4.22250e+02
4595	4.22856e+02	4.59500e+03	-4.96686e-03	4.22917e+02
4603	4.23511e+02	4.60300e+03	-4.98756e-03	4.23583e+02
4611	4.24180e+02	4.61100e+03	-5.09428e-03	4.24250e+02
4619	4.24833e+02	4.61900e+03	-5.27279e-03	4.24917e+02
4627	4.25496e+02	4.62700e+03	-5.19335e-03	4.25583e+02
4635	4.26170e+02	4.63500e+03	-5.26134e-03	4.26250e+02
4643	4.26826e+02	4.64300e+03	-5.29082e-03	4.26917e+02
4651	4.27495e+02	4.65100e+03	-5.73786e-03	4.27583e+02
4659	4.28150e+02	4.65900e+03	-5.68419e-03	4.28250e+02
4667	4.28819e+02	4.66700e+03	-4.91416e-03	4.28917e+02
4675	4.29472e+02	4.67500e+03	-5.06302e-03	4.29583e+02
4683	4.30131e+02	4.68300e+03	-5.26151e-03	4.30250e+02
4691	4.30809e+02	4.69100e+03	-5.22967e-03	4.30917e+02
4699	4.31472e+02	4.69900e+03	-5.44085e-03	4.31583e+02
4707	4.32135e+02	4.70700e+03	-5.26675e-03	4.32250e+02
4715	4.32790e+02	4.71500e+03	-5.17642e-03	4.32917e+02
4723	4.33451e+02	4.72300e+03	-5.78381e-03	4.33583e+02
4731	4.34116e+02	4.73100e+03	-5.35509e-03	4.34250e+02
4739	4.34772e+02	4.73900e+03	-4.82844e-03	4.34917e+02
4747	4.35443e+02	4.74700e+03	-5.22228e-03	4.35583e+02
4755	4.36115e+02	4.75500e+03	-5.38262e-03	4.36250e+02
4763	4.36764e+02	4.76300e+03	-5.33770e-03	4.36917e+02
4771	4.37422e+02	4.77100e+03	-5.27035e-03	4.37583e+02
4779	4.38092e+02	4.77900e+03	-5.18241e-03	4.38250e+02
4787	4.38752e+02	4.78700e+03	-5.22574e-03	4.38917e+02
4795	4.39414e+02	4.79500e+03	-5.31762e-03	4.39583e+02
4803	4.40071e+02	4.80300e+03	-5.47705e-03	4.40250e+02
4811	4.40742e+02	4.81100e+03	-5.43298e-03	4.40917e+02
4819	4.41392e+02	4.81900e+03	-5.80818e-03	4.41583e+02
4827	4.42065e+02	4.82700e+03	-5.93095e-03	4.42250e+02
4835	4.42734e+02	4.83500e+03	-5.58600e-03	4.42917e+02
4843	4.43388e+02	4.84300e+03	-5.26240e-03	4.43583e+02
4851	4.44064e+02	4.85100e+03	-5.03440e-03	4.44250e+02
4859	4.44721e+02	4.85900e+03	-5.26845e-03	4.44917e+02
4867	4.45394e+02	4.86700e+03	-5.47138e-03	4.45583e+02
4875	4.46042e+02	4.87500e+03	-5.36873e-03	4.46250e+02
4883	4.46703e+02	4.88300e+03	-5.49421e-03	4.46917e+02
4891	4.47370e+02	4.89100e+03	-5.50525e-03	4.47583e+02
4899	4.48026e+02	4.89900e+03	-5.43898e-03	4.48250e+02
4907	4.48694e+02	4.90700e+03	-5.51097e-03	4.48917e+02
4915	4.49352e+02	4.91500e+03	-5.51133e-03	4.49583e+02
4923	4.50017e+02	4.92300e+03	-5.41566e-03	4.50250e+02
4931	4.50678e+02	4.93100e+03	-5.39212e-03	4.50917e+02
4939	4.51339e+02	4.93900e+03	-5.44797e-03	4.51583e+02
4947	4.52002e+02	4.94700e+03	-5.46116e-03	4.52250e+02
4955	4.52655e+02	4.95500e+03	-5.53319e-03	4.52917e+02
4963	4.53323e+02	4.96300e+03	-5.56276e-03	4.53583e+02
4971	4.53992e+02	4.97100e+03	-5.52068e-03	4.54250e+02
4979	4.54652e+02	4.97900e+03	-5.50350e-03	4.54917e+02
4987	4.55319e+02	4.98700e+03	-5.49582e-03	4.55583e+02
4995	4.55978e+02	4.99500e+03	-5.53119e-03	4.56250e+02
5003	4.56643e+02	5.00300e+03	-5.58277e-03	4.56917e+02
5011	4.57302e+02	5.01100e+03	-5.52195e-03	4.57583e+02
5019	4.57947e+02	5.01900e+03	-5.44640e-03	4.58250e+02
5027	4.58617e+02	5.02700e+03	-5.46475e-03	4.58917e+02
5035	4.59278e+02	5.03500e+03	-5.58171e-03	4.59583e+02
5043	4.59941e+02	5.04300e+03	-5.51993e-03	4.60250e+02
5051	4.60605e+02	5.05100e+03	-5.56631e-03	4.60917e+02
5059	4.61270e+02	5.05900e+03	-5.41798e-03	4.61583e+02
5067	4.61935e+02	5.06700e+03	-5.46277e-03	4.62250e+02
5075	4.62586e+02	5.07500e+03	-5.54304e-03	4.62917e+02
5083	4.63249e+02	5.08300e+03	-5.49739e-03	4.63583e+02
5091	4.63917e+02	5.09100e+03	-5.41290e-03	4.64250e+02
5099	4.64586e+02	5.09900e+03	-5.42291e-03	4.64917e+02
5107	4.65242e+02	5.10700e+03	-5.45172e-03	4.65583e+02
5115	4.65907e+02	5.11500e+03	-5.44295e-03	4.66250e+02
5123	4.66557e+02	5.12300e+03	-5.39901e-03	4.66917e+02
5131	4.67232e+02	5.13100e+03	-5.32888e-03	4.67583e+02
5139	4.67896e+02	5.13900e+03	-5.38275e-03	4.68250e+02
5147	4.68548e+02	5.14700e+03	-5.47588e-03	4.68917e+02
5155	4.69223e+02	5.15500e+03	-5.53509e-03	4.69583e+02
5163	4.69876e+02	5.16300e+03	-5.60809e-03	4.70250e+02
5171	4.70535e+02	5.17100e+03	-5.60093e-03	4.70917e+02
5179	4.71196e+02	5.17900e+03	-5.46392e-03	4.71583e+02
5187	4.71860e+02	5.18700e+03	-5.56451e-03	4.72250e+02
5195	4.72518e+02	5.19500e+03	-5.42795e-03	4.72917e+02
5203	4.73180e+02	5.20300e+03	-5.36144e-03	4.73583e+02
5211	4.73847e+02	5.21100e+03	-5.35719e-03	4.74250e+02
5219	4.74505e+02	5.21900e+03	-5.45344e-03	4.74917e+02
5227	4.75176e+02	5.22700e+03	-5.43691e-03	4.75583e+02
5235	4.75820e+02	5.23500e+03	-5.43664e-03	4.76250e+02
5243	4.76490e+02	5.24300e+03	-5.32749e-03	4.76917e+02
5251	4.77137e+02	5.25100e+03	-5.39223e-03	4.77583e+02
5259	4.77801e+02	5.25900e+03	-5.46590e-03	4.78250e+02
5267	4.78465e+02	5.26700e+03	-5.48078e-03	4.78917e+02
5275	4.79134e+02	5.27500e+03	-5.52460e-03	4.79583e+02
5283	4.79793e+02	5.28300e+03	-5.54631e-03	4.80250e+02
5291	4.80445e+02	5.29100e+03	-5.55341e-03	4.80917e+02
5299	4.81122e+02	5.29900e+03	-5.49782e-03	4.81583e+02
5307	4.81780e+02	5.30700e+03	-5.49174e-03	4.82250e+02
5315	4.82439e+02	5.31500e+03	-5.48882e-03	4.82917e+02
5323	4.83097e+02	5.32300e+03	-5.42269e-03	4.83583e+02
5331	4.83759e+02	5.33100e+03	-5.43505e-03	4.84250e+02
5339	4.84403e+02	5.33900e+03	-5.43081e-03	4.84917e+02
5347	4.85077e+02	5.34700e+03	-5.46102e-03	4.85583e+02
5355	4.85748e+02	5.35500e+03	-5.41747e-03	4.86250e+02
5363	4.86397e+02	5.36300e+03	-5.46360e-03	4.86917e+02
5371	4.87066e+02	5.37100e+03	-5.48278e-03	4.87583e+02
5379	4.87723e+02	5.37900e+03	-5.61568e-03	4.88250e+02
5387	4.88386e+02	5.38700e+03	-5.62757e-03	4.88917e+02
5395	4.89048e+02	5.39500e+03	-5.53471e-03	4.89583e+02
5403	4.89712e+02	5.40300e+03	-5.54572e-03	4.90250e+02
5411	4.90379e+02	5.41100e+03	-5.51371e-03	4.90917e+02
5419	4.91037e+02	5.41900e+03	-5.47416e-03	4.91583e+02
5427	4.91706e+02	5.42700e+03	-5.43531e-03	4.92250e+02
5435	4.92358e+02	5.43500e+03	-5.41601e-03	4.92917e+02
5443	4.93024e+02	5.44300e+03	-5.55468e-03	4.93583e+02
5451	4.93697e+02	5.45100e+03	-5.52901e-03	4.94250e+02
5459	4.94348e+02	5.45900e+03	-5.45554e-03	4.94917e+02
5467	4.95008e+02	5.46700e+03	-5.51083e-03	4.95583e+02
5475	4.95686e+02	5.47500e+03	-5.58618e-03	4.96250e+02
5483	4.96341e+02	5.48300e+03	-5.64621e-03	4.96917e+02
5491	4.97006e+02	5.49100e+03	-5.57610e-03	4.97583e+02
5499	4.97671e+02	5.49900e+03	-5.49643e-03	4.98250e+02
5507	4.98342e+02	5.50700e+03	-5.49281e-03	4.98917e+02
5515	4.98995e+02	5.51500e+03	-5.55020e-03	4.99583e+02
5523	4.99655e+02	5.52300e+03	-5.59000e-03	5.00250e+02
5531	5.00323e+02	5.53100e+03	-5.44859e-03	5.00917e+02
5539	5.00990e+02	5.53900e+03	-5.45563e-03	5.01583e+02
5547	5.01634e+02	5.54700e+03	-5.47829e-03	5.02250e+02
5555	5.02312e+02	5.55500e+03	-5.42934e-03	5.02917e+02
5563	5.02978e+02	5.56300e+03	-5.34789e-03	5.03583e+02
5571	5.03636e+02	5.57100e+03	-5.37922e-03	5.04250e+02
5579	5.04306e+02	5.57900e+03	-5.42620e-03	5.04917e+02
5587	5.04978e+02	5.58700e+03	-5.37800e-03	5.05583e+02
5595	5.05631e+02	5.59500e+03	-5.39503e-03	5.06250e+02
5603	5.06304e+02	5.60300e+03	-5.46035e-03	5.06917e+02
5611	5.06980e+02	5.61100e+03	-5.50719e-03	5.07583e+02
5619	5.07633e+02	5.61900e+03	-5.39687e-03	5.08250e+02
5627	5.08291e+02	5.62700e+03	-5.33292e-03	5.08917e+02
5635	5.08958e+02	5.63500e+03	-5.28079e-03	5.09583e+02
5643	5.09622e+02	5.64300e+03	-5.32393e-03	5.10250e+02
5651	5.10273e+02	5.65100e+03	-5.27642e-03	5.10917e+02
5659	5.10939e+02	5.65900e+03	-5.31540e-03	5.11583e+02
5667	5.11606e+02	5.66700e+03	-5.21249e-03	5.12250e+02
5675	5.12275e+02	5.67500e+03	-5.19323e-03	5.12917e+02
5683	5.12930e+02	5.68300e+03	-5.27704e-03	5.13583e+02
5691	5.13604e+02	5.69100e+03	-5.29962e-03	5.14250e+02
5699	5.14274e+02	5.69900e+03	-5.27093e-03	5.14917e+02
5707	5.14931e+02	5.70700e+03	-5.28654e-03	5.15583e+02
5715	5.15596e+02	5.71500e+03	-5.25954e-03	5.16250e+02
5723	5.16262e+02	5.72300e+03	-5.24295e-03	5.16917e+02
5731	5.16930e+02	5.73100e+03	-5.32530e-03	5.17583e+02
5739	5.17597e+02	5.73900e+03	-5.32092e-03	5.18250e+02
5747	5.18260e+02	5.74700e+03	-5.29903e-03	5.18917e+02
5755	5.18925e+02	5.75500e+03	-5.25211e-03	5.19583e+02
5763	5.19589e+02	5.76300e+03	-5.19583e-03	5.20250e+02
5771	5.20252e+02	5.77100e+03	-5.20710e-03	5.20917e+02
5779	5.20908e+02	5.77900e+03	-5.20994e-03	5.21583e+02
5787	5.21569e+02	5.78700e+03	-5.16526e-03	5.22250e+02
5795	5.22232e+02	5.79500e+03	-5.21600e-03	5.22917e+02
5803	5.22908e+02	5.80300e+03	-5.20683e-03	5.23583e+02
5811	5.23570e+02	5.81100e+03	-5.22009e-03	5.24250e+02
5819	5.24229e+02	5.81900e+03	-5.32526e-03	5.24917e+02
5827	5.24902e+02	5.82700e+03	-5.34442e-03	5.25583e+02
5835	5.25560e+02	5.83500e+03	-5.33354e-03	5.26250e+02
5843	5.26224e+02	5.84300e+03	-5.37555e-03	5.26917e+02
5851	5.26883e+02	5.85100e+03	-5.33249e-03	5.27583e+02
5859	5.27548e+02	5.85900e+03	-5.19851e-03	5.28250e+02
5867	5.28219e+02	5.86700e+03	-5.27750e-03	5.28917e+02
5875	5.28878e+02	5.87500e+03	-5.31420e-03	5.29583e+02
5883	5.29547e+02	5.88300e+03	-5.24081e-03	5.30250e+02
5891	5.30211e+02	5.89100e+03	-5.18584e-03	5.30917e+02
5899	5.30871e+02	5.89900e+03	-5.17877e-03	5.31583e+02
5907	5.31547e+02	5.90700e+03	-5.08542e-03	5.32250e+02
5915	5.32205e+02	5.91500e+03	-5.17915e-03	5.32917e+02
5923	5.32872e+02	5.92300e+03	-5.16626e-03	5.33583e+02
5931	5.33534e+02	5.93100e+03	-5.03585e-03	5.34250e+02
5939	5.34198e+02	5.93900e+03	-5.16147e-03	5.34917e+02
5947	5.34864e+02	5.94700e+03	-5.17779e-03	5.35583e+02
5955	5.35525e+02	5.95500e+03	-5.16867e-03	5.36250e+02
5963	5.36200e+02	5.96300e+03	-5.14864e-03	5.36917e+02
5971	5.36866e+02	5.97100e+03	-5.06187e-03	5.37583e+02
5979	5.37528e+02	5.97900e+03	-5.06161e-03	5.38250e+02
5987	5.38197e+02	5.98700e+03	-5.25746e-03	5.38917e+02
5995	5.38854e+02	5.99500e+03	-5.33723e-03	5.39583e+02
6003	5.39518e+02	6.00300e+03	-5.33365e-03	5.40250e+02
6011	5.40176e+02	6.01100e+03	-5.35609e-03	5.40917e+02
6019	5.40842e+02	6.01900e+03	-5.31290e-03	5.41583e+02
6027	5.41512e+02	6.02700e+03	-5.30884e-03	5.42250e+02
6035	5.42182e+02	6.03500e+03	-5.31036e-03	5.42917e+02
6043	5.42837e+02	6.04300e+03	-5.31962e-03	5.43583e+02
6051	5.43506e+02	6.05100e+03	-5.35555e-03	5.44250e+02
6059	5.44168e+02	6.05900e+03	-5.44227e-03	5.44917e+02
6067	5.44835e+02	6.06700e+03	-5.38672e-03	5.45583e+02
6075	5.45500e+02	6.07500e+03	-5.32513e-03	5.46250e+02
6083	5.46160e+02	6.08300e+03	-5.26950e-03	5.46917e+02
6091	5.46821e+02	6.09100e+03	-5.37921e-03	5.47583e+02
6099	5.47502e+02	6.09900e+03	-5.31191e-03	5.48250e+02
6107	5.48174e+02	6.10700e+03	-5.25420e-03	5.48917e+02
6115	5.48842e+02	6.11500e+03	-5.17979e-03	5.49583e+02
6123	5.49498e+02	6.12300e+03	-5.17902e-03	5.50250e+02
6131	5.50170e+02	6.13100e+03	-5.33201e-03	5.50917e+02
6139	5.50840e+02	6.13900e+03	-5.39750e-03	5.51583e+02
6147	5.51505e+02	6.14700e+03	-5.34809e-03	5.52250e+02
6155	5.52171e+02	6.15500e+03	-5.21983e-03	5.52917e+02
6163	5.52833e+02	6.16300e+03	-5.25627e-03	5.53583e+02
6171	5.53496e+02	6.17100e+03	-5.27609e-03	5.54250e+02
6179	5.54162e+02	6.17900e+03	-5.14484e-03	5.54917e+02
6187	5.54835e+02	6.18700e+03	-5.10487e-03	5.55583e+02
6195	5.55499e+02	6.19500e+03	-5.21408e-03	5.56250e+02
6203	5.56167e+02	6.20300e+03	-5.27447e-03	5.56917e+02
6211	5.56835e+02	6.21100e+03	-5.26249e-03	5.57583e+02
6219	5.57499e+02	6.21900e+03	-5.14357e-03	5.58250e+02
6227	5.58153e+02	6.22700e+03	-5.09297e-03	5.58917e+02
6235	5.58819e+02	6.23500e+03	-5.19960e-03	5.59583e+02
6243	5.59488e+02	6.24300e+03	-5.26167e-03	5.60250e+02
6251	5.60167e+02	6.25100e+03	-5.30093e-03	5.60917e+02
6259	5.60820e+02	6.25900e+03	-5.32024e-03	5.61583e+02
6267	5.61492e+02	6.26700e+03	-5.24424e-03	5.62250e+02
6275	5.62156e+02	6.27500e+03	-5.21806e-03	5.62917e+02
6283	5.62818e+02	6.28300e+03	-5.21134e-03	5.63583e+02
6291	5.63487e+02	6.29100e+03	-5.23047e-03	5.64250e+02
6299	5.64164e+02	6.29900e+03	-5.13099e-03	5.64917e+02
6307	5.64831e+02	6.30700e+03	-5.15928e-03	5.65583e+02
6315	5.65498e+02	6.31500e+03	-5.15825e-03	5.66250e+02
6323	5.66164e+02	6.32300e+03	-5.07176e-03	5.66917e+02
6331	5.66825e+02	6.33100e+03	-5.13382e-03	5.67583e+02
6339	5.67499e+02	6.33900e+03	-5.06827e-03	5.68250e+02
6347	5.68160e+02	6.34700e+03	-5.08523e-03	5.68917e+02
6355	5.68823e+02	6.35500e+03	-5.13991e-03	5.69583e+02
6363	5.69493e+02	6.36300e+03	-5.15880e-03	5.70250e+02
6371	5.70155e+02	6.37100e+03	-5.15009e-03	5.70917e+02
6379	5.70819e+02	6.37900e+03	-5.07818e-03	5.71583e+02
6387	5.71482e+02	6.38700e+03	-5.12145e-03	5.72250e+02
6395	5.72157e+02	6.39500e+03	-5.10487e-03	5.72917e+02
6403	5.72815e+02	6.40300e+03	-4.94524e-03	5.73583e+02
6411	5.73482e+02	6.41100e+03	-4.84480e-03	5.74250e+02
6419	5.74152e+02	6.41900e+03	-4.89032e-03	5.74917e+02
6427	5.74820e+02	6.42700e+03	-4.93087e-03	5.75583e+02
6435	5.75477e+02	6.43500e+03	-4.98897e-03	5.76250e+02
6443	5.76146e+02	6.44300e+03	-5.06779e-03	5.76917e+02
6451	5.76822e+02	6.45100e+03	-4.95975e-03	5.77583e+02
6459	5.77486e+02	6.45900e+03	-4.95506e-03	5.78250e+02
6467	5.78141e+02	6.46700e+03	-5.00515e-03	5.78917e+02
6475	5.78809e+02	6.47500e+03	-5.01315e-03	5.79583e+02
6483	5.79483e+02	6.48300e+03	-4.92698e-03	5.80250e+02
6491	5.80141e+02	6.49100e+03	-4.83208e-03	5.80917e+02
6499	5.80817e+02	6.49900e+03	-4.86956e-03	5.81583e+02
6507	5.81489e+02	6.50700e+03	-4.93025e-03	5.82250e+02
6515	5.82149e+02	6.51500e+03	-4.85539e-03	5.82917e+02
6523	5.82814e+02	6.52300e+03	-4.76486e-03	5.83583e+02
6531	5.83484e+02	6.53100e+03	-4.85908e-03	5.84250e+02
6539	5.84148e+02	6.53900e+03	-4.88760e-03	5.84917e+02
6547	5.84818e+02	6.54700e+03	-4.77414e-03	5.85583e+02
6555	5.85482e+02	6.55500e+03	-4.80362e-03	5.86250e+02
6563	5.86145e+02	6.56300e+03	-4.86093e-03	5.86917e+02
6571	5.86814e+02	6.57100e+03	-4.84338e-03	5.87583e+02
6579	5.87491e+02	6.57900e+03	-4.87342e-03	5.88250e+02
6587	5.88150e+02	6.58700e+03	-4.91096e-03	5.88917e+02
6595	5.88818e+02	6.59500e+03	-4.92321e-03	5.89583e+02
6603	5.89474e+02	6.60300e+03	-4.82882e-03	5.90250e+02
6611	5.90131e+02	6.61100e+03	-4.87901e-03	5.90917e+02
6619	5.90804e+02	6.61900e+03	-4.92718e-03	5.91583e+02
6627	5.91467e+02	6.62700e+03	-4.90316e-03	5.92250e+02
6635	5.92148e+02	6.63500e+03	-4.84889e-03	5.92917e+02
6643	5.92815e+02	6.64300e+03	-4.83706e-03	5.93583e+02
6651	5.93486e+02	6.65100e+03	-4.89876e-03	5.94250e+02
6659	5.94142e+02	6.65900e+03	-4.88172e-03	5.94917e+02
6667	5.94823e+02	6.66700e+03	-4.91607e-03	5.95583e+02
6675	5.95482e+02	6.67500e+03	-4.98643e-03	5.96250e+02
6683	5.96149e+02	6.68300e+03	-4.87142e-03	5.96917e+02
6691	5.96817e+02	6.69100e+03	-4.94540e-03	5.97583e+02
6699	5.97483e+02	6.69900e+03	-4.94408e-03	5.98250e+02
6707	5.98148e+02	6.70700e+03	-4.92094e-03	5.98917e+02
6715	5.98813e+02	6.71500e+03	-4.80611e-03	5.99583e+02
6723	5.99477e+02	6.72300e+03	-4.73953e-03	6.00250e+02
6731	6.00143e+02	6.73100e+03	-4.76679e-03	6.00917e+02
6739	6.00816e+02	6.73900e+03	-4.91096e-03	6.01583e+02
6747	6.01477e+02	6.74700e+03	-4.92057e-03	6.02250e+02
6755	6.02155e+02	6.75500e+03	-5.06867e-03	6.02917e+02
6763	6.02816e+02	6.76300e+03	-5.01385e-03	6.03583e+02
6771	6.03477e+02	6.77100e+03	-5.08634e-03	6.04250e+02
6779	6.04140e+02	6.77900e+03	-4.99811e-03	6.04917e+02
6787	6.04812e+02	6.78700e+03	-4.88357e-03	6.05583e+02
6795	6.05480e+02	6.79500e+03	-4.98208e-03	6.06250e+02
6803	6.06143e+02	6.80300e+03	-5.09495e-03	6.06917e+02
6811	6.06807e+02	6.81100e+03	-5.09876e-03	6.07583e+02
6819	6.07487e+02	6.81900e+03	-4.99545e-03	6.08250e+02
6827	6.08152e+02	6.82700e+03	-4.95508e-03	6.08917e+02
6835	6.08828e+02	6.83500e+03	-4.99655e-03	6.09583e+02
6843	6.09495e+02	6.84300e+03	-4.89200e-03	6.10250e+02
6851	6.10173e+02	6.85100e+03	-4.80337e-03	6.10917e+02
6859	6.10846e+02	6.85900e+03	-4.83317e-03	6.11583e+02
6867	6.11497e+02	6.86700e+03	-4.87037e-03	6.12250e+02
6875	6.12174e+02	6.87500e+03	-4.98681e-03	6.12917e+02
6883	6.12841e+02	6.88300e+03	-4.82194e-03	6.13583e+02
6891	6.13509e+02	6.89100e+03	-4.75655e-03	6.14250e+02
6899	6.14174e+02	6.89900e+03	-4.85428e-03	6.14917e+02
6907	6.14837e+02	6.90700e+03	-4.85518e-03	6.15583e+02
6915	6.15512e+02	6.91500e+03	-4.96134e-03	6.16250e+02
6923	6.16185e+02	6.92300e+03	-5.09501e-03	6.16917e+02
6931	6.16851e+02	6.93100e+03	-5.04243e-03	6.17583e+02
6939	6.17517e+02	6.93900e+03	-4.96833e-03	6.18250e+02
6947	6.18182e+02	6.94700e+03	-4.91919e-03	6.18917e+02
6955	6.18851e+02	6.95500e+03	-4.90083e-03	6.19583e+02
6963	6.19523e+02	6.96300e+03	-4.99342e-03	6.20250e+02
6971	6.20183e+02	6.97100e+03	-4.93547e-03	6.20917e+02
6979	6.20848e+02	6.97900e+03	-4.87527e-03	6.21583e+02
6987	6.21516e+02	6.98700e+03	-4.83041e-03	6.22250e+02
6995	6.22197e+02	6.99500e+03	-4.88862e-03	6.22917e+02
7003	6.22860e+02	7.00300e+03	-5.03316e-03	6.23583e+02
7011	6.23517e+02	7.01100e+03	-5.08526e-03	6.24250e+02
7019	6.24186e+02	7.01900e+03	-5.01653e-03	6.24917e+02
7027	6.24853e+02	7.02700e+03	-4.96508e-03	6.25583e+02
7035	6.25524e+02	7.03500e+03	-5.01866e-03	6.26250e+02
7043	6.26192e+02	7.04300e+03	-4.97097e-03	6.26917e+02
7051	6.26867e+02	7.05100e+03	-5.03230e-03	6.27583e+02
7059	6.27528e+02	7.05900e+03	-4.98314e-03	6.28250e+02
7067	6.28203e+02	7.06700e+03	-4.96238e-03	6.28917e+02
7075	6.28878e+02	7.07500e+03	-5.00661e-03	6.29583e+02
7083	6.29552e+02	7.08300e+03	-4.95211e-03	6.30250e+02
7091	6.30209e+02	7.09100e+03	-4.91614e-03	6.30917e+02
7099	6.30885e+02	7.09900e+03	-4.91527e-03	6.31583e+02
7107	6.31550e+02	7.10700e+03	-5.01229e-03	6.32250e+02
7115	6.32214e+02	7.11500e+03	-5.06311e-03	6.32917e+02
7123	6.32888e+02	7.12300e+03	-5.02648e-03	6.33583e+02
7131	6.33551e+02	7.13100e+03	-4.99427e-03	6.34250e+02
7139	6.34221e+02	7.13900e+03	-4.92472e-03	6.34917e+02
7147	6.34886e+02	7.14700e+03	-4.88331e-03	6.35583e+02
7155	6.35553e+02	7.15500e+03	-5.13699e-03	6.36250e+02
7163	6.36220e+02	7.16300e+03	-5.30935e-03	6.36917e+02
7171	6.36898e+02	7.17100e+03	-5.14476e-03	6.37583e+02
7179	6.37564e+02	7.17900e+03	-5.05391e-03	6.38250e+02
7187	6.38232e+02	7.18700e+03	-5.00025e-03	6.38917e+02
7195	6.38902e+02	7.19500e+03	-5.09211e-03	6.39583e+02
7203	6.39564e+02	7.20300e+03	-5.18724e-03	6.40250e+02
7211	6.40236e+02	7.21100e+03	-5.18496e-03	6.40917e+02
7219	6.40900e+02	7.21900e+03	-5.01166e-03	6.41583e+02
7227	6.41571e+02	7.22700e+03	-5.03169e-03	6.42250e+02
7235	6.42235e+02	7.23500e+03	-5.05408e-03	6.42917e+02
7243	6.42901e+02	7.24300e+03	-5.15775e-03	6.43583e+02
7251	6.43577e+02	7.25100e+03	-5.21908e-03	6.44250e+02
7259	6.44236e+02	7.25900e+03	-5.18630e-03	6.44917e+02
7267	6.44901e+02	7.26700e+03	-5.18872e-03	6.45583e+02
7275	6.45569e+02	7.27500e+03	-5.14399e-03	6.46250e+02
7283	6.46240e+02	7.28300e+03	-5.12936e-03	6.46917e+02
7291	6.46915e+02	7.29100e+03	-5.14273e-03	6.47583e+02
7299	6.47581e+02	7.29900e+03	-5.20909e-03	6.48250e+02
7307	6.48247e+02	7.30700e+03	-5.22480e-03	6.48917e+02
7315	6.48906e+02	7.31500e+03	-5.23201e-03	6.49583e+02
7323	6.49592e+02	7.32300e+03	-5.21176e-03	6.50250e+02
7331	6.50264e+02	7.33100e+03	-5.13388e-03	6.50917e+02
7339	6.50919e+02	7.33900e+03	-5.19912e-03	6.51583e+02
7347	6.51591e+02	7.34700e+03	-5.18733e-03	6.52250e+02
7355	6.52261e+02	7.35500e+03	-5.13096e-03	6.52917e+02
7363	6.52920e+02	7.36300e+03	-5.15058e-03	6.53583e+02
7371	6.53601e+02	7.37100e+03	-5.08366e-03	6.54250e+02
7379	6.54270e+02	7.37900e+03	-5.15534e-03	6.54917e+02
7387	6.54943e+02	7.38700e+03	-5.24169e-03	6.55583e+02
7395	6.55610e+02	7.39500e+03	-5.19204e-03	6.56250e+02
7403	6.56286e+02	7.40300e+03	-5.14041e-03	6.56917e+02
7411	6.56940e+02	7.41100e+03	-5.12785e-03	6.57583e+02
7419	6.57612e+02	7.41900e+03	-5.11848e-03	6.58250e+02
7427	6.58289e+02	7.42700e+03	-5.21178e-03	6.58917e+02
7435	6.58955e+02	7.43500e+03	-5.10887e-03	6.59583e+02
7443	6.59619e+02	7.44300e+03	-5.06574e-03	6.60250e+02
7451	6.60280e+02	7.45100e+03	-5.13887e-03	6.60917e+02
7459	6.60962e+02	7.45900e+03	-5.14091e-03	6.61583e+02
7467	6.61626e+02	7.46700e+03	-5.21793e-03	6.62250e+02
7475	6.62302e+02	7.47500e+03	-5.20453e-03	6.62917e+02
7483	6.62964e+02	7.48300e+03	-5.16491e-03	6.63583e+02
7491	6.63630e+02	7.49100e+03	-5.05648e-03	6.64250e+02
7499	6.64296e+02	7.49900e+03	-4.94982e-03	6.64917e+02
7507	6.64971e+02	7.50700e+03	-5.00100e-03	6.65583e+02
7515	6.65643e+02	7.51500e+03	-5.03976e-03	6.66250e+02
7523	6.66315e+02	7.52300e+03	-4.98332e-03	6.66917e+02
7531	6.66975e+02	7.53100e+03	-4.84913e-03	6.67583e+02
7539	6.67650e+02	7.53900e+03	-4.81380e-03	6.68250e+02
7547	6.68326e+02	7.54700e+03	-4.81179e-03	6.68917e+02
7555	6.68987e+02	7.55500e+03	-4.75611e-03	6.69583e+02
7563	6.69649e+02	7.56300e+03	-4.76054e-03	6.70250e+02
7571	6.70318e+02	7.57100e+03	-4.75636e-03	6.70917e+02
7579	6.70993e+02	7.57900e+03	-4.76155e-03	6.71583e+02
7587	6.71655e+02	7.58700e+03	-4.74747e-03	6.72250e+02
7595	6.72317e+02	7.59500e+03	-4.74250e-03	6.72917e+02
7603	6.72981e+02	7.60300e+03	-4.76536e-03	6.73583e+02
7611	6.73654e+02	7.61100e+03	-4.84314e-03	6.74250e+02
7619	6.74319e+02	7.61900e+03	-4.84339e-03	6.74917e+02
7627	6.74986e+02	7.62700e+03	-4.84176e-03	6.75583e+02
7635	6.75668e+02	7.63500e+03	-4.87883e-03	6.76250e+02
7643	6.76338e+02	7.64300e+03	-4.77492e-03	6.76917e+02
7651	6.77003e+02	7.65100e+03	-4.68794e-03	6.77583e+02
7659	6.77671e+02	7.65900e+03	-4.79342e-03	6.78250e+02
7667	6.78348e+02	7.66700e+03	-4.73309e-03	6.78917e+02
7675	6.79013e+02	7.67500e+03	-4.73590e-03	6.79583e+02
7683	6.79680e+02	7.68300e+03	-4.78665e-03	6.80250e+02
7691	6.80352e+02	7.69100e+03	-4.75356e-03	6.80917e+02
7699	6.81021e+02	7.69900e+03	-4.75386e-03	6.81583e+02
7707	6.81696e+02	7.70700e+03	-4.76028e-03	6.82250e+02
7715	6.82354e+02	7.71500e+03	-4.77813e-03	6.82917e+02
7723	6.83022e+02	7.72300e+03	-4.79434e-03	6.83583e+02
7731	6.83697e+02	7.73100e+03	-4.87193e-03	6.84250e+02
7739	6.84372e+02	7.73900e+03	-4.87200e-03	6.84917e+02
7747	6.85036e+02	7.74700e+03	-4.80791e-03	6.85583e+02
7755	6.85703e+02	7.75500e+03	-4.68746e-03	6.86250e+02
7763	6.86388e+02	7.76300e+03	-4.75306e-03	6.86917e+02
7771	6.87050e+02	7.77100e+03	-4.74679e-03	6.87583e+02
7779	6.87718e+02	7.77900e+03	-4.67351e-03	6.88250e+02
7787	6.88389e+02	7.78700e+03	-4.66655e-03	6.88917e+02
7795	6.89059e+02	7.79500e+03	-4.67397e-03	6.89583e+02
7803	6.89725e+02	7.80300e+03	-4.55003e-03	6.90250e+02
7811	6.90396e+02	7.81100e+03	-4.58413e-03	6.90917e+02
7819	6.91064e+02	7.81900e+03	-4.70487e-03	6.91583e+02
7827	6.91740e+02	7.82700e+03	-4.73301e-03	6.92250e+02
7835	6.92409e+02	7.83500e+03	-4.80239e-03	6.92917e+02
7843	6.93080e+02	7.84300e+03	-4.73386e-03	6.93583e+02
7851	6.93747e+02	7.85100e+03	-4.76177e-03	6.94250e+02
7859	6.94423e+02	7.85900e+03	-4.86902e-03	6.94917e+02
7867	6.95088e+02	7.86700e+03	-4.98431e-03	6.95583e+02
7875	6.95756e+02	7.87500e+03	-4.94524e-03	6.96250e+02
7883	6.96427e+02	7.88300e+03	-4.85996e-03	6.96917e+02
7891	6.97107e+02	7.89100e+03	-4.84467e-03	6.97583e+02
7899	6.97611e+02	7.89900e+03	-4.65872e-03	6.98250e+02
7907	6.98057e+02	7.90700e+03	-4.53217e-03	6.98917e+02
7915	6.98409e+02	7.91500e+03	-4.74056e-03	6.99583e+02
7920	6.98585e+02	7.92000e+03	-4.80549e-03	7.00000e+02