File: Experiments/TGA/TUBS/tga_nonisotherm/tga_dynamic_n2_dyn30_piece_2mg_r3.txt
index	ts	t	weight	tr
[#]	[°C]	[s]	[mg]	[°C]
683	1.30898e+02	6.83000e+02	1.99695e+00	1.31500e+02
685	1.31907e+02	6.85000e+02	1.99689e+00	1.32500e+02
687	1.32906e+02	6.87000e+02	1.99685e+00	1.33500e+02
689	1.33896e+02	6.89000e+02	1.99682e+00	1.34500e+02
691	1.34892e+02	6.91000e+02	1.99680e+00	1.35500e+02
693	1.35903e+02	6.93000e+02	1.99678e+00	1.36500e+02
695	1.36889e+02	6.95000e+02	1.99676e+00	1.37500e+02
697	1.37895e+02	6.97000e+02	1.99671e+00	1.38500e+02
699	1.38898e+02	6.99000e+02	1.99666e+00	1.39500e+02
701	1.39899e+02	7.01000e+02	1.99659e+00	1.40500e+02
703	1.40902e+02	7.03000e+02	1.99654e+00	1.41500e+02
705	1.41900e+02	7.05000e+02	1.99650e+00	1.42500e+02
707	1.42906e+02	7.07000e+02	1.99645e+00	1.43500e+02
709	1.43905e+02	7.09000e+02	1.99640e+00	1.44500e+02
711	1.44901e+02	7.11000e+02	1.99635e+00	1.45500e+02
713	1.45903e+02	7.13000e+02	1.99631e+00	1.46500e+02
715	1.46917e+02	7.15000e+02	1.99629e+00	1.47500e+02
717	1.47914e+02	7.17000e+02	1.99630e+00	1.48500e+02
719	1.48918e+02	7.19000e+02	1.99630e+00	1.49500e+02
721	1.49908e+02	7.21000e+02	1.99627e+00	1.50500e+02
723	1.50922e+02	7.23000e+02	1.99622e+00	1.51500e+02
725	1.51916e+02	7.25000e+02	1.99614e+00	1.52500e+02
727	1.52917e+02	7.27000e+02	1.99606e+00	1.53500e+02
729	1.53919e+02	7.29000e+02	1.99599e+00	1.54500e+02
731	1.54941e+02	7.31000e+02	1.99591e+00	1.55500e+02
733	1.55932e+02	7.33000e+02	1.99582e+00	1.56500e+02
735	1.56929e+02	7.35000e+02	1.99574e+00	1.57500e+02
737	1.57930e+02	7.37000e+02	1.99567e+00	1.58500e+02
739	1.58947e+02	7.39000e+02	1.99562e+00	1.59500e+02
741	1.59942e+02	7.41000e+02	1.99558e+00	1.60500e+02
743	1.60954e+02	7.43000e+02	1.99553e+00	1.61500e+02
745	1.61943e+02	7.45000e+02	1.99548e+00	1.62500e+02
747	1.62961e+02	7.47000e+02	1.99543e+00	1.63500e+02
749	1.63977e+02	7.49000e+02	1.99538e+00	1.64500e+02
751	1.64977e+02	7.51000e+02	1.99534e+00	1.65500e+02
753	1.65982e+02	7.53000e+02	1.99531e+00	1.66500e+02
755	1.66988e+02	7.55000e+02	1.99527e+00	1.67500e+02
757	1.67997e+02	7.57000e+02	1.99521e+00	1.68500e+02
759	1.69011e+02	7.59000e+02	1.99512e+00	1.69500e+02
761	1.70028e+02	7.61000e+02	1.99500e+00	1.70500e+02
763	1.71033e+02	7.63000e+02	1.99488e+00	1.71500e+02
765	1.72037e+02	7.65000e+02	1.99476e+00	1.72500e+02
767	1.73045e+02	7.67000e+02	1.99465e+00	1.73500e+02
769	1.74052e+02	7.69000e+02	1.99455e+00	1.74500e+02
771	1.75063e+02	7.71000e+02	1.99445e+00	1.75500e+02
773	1.76073e+02	7.73000e+02	1.99435e+00	1.76500e+02
775	1.77086e+02	7.75000e+02	1.99426e+00	1.77500e+02
777	1.78096e+02	7.77000e+02	1.99417e+00	1.78500e+02
779	1.79098e+02	7.79000e+02	1.99406e+00	1.79500e+02
781	1.80108e+02	7.81000e+02	1.99391e+00	1.80500e+02
783	1.81130e+02	7.83000e+02	1.99377e+00	1.81500e+02
785	1.82142e+02	7.85000e+02	1.99363e+00	1.82500e+02
787	1.83152e+02	7.87000e+02	1.99351e+00	1.83500e+02
789	1.84160e+02	7.89000e+02	1.99341e+00	1.84500e+02
791	1.85170e+02	7.91000e+02	1.99328e+00	1.85500e+02
793	1.86195e+02	7.93000e+02	1.99311e+00	1.86500e+02
795	1.87200e+02	7.95000e+02	1.99292e+00	1.87500e+02
797	1.88202e+02	7.97000e+02	1.99268e+00	1.88500e+02
799	1.89231e+02	7.99000e+02	1.99244e+00	1.89500e+02
801	1.90236e+02	8.01000e+02	1.99220e+00	1.90500e+02
803	1.91256e+02	8.03000e+02	1.99197e+00	1.91500e+02
805	1.92277e+02	8.05000e+02	1.99173e+00	1.92500e+02
807	1.93287e+02	8.07000e+02	1.99147e+00	1.93500e+02
809	1.94307e+02	8.09000e+02	1.99119e+00	1.94500e+02
811	1.95310e+02	8.11000e+02	1.99090e+00	1.95500e+02
813	1.96329e+02	8.13000e+02	1.99059e+00	1.96500e+02
815	1.97332e+02	8.15000e+02	1.99025e+00	1.97500e+02
817	1.98354e+02	8.17000e+02	1.98989e+00	1.98500e+02
819	1.99361e+02	8.19000e+02	1.98953e+00	1.99500e+02
821	2.00372e+02	8.21000e+02	1.98914e+00	2.00500e+02
823	2.01374e+02	8.23000e+02	1.98875e+00	2.01500e+02
825	2.02380e+02	8.25000e+02	1.98835e+00	2.02500e+02
827	2.03391e+02	8.27000e+02	1.98795e+00	2.03500e+02
829	2.04407e+02	8.29000e+02	1.98753e+00	2.04500e+02
831	2.05405e+02	8.31000e+02	1.98711e+00	2.05500e+02
833	2.06413e+02	8.33000e+02	1.98668e+00	2.06500e+02
835	2.07428e+02	8.35000e+02	1.98625e+00	2.07500e+02
837	2.08441e+02	8.37000e+02	1.98578e+00	2.08500e+02
839	2.09442e+02	8.39000e+02	1.98532e+00	2.09500e+02
841	2.10469e+02	8.41000e+02	1.98482e+00	2.10500e+02
843	2.11479e+02	8.43000e+02	1.98433e+00	2.11500e+02
845	2.12493e+02	8.45000e+02	1.98384e+00	2.12500e+02
847	2.13504e+02	8.47000e+02	1.98335e+00	2.13500e+02
849	2.14511e+02	8.49000e+02	1.98288e+00	2.14500e+02
851	2.15529e+02	8.51000e+02	1.98242e+00	2.15500e+02
853	2.16539e+02	8.53000e+02	1.98199e+00	2.16500e+02
855	2.17545e+02	8.55000e+02	1.98154e+00	2.17500e+02
857	2.18564e+02	8.57000e+02	1.98109e+00	2.18500e+02
859	2.19575e+02	8.59000e+02	1.98063e+00	2.19500e+02
861	2.20580e+02	8.61000e+02	1.98015e+00	2.20500e+02
863	2.21601e+02	8.63000e+02	1.97968e+00	2.21500e+02
865	2.22600e+02	8.65000e+02	1.97921e+00	2.22500e+02
867	2.23619e+02	8.67000e+02	1.97875e+00	2.23500e+02
869	2.24648e+02	8.69000e+02	1.97830e+00	2.24500e+02
871	2.25685e+02	8.71000e+02	1.97783e+00	2.25500e+02
873	2.26709e+02	8.73000e+02	1.97735e+00	2.26500e+02
875	2.27726e+02	8.75000e+02	1.97685e+00	2.27500e+02
877	2.28754e+02	8.77000e+02	1.97631e+00	2.28500e+02
879	2.29768e+02	8.79000e+02	1.97576e+00	2.29500e+02
881	2.30800e+02	8.81000e+02	1.97519e+00	2.30500e+02
883	2.31817e+02	8.83000e+02	1.97464e+00	2.31500e+02
885	2.32817e+02	8.85000e+02	1.97410e+00	2.32500e+02
887	2.33843e+02	8.87000e+02	1.97356e+00	2.33500e+02
889	2.34849e+02	8.89000e+02	1.97301e+00	2.34500e+02
891	2.35861e+02	8.91000e+02	1.97245e+00	2.35500e+02
893	2.36868e+02	8.93000e+02	1.97189e+00	2.36500e+02
895	2.37868e+02	8.95000e+02	1.97133e+00	2.37500e+02
897	2.38879e+02	8.97000e+02	1.97080e+00	2.38500e+02
899	2.39887e+02	8.99000e+02	1.97027e+00	2.39500e+02
901	2.40900e+02	9.01000e+02	1.96973e+00	2.40500e+02
903	2.41906e+02	9.03000e+02	1.96918e+00	2.41500e+02
905	2.42923e+02	9.05000e+02	1.96859e+00	2.42500e+02
907	2.43943e+02	9.07000e+02	1.96800e+00	2.43500e+02
909	2.44945e+02	9.09000e+02	1.96738e+00	2.44500e+02
911	2.45956e+02	9.11000e+02	1.96677e+00	2.45500e+02
913	2.46969e+02	9.13000e+02	1.96615e+00	2.46500e+02
915	2.47979e+02	9.15000e+02	1.96554e+00	2.47500e+02
917	2.48986e+02	9.17000e+02	1.96495e+00	2.48500e+02
919	2.49989e+02	9.19000e+02	1.96436e+00	2.49500e+02
921	2.51011e+02	9.21000e+02	1.96380e+00	2.50500e+02
923	2.52027e+02	9.23000e+02	1.96323e+00	2.51500e+02
925	2.53052e+02	9.25000e+02	1.96265e+00	2.52500e+02
927	2.54076e+02	9.27000e+02	1.96205e+00	2.53500e+02
929	2.55084e+02	9.29000e+02	1.96143e+00	2.54500e+02
931	2.56088e+02	9.31000e+02	1.96082e+00	2.55500e+02
933	2.57118e+02	9.33000e+02	1.96018e+00	2.56500e+02
935	2.58129e+02	9.35000e+02	1.95954e+00	2.57500e+02
937	2.59146e+02	9.37000e+02	1.95889e+00	2.58500e+02
939	2.60182e+02	9.39000e+02	1.95823e+00	2.59500e+02
941	2.61226e+02	9.41000e+02	1.95757e+00	2.60500e+02
943	2.62243e+02	9.43000e+02	1.95691e+00	2.61500e+02
945	2.63255e+02	9.45000e+02	1.95626e+00	2.62500e+02
947	2.64276e+02	9.47000e+02	1.95563e+00	2.63500e+02
949	2.65293e+02	9.49000e+02	1.95502e+00	2.64500e+02
951	2.66323e+02	9.51000e+02	1.95440e+00	2.65500e+02
953	2.67331e+02	9.53000e+02	1.95375e+00	2.66500e+02
955	2.68351e+02	9.55000e+02	1.95308e+00	2.67500e+02
957	2.69393e+02	9.57000e+02	1.95238e+00	2.68500e+02
959	2.70436e+02	9.59000e+02	1.95170e+00	2.69500e+02
961	2.71443e+02	9.61000e+02	1.95103e+00	2.70500e+02
963	2.72471e+02	9.63000e+02	1.95036e+00	2.71500e+02
965	2.73483e+02	9.65000e+02	1.94969e+00	2.72500e+02
967	2.74511e+02	9.67000e+02	1.94899e+00	2.73500e+02
969	2.75522e+02	9.69000e+02	1.94824e+00	2.74500e+02
971	2.76534e+02	9.71000e+02	1.94754e+00	2.75500e+02
973	2.77565e+02	9.73000e+02	1.94691e+00	2.76500e+02
975	2.78586e+02	9.75000e+02	1.94626e+00	2.77500e+02
977	2.79596e+02	9.77000e+02	1.94545e+00	2.78500e+02
979	2.80624e+02	9.79000e+02	1.94442e+00	2.79500e+02
981	2.81661e+02	9.81000e+02	1.94303e+00	2.80500e+02
983	2.82673e+02	9.83000e+02	1.94173e+00	2.81500e+02
985	2.83692e+02	9.85000e+02	1.94039e+00	2.82500e+02
987	2.84716e+02	9.87000e+02	1.93915e+00	2.83500e+02
989	2.85760e+02	9.89000e+02	1.93803e+00	2.84500e+02
991	2.86840e+02	9.91000e+02	1.93692e+00	2.85500e+02
993	2.87852e+02	9.93000e+02	1.93587e+00	2.86500e+02
995	2.88888e+02	9.95000e+02	1.93478e+00	2.87500e+02
997	2.89977e+02	9.97000e+02	1.93370e+00	2.88500e+02
999	2.91007e+02	9.99000e+02	1.93261e+00	2.89500e+02
1001	2.92073e+02	1.00100e+03	1.93150e+00	2.90500e+02
1003	2.93070e+02	1.00300e+03	1.93037e+00	2.91500e+02
1005	2.94060e+02	1.00500e+03	1.92918e+00	2.92500e+02
1007	2.95097e+02	1.00700e+03	1.92799e+00	2.93500e+02
1009	2.96128e+02	1.00900e+03	1.92674e+00	2.94500e+02
1011	2.97125e+02	1.01100e+03	1.92550e+00	2.95500e+02
1013	2.98120e+02	1.01300e+03	1.92423e+00	2.96500e+02
1015	2.99122e+02	1.01500e+03	1.92293e+00	2.97500e+02
1017	3.00225e+02	1.01700e+03	1.92157e+00	2.98500e+02
1019	3.01218e+02	1.01900e+03	1.92018e+00	2.99500e+02
1021	3.02243e+02	1.02100e+03	1.91873e+00	3.00500e+02
1023	3.03229e+02	1.02300e+03	1.91727e+00	3.01500e+02
1025	3.04237e+02	1.02500e+03	1.91574e+00	3.02500e+02
1027	3.05254e+02	1.02700e+03	1.91420e+00	3.03500e+02
1029	3.06255e+02	1.02900e+03	1.91258e+00	3.04500e+02
1031	3.07290e+02	1.03100e+03	1.91094e+00	3.05500e+02
1033	3.08340e+02	1.03300e+03	1.90924e+00	3.06500e+02
1035	3.09348e+02	1.03500e+03	1.90754e+00	3.07500e+02
1037	3.10337e+02	1.03700e+03	1.90579e+00	3.08500e+02
1039	3.11331e+02	1.03900e+03	1.90400e+00	3.09500e+02
1041	3.12365e+02	1.04100e+03	1.90212e+00	3.10500e+02
1043	3.13361e+02	1.04300e+03	1.90022e+00	3.11500e+02
1045	3.14421e+02	1.04500e+03	1.89823e+00	3.12500e+02
1047	3.15419e+02	1.04700e+03	1.89626e+00	3.13500e+02
1049	3.16446e+02	1.04900e+03	1.89426e+00	3.14500e+02
1051	3.17472e+02	1.05100e+03	1.89225e+00	3.15500e+02
1053	3.18467e+02	1.05300e+03	1.89021e+00	3.16500e+02
1055	3.19462e+02	1.05500e+03	1.88815e+00	3.17500e+02
1057	3.20454e+02	1.05700e+03	1.88605e+00	3.18500e+02
1059	3.21480e+02	1.05900e+03	1.88392e+00	3.19500e+02
1061	3.22494e+02	1.06100e+03	1.88174e+00	3.20500e+02
1063	3.23491e+02	1.06300e+03	1.87954e+00	3.21500e+02
1065	3.24488e+02	1.06500e+03	1.87731e+00	3.22500e+02
1067	3.25524e+02	1.06700e+03	1.87509e+00	3.23500e+02
1069	3.26522e+02	1.06900e+03	1.87287e+00	3.24500e+02
1071	3.27547e+02	1.07100e+03	1.87063e+00	3.25500e+02
1073	3.28516e+02	1.07300e+03	1.86832e+00	3.26500e+02
1075	3.29481e+02	1.07500e+03	1.86596e+00	3.27500e+02
1077	3.30468e+02	1.07700e+03	1.86349e+00	3.28500e+02
1079	3.31478e+02	1.07900e+03	1.86099e+00	3.29500e+02
1081	3.32476e+02	1.08100e+03	1.85836e+00	3.30500e+02
1083	3.33477e+02	1.08300e+03	1.85568e+00	3.31500e+02
1085	3.34474e+02	1.08500e+03	1.85284e+00	3.32500e+02
1087	3.35479e+02	1.08700e+03	1.84992e+00	3.33500e+02
1089	3.36514e+02	1.08900e+03	1.84680e+00	3.34500e+02
1091	3.37529e+02	1.09100e+03	1.84362e+00	3.35500e+02
1093	3.38526e+02	1.09300e+03	1.84020e+00	3.36500e+02
1095	3.39537e+02	1.09500e+03	1.83670e+00	3.37500e+02
1097	3.40540e+02	1.09700e+03	1.83290e+00	3.38500e+02
1099	3.41516e+02	1.09900e+03	1.82900e+00	3.39500e+02
1101	3.42505e+02	1.10100e+03	1.82474e+00	3.40500e+02
1103	3.43498e+02	1.10300e+03	1.82037e+00	3.41500e+02
1105	3.44481e+02	1.10500e+03	1.81559e+00	3.42500e+02
1107	3.45484e+02	1.10700e+03	1.81069e+00	3.43500e+02
1109	3.46478e+02	1.10900e+03	1.80531e+00	3.44500e+02
1111	3.47484e+02	1.11100e+03	1.79978e+00	3.45500e+02
1113	3.48482e+02	1.11300e+03	1.79369e+00	3.46500e+02
1115	3.49459e+02	1.11500e+03	1.78744e+00	3.47500e+02
1117	3.50429e+02	1.11700e+03	1.78050e+00	3.48500e+02
1119	3.51432e+02	1.11900e+03	1.77330e+00	3.49500e+02
1121	3.52400e+02	1.12100e+03	1.76520e+00	3.50500e+02
1123	3.53390e+02	1.12300e+03	1.75683e+00	3.51500e+02
1125	3.54397e+02	1.12500e+03	1.74747e+00	3.52500e+02
1127	3.55372e+02	1.12700e+03	1.73791e+00	3.53500e+02
1129	3.56360e+02	1.12900e+03	1.72743e+00	3.54500e+02
1131	3.57391e+02	1.13100e+03	1.71673e+00	3.55500e+02
1133	3.58426e+02	1.13300e+03	1.70504e+00	3.56500e+02
1135	3.59426e+02	1.13500e+03	1.69304e+00	3.57500e+02
1137	3.60434e+02	1.13700e+03	1.67984e+00	3.58500e+02
1139	3.61398e+02	1.13900e+03	1.66616e+00	3.59500e+02
1141	3.62406e+02	1.14100e+03	1.65088e+00	3.60500e+02
1143	3.63381e+02	1.14300e+03	1.63505e+00	3.61500e+02
1145	3.64400e+02	1.14500e+03	1.61745e+00	3.62500e+02
1147	3.65398e+02	1.14700e+03	1.59953e+00	3.63500e+02
1149	3.66399e+02	1.14900e+03	1.58004e+00	3.64500e+02
1151	3.67393e+02	1.15100e+03	1.56025e+00	3.65500e+02
1153	3.68385e+02	1.15300e+03	1.53897e+00	3.66500e+02
1155	3.69354e+02	1.15500e+03	1.51730e+00	3.67500e+02
1157	3.70342e+02	1.15700e+03	1.49403e+00	3.68500e+02
1159	3.71321e+02	1.15900e+03	1.47032e+00	3.69500e+02
1161	3.72310e+02	1.16100e+03	1.44481e+00	3.70500e+02
1163	3.73285e+02	1.16300e+03	1.41880e+00	3.71500e+02
1165	3.74256e+02	1.16500e+03	1.39088e+00	3.72500e+02
1167	3.75258e+02	1.16700e+03	1.36262e+00	3.73500e+02
1169	3.76247e+02	1.16900e+03	1.33273e+00	3.74500e+02
1171	3.77242e+02	1.17100e+03	1.30270e+00	3.75500e+02
1173	3.78227e+02	1.17300e+03	1.27158e+00	3.76500e+02
1175	3.79224e+02	1.17500e+03	1.24043e+00	3.77500e+02
1177	3.80190e+02	1.17700e+03	1.20860e+00	3.78500e+02
1179	3.81183e+02	1.17900e+03	1.17661e+00	3.79500e+02
1181	3.82209e+02	1.18100e+03	1.14398e+00	3.80500e+02
1183	3.83219e+02	1.18300e+03	1.11118e+00	3.81500e+02
1185	3.84175e+02	1.18500e+03	1.07770e+00	3.82500e+02
1187	3.85170e+02	1.18700e+03	1.04407e+00	3.83500e+02
1189	3.86147e+02	1.18900e+03	1.00988e+00	3.84500e+02
1191	3.87172e+02	1.19100e+03	9.75684e-01	3.85500e+02
1193	3.88152e+02	1.19300e+03	9.41174e-01	3.86500e+02
1195	3.89158e+02	1.19500e+03	9.06700e-01	3.87500e+02
1197	3.90138e+02	1.19700e+03	8.72140e-01	3.88500e+02
1199	3.91158e+02	1.19900e+03	8.37627e-01	3.89500e+02
1201	3.92173e+02	1.20100e+03	8.03172e-01	3.90500e+02
1203	3.93203e+02	1.20300e+03	7.68802e-01	3.91500e+02
1205	3.94244e+02	1.20500e+03	7.34666e-01	3.92500e+02
1207	3.95478e+02	1.20700e+03	7.00657e-01	3.93500e+02
1209	3.96555e+02	1.20900e+03	6.66889e-01	3.94500e+02
1211	3.97697e+02	1.21100e+03	6.33029e-01	3.95500e+02
1213	3.98779e+02	1.21300e+03	5.99079e-01	3.96500e+02
1215	3.99842e+02	1.21500e+03	5.65030e-01	3.97500e+02
1217	4.00960e+02	1.21700e+03	5.30902e-01	3.98500e+02
1219	4.02092e+02	1.21900e+03	4.97000e-01	3.99500e+02
1221	4.03117e+02	1.22100e+03	4.63531e-01	4.00500e+02
1223	4.04123e+02	1.22300e+03	4.30461e-01	4.01500e+02
1225	4.05219e+02	1.22500e+03	3.98536e-01	4.02500e+02
1227	4.06211e+02	1.22700e+03	3.67274e-01	4.03500e+02
1229	4.07400e+02	1.22900e+03	3.37965e-01	4.04500e+02
1231	4.08513e+02	1.23100e+03	3.09395e-01	4.05500e+02
1233	4.09474e+02	1.23300e+03	2.83348e-01	4.06500e+02
1235	4.10409e+02	1.23500e+03	2.58031e-01	4.07500e+02
1237	4.11254e+02	1.23700e+03	2.35465e-01	4.08500e+02
1239	4.12227e+02	1.23900e+03	2.13510e-01	4.09500e+02
1241	4.13304e+02	1.24100e+03	1.94203e-01	4.10500e+02
1243	4.14301e+02	1.24300e+03	1.75409e-01	4.11500e+02
1245	4.15412e+02	1.24500e+03	1.59023e-01	4.12500e+02
1247	4.16456e+02	1.24700e+03	1.43103e-01	4.13500e+02
1249	4.17422e+02	1.24900e+03	1.29368e-01	4.14500e+02
1251	4.18385e+02	1.25100e+03	1.16060e-01	4.15500e+02
1253	4.19363e+02	1.25300e+03	1.04751e-01	4.16500e+02
1255	4.20348e+02	1.25500e+03	9.38448e-02	4.17500e+02
1257	4.21340e+02	1.25700e+03	8.47928e-02	4.18500e+02
1259	4.22345e+02	1.25900e+03	7.60912e-02	4.19500e+02
1261	4.23347e+02	1.26100e+03	6.90127e-02	4.20500e+02
1263	4.24336e+02	1.26300e+03	6.21613e-02	4.21500e+02
1265	4.25328e+02	1.26500e+03	5.66063e-02	4.22500e+02
1267	4.26337e+02	1.26700e+03	5.12361e-02	4.23500e+02
1269	4.27376e+02	1.26900e+03	4.69114e-02	4.24500e+02
1271	4.28397e+02	1.27100e+03	4.27335e-02	4.25500e+02
1273	4.29405e+02	1.27300e+03	3.93726e-02	4.26500e+02
1275	4.30438e+02	1.27500e+03	3.60910e-02	4.27500e+02
1277	4.31458e+02	1.27700e+03	3.34255e-02	4.28500e+02
1279	4.32475e+02	1.27900e+03	3.08623e-02	4.29500e+02
1281	4.33474e+02	1.28100e+03	2.88234e-02	4.30500e+02
1283	4.34488e+02	1.28300e+03	2.68618e-02	4.31500e+02
1285	4.35481e+02	1.28500e+03	2.53171e-02	4.32500e+02
1287	4.36485e+02	1.28700e+03	2.38006e-02	4.33500e+02
1289	4.37492e+02	1.28900e+03	2.25624e-02	4.34500e+02
1291	4.38489e+02	1.29100e+03	2.13450e-02	4.35500e+02
1293	4.39514e+02	1.29300e+03	2.03233e-02	4.36500e+02
1295	4.40515e+02	1.29500e+03	1.93404e-02	4.37500e+02
1297	4.41506e+02	1.29700e+03	1.85167e-02	4.38500e+02
1299	4.42533e+02	1.29900e+03	1.76950e-02	4.39500e+02
1301	4.43585e+02	1.30100e+03	1.69600e-02	4.40500e+02
1303	4.44621e+02	1.30300e+03	1.62223e-02	4.41500e+02
1305	4.45759e+02	1.30500e+03	1.55565e-02	4.42500e+02
1307	4.46806e+02	1.30700e+03	1.49342e-02	4.43500e+02
1309	4.47884e+02	1.30900e+03	1.44311e-02	4.44500e+02
1311	4.48939e+02	1.31100e+03	1.39545e-02	4.45500e+02
1313	4.49821e+02	1.31300e+03	1.35856e-02	4.46500e+02
1315	4.50833e+02	1.31500e+03	1.32312e-02	4.47500e+02
1317	4.51780e+02	1.31700e+03	1.29587e-02	4.48500e+02
1319	4.52759e+02	1.31900e+03	1.26923e-02	4.49500e+02
1321	4.53701e+02	1.32100e+03	1.24724e-02	4.50500e+02
1323	4.54688e+02	1.32300e+03	1.22548e-02	4.51500e+02
1325	4.55744e+02	1.32500e+03	1.20700e-02	4.52500e+02
1327	4.56904e+02	1.32700e+03	1.18868e-02	4.53500e+02
1329	4.57967e+02	1.32900e+03	1.17200e-02	4.54500e+02
1331	4.59356e+02	1.33100e+03	1.15532e-02	4.55500e+02
1333	4.60360e+02	1.33300e+03	1.14201e-02	4.56500e+02
1335	4.61493e+02	1.33500e+03	1.13202e-02	4.57500e+02
1337	4.62640e+02	1.33700e+03	1.12945e-02	4.58500e+02
1339	4.63507e+02	1.33900e+03	1.12691e-02	4.59500e+02
1341	4.64842e+02	1.34100e+03	1.12820e-02	4.60500e+02
1343	4.65417e+02	1.34300e+03	1.12838e-02	4.61500e+02
1345	4.66174e+02	1.34500e+03	1.12801e-02	4.62500e+02
1347	4.67026e+02	1.34700e+03	1.12652e-02	4.63500e+02
1349	4.67849e+02	1.34900e+03	1.12266e-02	4.64500e+02
1351	4.68529e+02	1.35100e+03	1.11853e-02	4.65500e+02
1353	4.69186e+02	1.35300e+03	1.11317e-02	4.66500e+02
1355	4.70013e+02	1.35500e+03	1.10829e-02	4.67500e+02
1357	4.70835e+02	1.35700e+03	1.10416e-02	4.68500e+02
1359	4.71641e+02	1.35900e+03	1.10061e-02	4.69500e+02
1361	4.72573e+02	1.36100e+03	1.09836e-02	4.70500e+02
1363	4.73571e+02	1.36300e+03	1.09608e-02	4.71500e+02
1365	4.74499e+02	1.36500e+03	1.09396e-02	4.72500e+02
1367	4.75418e+02	1.36700e+03	1.09087e-02	4.73500e+02
1369	4.76353e+02	1.36900e+03	1.08618e-02	4.74500e+02
1371	4.77284e+02	1.37100e+03	1.08137e-02	4.75500e+02
1373	4.78229e+02	1.37300e+03	1.07648e-02	4.76500e+02
1375	4.79186e+02	1.37500e+03	1.07267e-02	4.77500e+02
1377	4.80151e+02	1.37700e+03	1.06996e-02	4.78500e+02
1379	4.81113e+02	1.37900e+03	1.06705e-02	4.79500e+02
1381	4.82082e+02	1.38100e+03	1.06509e-02	4.80500e+02
1383	4.83054e+02	1.38300e+03	1.06366e-02	4.81500e+02
1385	4.84011e+02	1.38500e+03	1.06321e-02	4.82500e+02
1387	4.84981e+02	1.38700e+03	1.06194e-02	4.83500e+02
1389	4.85944e+02	1.38900e+03	1.05974e-02	4.84500e+02
1391	4.86912e+02	1.39100e+03	1.05715e-02	4.85500e+02
1393	4.87878e+02	1.39300e+03	1.05461e-02	4.86500e+02
1395	4.88839e+02	1.39500e+03	1.05292e-02	4.87500e+02
1397	4.89817e+02	1.39700e+03	1.05174e-02	4.88500e+02
1399	4.90780e+02	1.39900e+03	1.04897e-02	4.89500e+02
1401	4.91754e+02	1.40100e+03	1.04347e-02	4.90500e+02
1403	4.92707e+02	1.40300e+03	1.03689e-02	4.91500e+02
1405	4.93671e+02	1.40500e+03	1.02753e-02	4.92500e+02
1407	4.94630e+02	1.40700e+03	1.01975e-02	4.93500e+02
1409	4.95591e+02	1.40900e+03	1.01375e-02	4.94500e+02
1411	4.96531e+02	1.41100e+03	1.00917e-02	4.95500e+02
1413	4.97489e+02	1.41300e+03	1.00830e-02	4.96500e+02
1415	4.98457e+02	1.41500e+03	1.00735e-02	4.97500e+02
1417	4.99399e+02	1.41700e+03	1.00805e-02	4.98500e+02
1419	5.00365e+02	1.41900e+03	1.00882e-02	4.99500e+02
1421	5.01339e+02	1.42100e+03	1.01099e-02	5.00500e+02
1423	5.02293e+02	1.42300e+03	1.01289e-02	5.01500e+02
1425	5.03259e+02	1.42500e+03	1.01338e-02	5.02500e+02
1427	5.04236e+02	1.42700e+03	1.01171e-02	5.03500e+02
1429	5.05214e+02	1.42900e+03	1.00753e-02	5.04500e+02
1431	5.06196e+02	1.43100e+03	1.00515e-02	5.05500e+02
1433	5.07165e+02	1.43300e+03	1.00435e-02	5.06500e+02
1435	5.08138e+02	1.43500e+03	1.00462e-02	5.07500e+02
1437	5.09105e+02	1.43700e+03	1.00609e-02	5.08500e+02
1439	5.10079e+02	1.43900e+03	1.00603e-02	5.09500e+02
1441	5.11056e+02	1.44100e+03	1.00464e-02	5.10500e+02
1443	5.12017e+02	1.44300e+03	1.00385e-02	5.11500e+02
1445	5.12998e+02	1.44500e+03	1.00142e-02	5.12500e+02
1447	5.13982e+02	1.44700e+03	9.95759e-03	5.13500e+02
1449	5.14950e+02	1.44900e+03	9.83464e-03	5.14500e+02
1451	5.15932e+02	1.45100e+03	9.72131e-03	5.15500e+02
1453	5.16918e+02	1.45300e+03	9.66857e-03	5.16500e+02
1455	5.17893e+02	1.45500e+03	9.72027e-03	5.17500e+02
1457	5.18878e+02	1.45700e+03	9.93911e-03	5.18500e+02
1459	5.19858e+02	1.45900e+03	1.01116e-02	5.19500e+02
1461	5.20835e+02	1.46100e+03	1.02538e-02	5.20500e+02
1463	5.21822e+02	1.46300e+03	1.03317e-02	5.21500e+02
1465	5.22787e+02	1.46500e+03	1.02980e-02	5.22500e+02
1467	5.23774e+02	1.46700e+03	1.02719e-02	5.23500e+02
1469	5.24763e+02	1.46900e+03	1.02050e-02	5.24500e+02
1471	5.25751e+02	1.47100e+03	1.01485e-02	5.25500e+02
1473	5.26736e+02	1.47300e+03	1.00899e-02	5.26500e+02
1475	5.27722e+02	1.47500e+03	1.00412e-02	5.27500e+02
1477	5.28713e+02	1.47700e+03	1.00149e-02	5.28500e+02
1479	5.29729e+02	1.47900e+03	9.99643e-03	5.29500e+02
1481	5.30740e+02	1.48100e+03	9.99537e-03	5.30500e+02
1483	5.31759e+02	1.48300e+03	9.97992e-03	5.31500e+02
1485	5.32782e+02	1.48500e+03	9.95347e-03	5.32500e+02
1487	5.33764e+02	1.48700e+03	9.93197e-03	5.33500e+02
1489	5.34777e+02	1.48900e+03	9.91843e-03	5.34500e+02
1491	5.35785e+02	1.49100e+03	9.91899e-03	5.35500e+02
1493	5.36796e+02	1.49300e+03	9.93036e-03	5.36500e+02
1495	5.37809e+02	1.49500e+03	9.92010e-03	5.37500e+02
1497	5.38799e+02	1.49700e+03	9.87981e-03	5.38500e+02
1499	5.39786e+02	1.49900e+03	9.83689e-03	5.39500e+02
1501	5.40776e+02	1.50100e+03	9.79071e-03	5.40500e+02
1503	5.41761e+02	1.50300e+03	9.76389e-03	5.41500e+02
1505	5.42780e+02	1.50500e+03	9.77048e-03	5.42500e+02
1507	5.43770e+02	1.50700e+03	9.78046e-03	5.43500e+02
1509	5.44774e+02	1.50900e+03	9.81152e-03	5.44500e+02
1511	5.45757e+02	1.51100e+03	9.83944e-03	5.45500e+02
1513	5.46736e+02	1.51300e+03	9.86925e-03	5.46500e+02
1515	5.47749e+02	1.51500e+03	9.89567e-03	5.47500e+02
1517	5.48730e+02	1.51700e+03	9.91631e-03	5.48500e+02
1519	5.49723e+02	1.51900e+03	9.93421e-03	5.49500e+02
1521	5.50719e+02	1.52100e+03	9.95396e-03	5.50500e+02
1523	5.51720e+02	1.52300e+03	9.97643e-03	5.51500e+02
1525	5.52730e+02	1.52500e+03	9.99921e-03	5.52500e+02
1527	5.53741e+02	1.52700e+03	1.00091e-02	5.53500e+02
1529	5.54715e+02	1.52900e+03	9.97127e-03	5.54500e+02
1531	5.55693e+02	1.53100e+03	9.90586e-03	5.55500e+02
1533	5.56674e+02	1.53300e+03	9.79980e-03	5.56500e+02
1535	5.57684e+02	1.53500e+03	9.74577e-03	5.57500e+02
1537	5.58708e+02	1.53700e+03	9.78813e-03	5.58500e+02
1539	5.59720e+02	1.53900e+03	9.86578e-03	5.59500e+02
1541	5.60686e+02	1.54100e+03	1.00067e-02	5.60500e+02
1543	5.61643e+02	1.54300e+03	1.00852e-02	5.61500e+02
1545	5.62610e+02	1.54500e+03	1.00890e-02	5.62500e+02
1547	5.63566e+02	1.54700e+03	1.00801e-02	5.63500e+02
1549	5.64554e+02	1.54900e+03	1.00230e-02	5.64500e+02
1551	5.65532e+02	1.55100e+03	9.98963e-03	5.65500e+02
1553	5.66495e+02	1.55300e+03	9.98177e-03	5.66500e+02
1555	5.67457e+02	1.55500e+03	9.98479e-03	5.67500e+02
1557	5.68442e+02	1.55700e+03	1.00009e-02	5.68500e+02
1559	5.69424e+02	1.55900e+03	9.99411e-03	5.69500e+02
1561	5.70421e+02	1.56100e+03	9.96284e-03	5.70500e+02
1563	5.71419e+02	1.56300e+03	9.94124e-03	5.71500e+02
1565	5.72407e+02	1.56500e+03	9.92800e-03	5.72500e+02
1567	5.73398e+02	1.56700e+03	9.92557e-03	5.73500e+02
1569	5.74397e+02	1.56900e+03	9.94426e-03	5.74500e+02
1571	5.75391e+02	1.57100e+03	9.95368e-03	5.75500e+02
1573	5.76393e+02	1.57300e+03	9.96317e-03	5.76500e+02
1575	5.77383e+02	1.57500e+03	9.96751e-03	5.77500e+02
1577	5.78381e+02	1.57700e+03	9.97020e-03	5.78500e+02
1579	5.79394e+02	1.57900e+03	9.97483e-03	5.79500e+02
1581	5.80411e+02	1.58100e+03	9.97333e-03	5.80500e+02
1583	5.81440e+02	1.58300e+03	9.96469e-03	5.81500e+02
1585	5.82475e+02	1.58500e+03	9.94413e-03	5.82500e+02
1587	5.83483e+02	1.58700e+03	9.92994e-03	5.83500e+02
1589	5.84500e+02	1.58900e+03	9.93031e-03	5.84500e+02
1591	5.85496e+02	1.59100e+03	9.94275e-03	5.85500e+02
1593	5.86513e+02	1.59300e+03	9.97231e-03	5.86500e+02
1595	5.87521e+02	1.59500e+03	9.98722e-03	5.87500e+02
1597	5.88507e+02	1.59700e+03	9.98939e-03	5.88500e+02
1599	5.89484e+02	1.59900e+03	9.98896e-03	5.89500e+02
1601	5.90457e+02	1.60100e+03	9.97534e-03	5.90500e+02
1603	5.91496e+02	1.60300e+03	9.95668e-03	5.91500e+02
1605	5.92504e+02	1.60500e+03	9.92262e-03	5.92500e+02
1607	5.93524e+02	1.60700e+03	9.88235e-03	5.93500e+02
1609	5.94530e+02	1.60900e+03	9.83679e-03	5.94500e+02
1611	5.95505e+02	1.61100e+03	9.80623e-03	5.95500e+02
1613	5.96493e+02	1.61300e+03	9.79433e-03	5.96500e+02
1615	5.97498e+02	1.61500e+03	9.79025e-03	5.97500e+02
1617	5.98488e+02	1.61700e+03	9.80748e-03	5.98500e+02
1619	5.99505e+02	1.61900e+03	9.82273e-03	5.99500e+02
1621	6.00477e+02	1.62100e+03	9.82796e-03	6.00500e+02
1623	6.01499e+02	1.62300e+03	9.81412e-03	6.01500e+02
1625	6.02436e+02	1.62500e+03	9.77851e-03	6.02500e+02
1627	6.03427e+02	1.62700e+03	9.75941e-03	6.03500e+02
1629	6.04414e+02	1.62900e+03	9.75414e-03	6.04500e+02
1631	6.05408e+02	1.63100e+03	9.75657e-03	6.05500e+02
1633	6.06361e+02	1.63300e+03	9.77053e-03	6.06500e+02
1635	6.07377e+02	1.63500e+03	9.77223e-03	6.07500e+02
1637	6.08371e+02	1.63700e+03	9.76027e-03	6.08500e+02
1639	6.09381e+02	1.63900e+03	9.74508e-03	6.09500e+02
1641	6.10400e+02	1.64100e+03	9.71973e-03	6.10500e+02
1643	6.11395e+02	1.64300e+03	9.69802e-03	6.11500e+02
1645	6.12397e+02	1.64500e+03	9.67368e-03	6.12500e+02
1647	6.13337e+02	1.64700e+03	9.64651e-03	6.13500e+02
1649	6.14328e+02	1.64900e+03	9.62268e-03	6.14500e+02
1651	6.15273e+02	1.65100e+03	9.61232e-03	6.15500e+02
1653	6.16240e+02	1.65300e+03	9.63318e-03	6.16500e+02
1655	6.17199e+02	1.65500e+03	9.66285e-03	6.17500e+02
1657	6.18184e+02	1.65700e+03	9.70507e-03	6.18500e+02
1659	6.19182e+02	1.65900e+03	9.72105e-03	6.19500e+02
1661	6.20178e+02	1.66100e+03	9.70337e-03	6.20500e+02
1663	6.21172e+02	1.66300e+03	9.68416e-03	6.21500e+02
1665	6.22148e+02	1.66500e+03	9.65248e-03	6.22500e+02
1667	6.23150e+02	1.66700e+03	9.63705e-03	6.23500e+02
1669	6.24138e+02	1.66900e+03	9.64588e-03	6.24500e+02
1671	6.25109e+02	1.67100e+03	9.66367e-03	6.25500e+02
1673	6.26097e+02	1.67300e+03	9.70649e-03	6.26500e+02
1675	6.27084e+02	1.67500e+03	9.74529e-03	6.27500e+02
1677	6.28080e+02	1.67700e+03	9.77334e-03	6.28500e+02
1679	6.29061e+02	1.67900e+03	9.78166e-03	6.29500e+02
1681	6.30030e+02	1.68100e+03	9.75859e-03	6.30500e+02
1683	6.31017e+02	1.68300e+03	9.73896e-03	6.31500e+02
1685	6.32023e+02	1.68500e+03	9.71297e-03	6.32500e+02
1687	6.33010e+02	1.68700e+03	9.69118e-03	6.33500e+02
1689	6.33997e+02	1.68900e+03	9.66232e-03	6.34500e+02
1691	6.35001e+02	1.69100e+03	9.63168e-03	6.35500e+02
1693	6.35972e+02	1.69300e+03	9.60854e-03	6.36500e+02
1695	6.36957e+02	1.69500e+03	9.60235e-03	6.37500e+02
1697	6.37932e+02	1.69700e+03	9.62119e-03	6.38500e+02
1699	6.38900e+02	1.69900e+03	9.63659e-03	6.39500e+02
1701	6.39843e+02	1.70100e+03	9.66030e-03	6.40500e+02
1703	6.40802e+02	1.70300e+03	9.67667e-03	6.41500e+02
1705	6.41748e+02	1.70500e+03	9.67375e-03	6.42500e+02
1707	6.42722e+02	1.70700e+03	9.65633e-03	6.43500e+02
1709	6.43696e+02	1.70900e+03	9.61645e-03	6.44500e+02
1711	6.44677e+02	1.71100e+03	9.58998e-03	6.45500e+02
1713	6.45659e+02	1.71300e+03	9.57290e-03	6.46500e+02
1715	6.46645e+02	1.71500e+03	9.56652e-03	6.47500e+02
1717	6.47650e+02	1.71700e+03	9.55498e-03	6.48500e+02
1719	6.48619e+02	1.71900e+03	9.50714e-03	6.49500e+02
1721	6.49567e+02	1.72100e+03	9.39567e-03	6.50500e+02
1723	6.50538e+02	1.72300e+03	9.29187e-03	6.51500e+02
1725	6.51492e+02	1.72500e+03	9.23679e-03	6.52500e+02
1727	6.52455e+02	1.72700e+03	9.27286e-03	6.53500e+02
1729	6.53438e+02	1.72900e+03	9.46418e-03	6.54500e+02
1731	6.54408e+02	1.73100e+03	9.63571e-03	6.55500e+02
1733	6.55382e+02	1.73300e+03	9.81949e-03	6.56500e+02
1735	6.56366e+02	1.73500e+03	9.93690e-03	6.57500e+02
1737	6.57341e+02	1.73700e+03	9.93725e-03	6.58500e+02
1739	6.58322e+02	1.73900e+03	9.91097e-03	6.59500e+02
1741	6.59311e+02	1.74100e+03	9.78469e-03	6.60500e+02
1743	6.60287e+02	1.74300e+03	9.67708e-03	6.61500e+02
1745	6.61271e+02	1.74500e+03	9.56246e-03	6.62500e+02
1747	6.62245e+02	1.74700e+03	9.47799e-03	6.63500e+02
1749	6.63238e+02	1.74900e+03	9.44508e-03	6.64500e+02
1751	6.64224e+02	1.75100e+03	9.43194e-03	6.65500e+02
1753	6.65219e+02	1.75300e+03	9.48627e-03	6.66500e+02
1755	6.66206e+02	1.75500e+03	9.54304e-03	6.67500e+02
1757	6.67202e+02	1.75700e+03	9.62275e-03	6.68500e+02
1759	6.68192e+02	1.75900e+03	9.66974e-03	6.69500e+02
1761	6.69188e+02	1.76100e+03	9.66932e-03	6.70500e+02
1763	6.70171e+02	1.76300e+03	9.65186e-03	6.71500e+02
1765	6.71175e+02	1.76500e+03	9.58106e-03	6.72500e+02
1767	6.72150e+02	1.76700e+03	9.52505e-03	6.73500e+02
1769	6.73142e+02	1.76900e+03	9.48435e-03	6.74500e+02
1771	6.74139e+02	1.77100e+03	9.47597e-03	6.75500e+02
1773	6.75128e+02	1.77300e+03	9.51418e-03	6.76500e+02
1775	6.76109e+02	1.77500e+03	9.53582e-03	6.77500e+02
1777	6.77109e+02	1.77700e+03	9.54712e-03	6.78500e+02
1779	6.78097e+02	1.77900e+03	9.54609e-03	6.79500e+02
1781	6.79097e+02	1.78100e+03	9.52946e-03	6.80500e+02
1783	6.80089e+02	1.78300e+03	9.51107e-03	6.81500e+02
1785	6.81078e+02	1.78500e+03	9.44618e-03	6.82500e+02
1787	6.82070e+02	1.78700e+03	9.35286e-03	6.83500e+02
1789	6.83061e+02	1.78900e+03	9.23880e-03	6.84500e+02
1791	6.84053e+02	1.79100e+03	9.19620e-03	6.85500e+02
1793	6.85053e+02	1.79300e+03	9.28425e-03	6.86500e+02
1795	6.85658e+02	1.79500e+03	9.40571e-03	6.87500e+02
1797	6.86092e+02	1.79700e+03	9.61555e-03	6.88500e+02
1799	6.86829e+02	1.79900e+03	9.77389e-03	6.89500e+02
1801	6.87533e+02	1.80100e+03	9.87581e-03	6.90500e+02
1803	6.88180e+02	1.80300e+03	9.92934e-03	6.91500e+02
1805	6.88802e+02	1.80500e+03	9.89989e-03	6.92500e+02
1807	6.89384e+02	1.80700e+03	9.86981e-03	6.93500e+02
1809	6.89933e+02	1.80900e+03	9.80143e-03	6.94500e+02
1811	6.90444e+02	1.81100e+03	9.74705e-03	6.95500e+02
1813	6.90923e+02	1.81300e+03	9.70353e-03	6.96500e+02
1815	6.91378e+02	1.81500e+03	9.67679e-03	6.97500e+02
1817	6.91815e+02	1.81700e+03	9.68749e-03	6.98500e+02
1819	6.92209e+02	1.81900e+03	9.71263e-03	6.99500e+02
1820	6.92397e+02	1.82000e+03	9.74107e-03	7.00000e+02