File: Experiments/TGA/TUBS/tga_nonisotherm/tga_dynamic_n2_dyn30_piece_3mg_r3.txt
index	ts	t	weight	tr
[#]	[°C]	[s]	[mg]	[°C]
683	1.30884e+02	6.83000e+02	2.95449e+00	1.31500e+02
685	1.31893e+02	6.85000e+02	2.95446e+00	1.32500e+02
687	1.32893e+02	6.87000e+02	2.95444e+00	1.33500e+02
689	1.33894e+02	6.89000e+02	2.95444e+00	1.34500e+02
691	1.34905e+02	6.91000e+02	2.95442e+00	1.35500e+02
693	1.35913e+02	6.93000e+02	2.95440e+00	1.36500e+02
695	1.36904e+02	6.95000e+02	2.95437e+00	1.37500e+02
697	1.37903e+02	6.97000e+02	2.95433e+00	1.38500e+02
699	1.38907e+02	6.99000e+02	2.95428e+00	1.39500e+02
701	1.39911e+02	7.01000e+02	2.95423e+00	1.40500e+02
703	1.40925e+02	7.03000e+02	2.95418e+00	1.41500e+02
705	1.41918e+02	7.05000e+02	2.95415e+00	1.42500e+02
707	1.42931e+02	7.07000e+02	2.95412e+00	1.43500e+02
709	1.43935e+02	7.09000e+02	2.95411e+00	1.44500e+02
711	1.44938e+02	7.11000e+02	2.95409e+00	1.45500e+02
713	1.45937e+02	7.13000e+02	2.95406e+00	1.46500e+02
715	1.46935e+02	7.15000e+02	2.95404e+00	1.47500e+02
717	1.47952e+02	7.17000e+02	2.95402e+00	1.48500e+02
719	1.48951e+02	7.19000e+02	2.95399e+00	1.49500e+02
721	1.49949e+02	7.21000e+02	2.95393e+00	1.50500e+02
723	1.50952e+02	7.23000e+02	2.95386e+00	1.51500e+02
725	1.51966e+02	7.25000e+02	2.95377e+00	1.52500e+02
727	1.52972e+02	7.27000e+02	2.95369e+00	1.53500e+02
729	1.53971e+02	7.29000e+02	2.95362e+00	1.54500e+02
731	1.54978e+02	7.31000e+02	2.95355e+00	1.55500e+02
733	1.55987e+02	7.33000e+02	2.95347e+00	1.56500e+02
735	1.56995e+02	7.35000e+02	2.95340e+00	1.57500e+02
737	1.58003e+02	7.37000e+02	2.95333e+00	1.58500e+02
739	1.58992e+02	7.39000e+02	2.95326e+00	1.59500e+02
741	1.60014e+02	7.41000e+02	2.95320e+00	1.60500e+02
743	1.61025e+02	7.43000e+02	2.95311e+00	1.61500e+02
745	1.62035e+02	7.45000e+02	2.95301e+00	1.62500e+02
747	1.63039e+02	7.47000e+02	2.95291e+00	1.63500e+02
749	1.64053e+02	7.49000e+02	2.95281e+00	1.64500e+02
751	1.65046e+02	7.51000e+02	2.95271e+00	1.65500e+02
753	1.66060e+02	7.53000e+02	2.95262e+00	1.66500e+02
755	1.67063e+02	7.55000e+02	2.95253e+00	1.67500e+02
757	1.68082e+02	7.57000e+02	2.95245e+00	1.68500e+02
759	1.69087e+02	7.59000e+02	2.95236e+00	1.69500e+02
761	1.70110e+02	7.61000e+02	2.95225e+00	1.70500e+02
763	1.71110e+02	7.63000e+02	2.95215e+00	1.71500e+02
765	1.72120e+02	7.65000e+02	2.95204e+00	1.72500e+02
767	1.73122e+02	7.67000e+02	2.95193e+00	1.73500e+02
769	1.74140e+02	7.69000e+02	2.95183e+00	1.74500e+02
771	1.75151e+02	7.71000e+02	2.95173e+00	1.75500e+02
773	1.76158e+02	7.73000e+02	2.95164e+00	1.76500e+02
775	1.77180e+02	7.75000e+02	2.95154e+00	1.77500e+02
777	1.78189e+02	7.77000e+02	2.95143e+00	1.78500e+02
779	1.79211e+02	7.79000e+02	2.95129e+00	1.79500e+02
781	1.80229e+02	7.81000e+02	2.95112e+00	1.80500e+02
783	1.81231e+02	7.83000e+02	2.95096e+00	1.81500e+02
785	1.82249e+02	7.85000e+02	2.95080e+00	1.82500e+02
787	1.83250e+02	7.87000e+02	2.95064e+00	1.83500e+02
789	1.84266e+02	7.89000e+02	2.95047e+00	1.84500e+02
791	1.85287e+02	7.91000e+02	2.95027e+00	1.85500e+02
793	1.86295e+02	7.93000e+02	2.95001e+00	1.86500e+02
795	1.87304e+02	7.95000e+02	2.94972e+00	1.87500e+02
797	1.88325e+02	7.97000e+02	2.94937e+00	1.88500e+02
799	1.89331e+02	7.99000e+02	2.94902e+00	1.89500e+02
801	1.90359e+02	8.01000e+02	2.94863e+00	1.90500e+02
803	1.91379e+02	8.03000e+02	2.94826e+00	1.91500e+02
805	1.92391e+02	8.05000e+02	2.94787e+00	1.92500e+02
807	1.93403e+02	8.07000e+02	2.94748e+00	1.93500e+02
809	1.94432e+02	8.09000e+02	2.94706e+00	1.94500e+02
811	1.95442e+02	8.11000e+02	2.94661e+00	1.95500e+02
813	1.96472e+02	8.13000e+02	2.94611e+00	1.96500e+02
815	1.97486e+02	8.15000e+02	2.94560e+00	1.97500e+02
817	1.98501e+02	8.17000e+02	2.94503e+00	1.98500e+02
819	1.99524e+02	8.19000e+02	2.94445e+00	1.99500e+02
821	2.00523e+02	8.21000e+02	2.94381e+00	2.00500e+02
823	2.01543e+02	8.23000e+02	2.94315e+00	2.01500e+02
825	2.02558e+02	8.25000e+02	2.94244e+00	2.02500e+02
827	2.03573e+02	8.27000e+02	2.94173e+00	2.03500e+02
829	2.04590e+02	8.29000e+02	2.94100e+00	2.04500e+02
831	2.05599e+02	8.31000e+02	2.94028e+00	2.05500e+02
833	2.06617e+02	8.33000e+02	2.93954e+00	2.06500e+02
835	2.07643e+02	8.35000e+02	2.93878e+00	2.07500e+02
837	2.08654e+02	8.37000e+02	2.93798e+00	2.08500e+02
839	2.09672e+02	8.39000e+02	2.93718e+00	2.09500e+02
841	2.10684e+02	8.41000e+02	2.93634e+00	2.10500e+02
843	2.11704e+02	8.43000e+02	2.93551e+00	2.11500e+02
845	2.12722e+02	8.45000e+02	2.93466e+00	2.12500e+02
847	2.13737e+02	8.47000e+02	2.93381e+00	2.13500e+02
849	2.14756e+02	8.49000e+02	2.93297e+00	2.14500e+02
851	2.15769e+02	8.51000e+02	2.93213e+00	2.15500e+02
853	2.16794e+02	8.53000e+02	2.93130e+00	2.16500e+02
855	2.17805e+02	8.55000e+02	2.93048e+00	2.17500e+02
857	2.18824e+02	8.57000e+02	2.92965e+00	2.18500e+02
859	2.19836e+02	8.59000e+02	2.92882e+00	2.19500e+02
861	2.20853e+02	8.61000e+02	2.92797e+00	2.20500e+02
863	2.21868e+02	8.63000e+02	2.92710e+00	2.21500e+02
865	2.22879e+02	8.65000e+02	2.92623e+00	2.22500e+02
867	2.23916e+02	8.67000e+02	2.92537e+00	2.23500e+02
869	2.24923e+02	8.69000e+02	2.92450e+00	2.24500e+02
871	2.25938e+02	8.71000e+02	2.92362e+00	2.25500e+02
873	2.26952e+02	8.73000e+02	2.92273e+00	2.26500e+02
875	2.27970e+02	8.75000e+02	2.92182e+00	2.27500e+02
877	2.28988e+02	8.77000e+02	2.92089e+00	2.28500e+02
879	2.29996e+02	8.79000e+02	2.91995e+00	2.29500e+02
881	2.31027e+02	8.81000e+02	2.91899e+00	2.30500e+02
883	2.32039e+02	8.83000e+02	2.91801e+00	2.31500e+02
885	2.33053e+02	8.85000e+02	2.91702e+00	2.32500e+02
887	2.34075e+02	8.87000e+02	2.91604e+00	2.33500e+02
889	2.35081e+02	8.89000e+02	2.91506e+00	2.34500e+02
891	2.36104e+02	8.91000e+02	2.91407e+00	2.35500e+02
893	2.37120e+02	8.93000e+02	2.91307e+00	2.36500e+02
895	2.38131e+02	8.95000e+02	2.91205e+00	2.37500e+02
897	2.39141e+02	8.97000e+02	2.91102e+00	2.38500e+02
899	2.40157e+02	8.99000e+02	2.90998e+00	2.39500e+02
901	2.41180e+02	9.01000e+02	2.90895e+00	2.40500e+02
903	2.42189e+02	9.03000e+02	2.90792e+00	2.41500e+02
905	2.43198e+02	9.05000e+02	2.90691e+00	2.42500e+02
907	2.44204e+02	9.07000e+02	2.90588e+00	2.43500e+02
909	2.45228e+02	9.09000e+02	2.90481e+00	2.44500e+02
911	2.46246e+02	9.11000e+02	2.90374e+00	2.45500e+02
913	2.47260e+02	9.13000e+02	2.90266e+00	2.46500e+02
915	2.48282e+02	9.15000e+02	2.90158e+00	2.47500e+02
917	2.49286e+02	9.17000e+02	2.90054e+00	2.48500e+02
919	2.50307e+02	9.19000e+02	2.89951e+00	2.49500e+02
921	2.51315e+02	9.21000e+02	2.89850e+00	2.50500e+02
923	2.52329e+02	9.23000e+02	2.89747e+00	2.51500e+02
925	2.53351e+02	9.25000e+02	2.89641e+00	2.52500e+02
927	2.54371e+02	9.27000e+02	2.89534e+00	2.53500e+02
929	2.55389e+02	9.29000e+02	2.89423e+00	2.54500e+02
931	2.56404e+02	9.31000e+02	2.89313e+00	2.55500e+02
933	2.57414e+02	9.33000e+02	2.89202e+00	2.56500e+02
935	2.58437e+02	9.35000e+02	2.89091e+00	2.57500e+02
937	2.59456e+02	9.37000e+02	2.88980e+00	2.58500e+02
939	2.60466e+02	9.39000e+02	2.88870e+00	2.59500e+02
941	2.61488e+02	9.41000e+02	2.88760e+00	2.60500e+02
943	2.62504e+02	9.43000e+02	2.88651e+00	2.61500e+02
945	2.63512e+02	9.45000e+02	2.88544e+00	2.62500e+02
947	2.64532e+02	9.47000e+02	2.88437e+00	2.63500e+02
949	2.65548e+02	9.49000e+02	2.88330e+00	2.64500e+02
951	2.66553e+02	9.51000e+02	2.88222e+00	2.65500e+02
953	2.67570e+02	9.53000e+02	2.88111e+00	2.66500e+02
955	2.68570e+02	9.55000e+02	2.87999e+00	2.67500e+02
957	2.69580e+02	9.57000e+02	2.87886e+00	2.68500e+02
959	2.70595e+02	9.59000e+02	2.87774e+00	2.69500e+02
961	2.71604e+02	9.61000e+02	2.87662e+00	2.70500e+02
963	2.72616e+02	9.63000e+02	2.87550e+00	2.71500e+02
965	2.73625e+02	9.65000e+02	2.87435e+00	2.72500e+02
967	2.74642e+02	9.67000e+02	2.87318e+00	2.73500e+02
969	2.75662e+02	9.69000e+02	2.87197e+00	2.74500e+02
971	2.76671e+02	9.71000e+02	2.87076e+00	2.75500e+02
973	2.77677e+02	9.73000e+02	2.86952e+00	2.76500e+02
975	2.78689e+02	9.75000e+02	2.86828e+00	2.77500e+02
977	2.79708e+02	9.77000e+02	2.86701e+00	2.78500e+02
979	2.80721e+02	9.79000e+02	2.86577e+00	2.79500e+02
981	2.81735e+02	9.81000e+02	2.86457e+00	2.80500e+02
983	2.82733e+02	9.83000e+02	2.86341e+00	2.81500e+02
985	2.83752e+02	9.85000e+02	2.86227e+00	2.82500e+02
987	2.84758e+02	9.87000e+02	2.86102e+00	2.83500e+02
989	2.85764e+02	9.89000e+02	2.85961e+00	2.84500e+02
991	2.86800e+02	9.91000e+02	2.85815e+00	2.85500e+02
993	2.87797e+02	9.93000e+02	2.85657e+00	2.86500e+02
995	2.88803e+02	9.95000e+02	2.85509e+00	2.87500e+02
997	2.89819e+02	9.97000e+02	2.85367e+00	2.88500e+02
999	2.90823e+02	9.99000e+02	2.85224e+00	2.89500e+02
1001	2.91836e+02	1.00100e+03	2.85081e+00	2.90500e+02
1003	2.92843e+02	1.00300e+03	2.84932e+00	2.91500e+02
1005	2.93845e+02	1.00500e+03	2.84772e+00	2.92500e+02
1007	2.94856e+02	1.00700e+03	2.84604e+00	2.93500e+02
1009	2.95850e+02	1.00900e+03	2.84419e+00	2.94500e+02
1011	2.96869e+02	1.01100e+03	2.84232e+00	2.95500e+02
1013	2.97874e+02	1.01300e+03	2.84035e+00	2.96500e+02
1015	2.98904e+02	1.01500e+03	2.83842e+00	2.97500e+02
1017	2.99893e+02	1.01700e+03	2.83650e+00	2.98500e+02
1019	3.00917e+02	1.01900e+03	2.83458e+00	2.99500e+02
1021	3.01921e+02	1.02100e+03	2.83261e+00	3.00500e+02
1023	3.02924e+02	1.02300e+03	2.83058e+00	3.01500e+02
1025	3.03927e+02	1.02500e+03	2.82841e+00	3.02500e+02
1027	3.04944e+02	1.02700e+03	2.82620e+00	3.03500e+02
1029	3.05947e+02	1.02900e+03	2.82385e+00	3.04500e+02
1031	3.06960e+02	1.03100e+03	2.82147e+00	3.05500e+02
1033	3.07969e+02	1.03300e+03	2.81895e+00	3.06500e+02
1035	3.08958e+02	1.03500e+03	2.81642e+00	3.07500e+02
1037	3.09979e+02	1.03700e+03	2.81378e+00	3.08500e+02
1039	3.10990e+02	1.03900e+03	2.81110e+00	3.09500e+02
1041	3.12008e+02	1.04100e+03	2.80827e+00	3.10500e+02
1043	3.13025e+02	1.04300e+03	2.80539e+00	3.11500e+02
1045	3.14045e+02	1.04500e+03	2.80236e+00	3.12500e+02
1047	3.15068e+02	1.04700e+03	2.79930e+00	3.13500e+02
1049	3.16082e+02	1.04900e+03	2.79612e+00	3.14500e+02
1051	3.17106e+02	1.05100e+03	2.79293e+00	3.15500e+02
1053	3.18105e+02	1.05300e+03	2.78966e+00	3.16500e+02
1055	3.19107e+02	1.05500e+03	2.78638e+00	3.17500e+02
1057	3.20120e+02	1.05700e+03	2.78306e+00	3.18500e+02
1059	3.21116e+02	1.05900e+03	2.77973e+00	3.19500e+02
1061	3.22106e+02	1.06100e+03	2.77637e+00	3.20500e+02
1063	3.23117e+02	1.06300e+03	2.77300e+00	3.21500e+02
1065	3.24122e+02	1.06500e+03	2.76962e+00	3.22500e+02
1067	3.25136e+02	1.06700e+03	2.76624e+00	3.23500e+02
1069	3.26131e+02	1.06900e+03	2.76284e+00	3.24500e+02
1071	3.27152e+02	1.07100e+03	2.75941e+00	3.25500e+02
1073	3.28161e+02	1.07300e+03	2.75590e+00	3.26500e+02
1075	3.29176e+02	1.07500e+03	2.75236e+00	3.27500e+02
1077	3.30178e+02	1.07700e+03	2.74869e+00	3.28500e+02
1079	3.31192e+02	1.07900e+03	2.74498e+00	3.29500e+02
1081	3.32208e+02	1.08100e+03	2.74111e+00	3.30500e+02
1083	3.33214e+02	1.08300e+03	2.73718e+00	3.31500e+02
1085	3.34229e+02	1.08500e+03	2.73303e+00	3.32500e+02
1087	3.35241e+02	1.08700e+03	2.72881e+00	3.33500e+02
1089	3.36248e+02	1.08900e+03	2.72431e+00	3.34500e+02
1091	3.37252e+02	1.09100e+03	2.71974e+00	3.35500e+02
1093	3.38254e+02	1.09300e+03	2.71484e+00	3.36500e+02
1095	3.39262e+02	1.09500e+03	2.70985e+00	3.37500e+02
1097	3.40272e+02	1.09700e+03	2.70446e+00	3.38500e+02
1099	3.41264e+02	1.09900e+03	2.69892e+00	3.39500e+02
1101	3.42252e+02	1.10100e+03	2.69290e+00	3.40500e+02
1103	3.43249e+02	1.10300e+03	2.68672e+00	3.41500e+02
1105	3.44241e+02	1.10500e+03	2.67998e+00	3.42500e+02
1107	3.45236e+02	1.10700e+03	2.67305e+00	3.43500e+02
1109	3.46228e+02	1.10900e+03	2.66546e+00	3.44500e+02
1111	3.47225e+02	1.11100e+03	2.65766e+00	3.45500e+02
1113	3.48221e+02	1.11300e+03	2.64909e+00	3.46500e+02
1115	3.49217e+02	1.11500e+03	2.64027e+00	3.47500e+02
1117	3.50230e+02	1.11700e+03	2.63054e+00	3.48500e+02
1119	3.51231e+02	1.11900e+03	2.62051e+00	3.49500e+02
1121	3.52228e+02	1.12100e+03	2.60941e+00	3.50500e+02
1123	3.53233e+02	1.12300e+03	2.59799e+00	3.51500e+02
1125	3.54228e+02	1.12500e+03	2.58536e+00	3.52500e+02
1127	3.55227e+02	1.12700e+03	2.57235e+00	3.53500e+02
1129	3.56206e+02	1.12900e+03	2.55782e+00	3.54500e+02
1131	3.57190e+02	1.13100e+03	2.54267e+00	3.55500e+02
1133	3.58199e+02	1.13300e+03	2.52548e+00	3.56500e+02
1135	3.59189e+02	1.13500e+03	2.50767e+00	3.57500e+02
1137	3.60208e+02	1.13700e+03	2.48765e+00	3.58500e+02
1139	3.61198e+02	1.13900e+03	2.46718e+00	3.59500e+02
1141	3.62183e+02	1.14100e+03	2.44457e+00	3.60500e+02
1143	3.63185e+02	1.14300e+03	2.42145e+00	3.61500e+02
1145	3.64187e+02	1.14500e+03	2.39609e+00	3.62500e+02
1147	3.65199e+02	1.14700e+03	2.37010e+00	3.63500e+02
1149	3.66221e+02	1.14900e+03	2.34163e+00	3.64500e+02
1151	3.67266e+02	1.15100e+03	2.31255e+00	3.65500e+02
1153	3.68349e+02	1.15300e+03	2.28097e+00	3.66500e+02
1155	3.69338e+02	1.15500e+03	2.24886e+00	3.67500e+02
1157	3.70386e+02	1.15700e+03	2.21432e+00	3.68500e+02
1159	3.71374e+02	1.15900e+03	2.17914e+00	3.69500e+02
1161	3.72302e+02	1.16100e+03	2.14145e+00	3.70500e+02
1163	3.73251e+02	1.16300e+03	2.10316e+00	3.71500e+02
1165	3.74220e+02	1.16500e+03	2.06241e+00	3.72500e+02
1167	3.75187e+02	1.16700e+03	2.02115e+00	3.73500e+02
1169	3.76193e+02	1.16900e+03	1.97763e+00	3.74500e+02
1171	3.77184e+02	1.17100e+03	1.93374e+00	3.75500e+02
1173	3.78168e+02	1.17300e+03	1.88791e+00	3.76500e+02
1175	3.79157e+02	1.17500e+03	1.84179e+00	3.77500e+02
1177	3.80161e+02	1.17700e+03	1.79407e+00	3.78500e+02
1179	3.81122e+02	1.17900e+03	1.74610e+00	3.79500e+02
1181	3.82047e+02	1.18100e+03	1.69669e+00	3.80500e+02
1183	3.83005e+02	1.18300e+03	1.64689e+00	3.81500e+02
1185	3.83971e+02	1.18500e+03	1.59545e+00	3.82500e+02
1187	3.84936e+02	1.18700e+03	1.54352e+00	3.83500e+02
1189	3.85900e+02	1.18900e+03	1.48994e+00	3.84500e+02
1191	3.86867e+02	1.19100e+03	1.43632e+00	3.85500e+02
1193	3.87840e+02	1.19300e+03	1.38206e+00	3.86500e+02
1195	3.88819e+02	1.19500e+03	1.32840e+00	3.87500e+02
1197	3.89798e+02	1.19700e+03	1.27566e+00	3.88500e+02
1199	3.90772e+02	1.19900e+03	1.22361e+00	3.89500e+02
1201	3.91737e+02	1.20100e+03	1.17311e+00	3.90500e+02
1203	3.92723e+02	1.20300e+03	1.12268e+00	3.91500e+02
1205	3.93716e+02	1.20500e+03	1.07318e+00	3.92500e+02
1207	3.94702e+02	1.20700e+03	1.02362e+00	3.93500e+02
1209	3.95672e+02	1.20900e+03	9.74590e-01	3.94500e+02
1211	3.96658e+02	1.21100e+03	9.25704e-01	3.95500e+02
1213	3.97653e+02	1.21300e+03	8.77477e-01	3.96500e+02
1215	3.98645e+02	1.21500e+03	8.29483e-01	3.97500e+02
1217	3.99637e+02	1.21700e+03	7.82281e-01	3.98500e+02
1219	4.00635e+02	1.21900e+03	7.35264e-01	3.99500e+02
1221	4.01646e+02	1.22100e+03	6.89120e-01	4.00500e+02
1223	4.02653e+02	1.22300e+03	6.43399e-01	4.01500e+02
1225	4.03648e+02	1.22500e+03	5.99181e-01	4.02500e+02
1227	4.04658e+02	1.22700e+03	5.55804e-01	4.03500e+02
1229	4.05674e+02	1.22900e+03	5.14905e-01	4.04500e+02
1231	4.06680e+02	1.23100e+03	4.74938e-01	4.05500e+02
1233	4.07698e+02	1.23300e+03	4.38095e-01	4.06500e+02
1235	4.08711e+02	1.23500e+03	4.02142e-01	4.07500e+02
1237	4.09741e+02	1.23700e+03	3.69549e-01	4.08500e+02
1239	4.10750e+02	1.23900e+03	3.37754e-01	4.09500e+02
1241	4.11777e+02	1.24100e+03	3.09326e-01	4.10500e+02
1243	4.12788e+02	1.24300e+03	2.81664e-01	4.11500e+02
1245	4.13813e+02	1.24500e+03	2.57271e-01	4.12500e+02
1247	4.14834e+02	1.24700e+03	2.33557e-01	4.13500e+02
1249	4.15855e+02	1.24900e+03	2.12946e-01	4.14500e+02
1251	4.16878e+02	1.25100e+03	1.92992e-01	4.15500e+02
1253	4.17892e+02	1.25300e+03	1.75956e-01	4.16500e+02
1255	4.18908e+02	1.25500e+03	1.59481e-01	4.17500e+02
1257	4.19924e+02	1.25700e+03	1.45641e-01	4.18500e+02
1259	4.20942e+02	1.25900e+03	1.32260e-01	4.19500e+02
1261	4.21950e+02	1.26100e+03	1.21150e-01	4.20500e+02
1263	4.22965e+02	1.26300e+03	1.10387e-01	4.21500e+02
1265	4.23971e+02	1.26500e+03	1.01500e-01	4.22500e+02
1267	4.24985e+02	1.26700e+03	9.28800e-02	4.23500e+02
1269	4.25980e+02	1.26900e+03	8.57648e-02	4.24500e+02
1271	4.27001e+02	1.27100e+03	7.88434e-02	4.25500e+02
1273	4.28005e+02	1.27300e+03	7.31013e-02	4.26500e+02
1275	4.29011e+02	1.27500e+03	6.75160e-02	4.27500e+02
1277	4.30009e+02	1.27700e+03	6.28568e-02	4.28500e+02
1279	4.31013e+02	1.27900e+03	5.83290e-02	4.29500e+02
1281	4.32022e+02	1.28100e+03	5.45455e-02	4.30500e+02
1283	4.33019e+02	1.28300e+03	5.08693e-02	4.31500e+02
1285	4.34016e+02	1.28500e+03	4.77930e-02	4.32500e+02
1287	4.35019e+02	1.28700e+03	4.47920e-02	4.33500e+02
1289	4.36029e+02	1.28900e+03	4.22481e-02	4.34500e+02
1291	4.37023e+02	1.29100e+03	3.97535e-02	4.35500e+02
1293	4.38029e+02	1.29300e+03	3.76018e-02	4.36500e+02
1295	4.39034e+02	1.29500e+03	3.54991e-02	4.37500e+02
1297	4.40044e+02	1.29700e+03	3.36704e-02	4.38500e+02
1299	4.41038e+02	1.29900e+03	3.18749e-02	4.39500e+02
1301	4.42043e+02	1.30100e+03	3.02925e-02	4.40500e+02
1303	4.43054e+02	1.30300e+03	2.87434e-02	4.41500e+02
1305	4.44067e+02	1.30500e+03	2.73766e-02	4.42500e+02
1307	4.45078e+02	1.30700e+03	2.60432e-02	4.43500e+02
1309	4.46081e+02	1.30900e+03	2.48714e-02	4.44500e+02
1311	4.47087e+02	1.31100e+03	2.37272e-02	4.45500e+02
1313	4.48089e+02	1.31300e+03	2.27307e-02	4.46500e+02
1315	4.49096e+02	1.31500e+03	2.17715e-02	4.47500e+02
1317	4.50094e+02	1.31700e+03	2.09594e-02	4.48500e+02
1319	4.51087e+02	1.31900e+03	2.01801e-02	4.49500e+02
1321	4.52080e+02	1.32100e+03	1.95446e-02	4.50500e+02
1323	4.53071e+02	1.32300e+03	1.89474e-02	4.51500e+02
1325	4.54081e+02	1.32500e+03	1.84963e-02	4.52500e+02
1327	4.55068e+02	1.32700e+03	1.80632e-02	4.53500e+02
1329	4.56073e+02	1.32900e+03	1.77417e-02	4.54500e+02
1331	4.57065e+02	1.33100e+03	1.74339e-02	4.55500e+02
1333	4.58066e+02	1.33300e+03	1.72159e-02	4.56500e+02
1335	4.59043e+02	1.33500e+03	1.70147e-02	4.57500e+02
1337	4.60044e+02	1.33700e+03	1.68950e-02	4.58500e+02
1339	4.61029e+02	1.33900e+03	1.67863e-02	4.59500e+02
1341	4.62027e+02	1.34100e+03	1.67360e-02	4.60500e+02
1343	4.63021e+02	1.34300e+03	1.66813e-02	4.61500e+02
1345	4.64023e+02	1.34500e+03	1.66343e-02	4.62500e+02
1347	4.65020e+02	1.34700e+03	1.65688e-02	4.63500e+02
1349	4.66010e+02	1.34900e+03	1.64823e-02	4.64500e+02
1351	4.67002e+02	1.35100e+03	1.64057e-02	4.65500e+02
1353	4.67985e+02	1.35300e+03	1.63336e-02	4.66500e+02
1355	4.68967e+02	1.35500e+03	1.62680e-02	4.67500e+02
1357	4.69967e+02	1.35700e+03	1.62205e-02	4.68500e+02
1359	4.70944e+02	1.35900e+03	1.61844e-02	4.69500e+02
1361	4.71935e+02	1.36100e+03	1.61786e-02	4.70500e+02
1363	4.72935e+02	1.36300e+03	1.61707e-02	4.71500e+02
1365	4.73920e+02	1.36500e+03	1.61656e-02	4.72500e+02
1367	4.74900e+02	1.36700e+03	1.61387e-02	4.73500e+02
1369	4.75897e+02	1.36900e+03	1.60799e-02	4.74500e+02
1371	4.76883e+02	1.37100e+03	1.60188e-02	4.75500e+02
1373	4.77875e+02	1.37300e+03	1.59419e-02	4.76500e+02
1375	4.78873e+02	1.37500e+03	1.58739e-02	4.77500e+02
1377	4.79864e+02	1.37700e+03	1.58063e-02	4.78500e+02
1379	4.80869e+02	1.37900e+03	1.57419e-02	4.79500e+02
1381	4.81864e+02	1.38100e+03	1.56991e-02	4.80500e+02
1383	4.82861e+02	1.38300e+03	1.56768e-02	4.81500e+02
1385	4.83853e+02	1.38500e+03	1.56945e-02	4.82500e+02
1387	4.84838e+02	1.38700e+03	1.57072e-02	4.83500e+02
1389	4.85833e+02	1.38900e+03	1.57284e-02	4.84500e+02
1391	4.86829e+02	1.39100e+03	1.57424e-02	4.85500e+02
1393	4.87819e+02	1.39300e+03	1.57542e-02	4.86500e+02
1395	4.88809e+02	1.39500e+03	1.57621e-02	4.87500e+02
1397	4.89780e+02	1.39700e+03	1.57523e-02	4.88500e+02
1399	4.90774e+02	1.39900e+03	1.57228e-02	4.89500e+02
1401	4.91773e+02	1.40100e+03	1.56518e-02	4.90500e+02
1403	4.92765e+02	1.40300e+03	1.55787e-02	4.91500e+02
1405	4.93755e+02	1.40500e+03	1.54835e-02	4.92500e+02
1407	4.94733e+02	1.40700e+03	1.53992e-02	4.93500e+02
1409	4.95728e+02	1.40900e+03	1.53366e-02	4.94500e+02
1411	4.96725e+02	1.41100e+03	1.52908e-02	4.95500e+02
1413	4.97712e+02	1.41300e+03	1.52803e-02	4.96500e+02
1415	4.98716e+02	1.41500e+03	1.52540e-02	4.97500e+02
1417	4.99721e+02	1.41700e+03	1.52218e-02	4.98500e+02
1419	5.00718e+02	1.41900e+03	1.51844e-02	4.99500e+02
1421	5.01724e+02	1.42100e+03	1.51421e-02	5.00500e+02
1423	5.02726e+02	1.42300e+03	1.51040e-02	5.01500e+02
1425	5.03711e+02	1.42500e+03	1.50656e-02	5.02500e+02
1427	5.04712e+02	1.42700e+03	1.50244e-02	5.03500e+02
1429	5.05713e+02	1.42900e+03	1.49914e-02	5.04500e+02
1431	5.06715e+02	1.43100e+03	1.49790e-02	5.05500e+02
1433	5.07707e+02	1.43300e+03	1.50087e-02	5.06500e+02
1435	5.08696e+02	1.43500e+03	1.50421e-02	5.07500e+02
1437	5.09682e+02	1.43700e+03	1.50833e-02	5.08500e+02
1439	5.10669e+02	1.43900e+03	1.50893e-02	5.09500e+02
1441	5.11649e+02	1.44100e+03	1.50432e-02	5.10500e+02
1443	5.12645e+02	1.44300e+03	1.49917e-02	5.11500e+02
1445	5.13640e+02	1.44500e+03	1.49027e-02	5.12500e+02
1447	5.14636e+02	1.44700e+03	1.48107e-02	5.13500e+02
1449	5.15635e+02	1.44900e+03	1.46896e-02	5.14500e+02
1451	5.16630e+02	1.45100e+03	1.45895e-02	5.15500e+02
1453	5.17649e+02	1.45300e+03	1.45683e-02	5.16500e+02
1455	5.18641e+02	1.45500e+03	1.46234e-02	5.17500e+02
1457	5.19644e+02	1.45700e+03	1.48184e-02	5.18500e+02
1459	5.20633e+02	1.45900e+03	1.49664e-02	5.19500e+02
1461	5.21618e+02	1.46100e+03	1.50743e-02	5.20500e+02
1463	5.22616e+02	1.46300e+03	1.51267e-02	5.21500e+02
1465	5.23610e+02	1.46500e+03	1.50711e-02	5.22500e+02
1467	5.24594e+02	1.46700e+03	1.50220e-02	5.23500e+02
1469	5.25596e+02	1.46900e+03	1.49393e-02	5.24500e+02
1471	5.26569e+02	1.47100e+03	1.48708e-02	5.25500e+02
1473	5.27562e+02	1.47300e+03	1.48065e-02	5.26500e+02
1475	5.28546e+02	1.47500e+03	1.47493e-02	5.27500e+02
1477	5.29548e+02	1.47700e+03	1.47140e-02	5.28500e+02
1479	5.30519e+02	1.47900e+03	1.46912e-02	5.29500e+02
1481	5.31512e+02	1.48100e+03	1.46947e-02	5.30500e+02
1483	5.32499e+02	1.48300e+03	1.46860e-02	5.31500e+02
1485	5.33492e+02	1.48500e+03	1.46641e-02	5.32500e+02
1487	5.34474e+02	1.48700e+03	1.46338e-02	5.33500e+02
1489	5.35470e+02	1.48900e+03	1.46065e-02	5.34500e+02
1491	5.36466e+02	1.49100e+03	1.46109e-02	5.35500e+02
1493	5.37451e+02	1.49300e+03	1.46408e-02	5.36500e+02
1495	5.38447e+02	1.49500e+03	1.46426e-02	5.37500e+02
1497	5.39430e+02	1.49700e+03	1.46149e-02	5.38500e+02
1499	5.40439e+02	1.49900e+03	1.45783e-02	5.39500e+02
1501	5.41442e+02	1.50100e+03	1.45240e-02	5.40500e+02
1503	5.42475e+02	1.50300e+03	1.44907e-02	5.41500e+02
1505	5.43480e+02	1.50500e+03	1.44814e-02	5.42500e+02
1507	5.44465e+02	1.50700e+03	1.44685e-02	5.43500e+02
1509	5.45444e+02	1.50900e+03	1.44633e-02	5.44500e+02
1511	5.46433e+02	1.51100e+03	1.44515e-02	5.45500e+02
1513	5.47438e+02	1.51300e+03	1.44335e-02	5.46500e+02
1515	5.48477e+02	1.51500e+03	1.44148e-02	5.47500e+02
1517	5.49537e+02	1.51700e+03	1.43984e-02	5.48500e+02
1519	5.50557e+02	1.51900e+03	1.43891e-02	5.49500e+02
1521	5.51586e+02	1.52100e+03	1.43965e-02	5.50500e+02
1523	5.52565e+02	1.52300e+03	1.44070e-02	5.51500e+02
1525	5.53537e+02	1.52500e+03	1.44163e-02	5.52500e+02
1527	5.54503e+02	1.52700e+03	1.43986e-02	5.53500e+02
1529	5.55442e+02	1.52900e+03	1.43159e-02	5.54500e+02
1531	5.56439e+02	1.53100e+03	1.42086e-02	5.55500e+02
1533	5.57431e+02	1.53300e+03	1.40663e-02	5.56500e+02
1535	5.58424e+02	1.53500e+03	1.39928e-02	5.57500e+02
1537	5.59406e+02	1.53700e+03	1.40506e-02	5.58500e+02
1539	5.60391e+02	1.53900e+03	1.41499e-02	5.59500e+02
1541	5.61381e+02	1.54100e+03	1.43309e-02	5.60500e+02
1543	5.62370e+02	1.54300e+03	1.44307e-02	5.61500e+02
1545	5.63357e+02	1.54500e+03	1.44290e-02	5.62500e+02
1547	5.64378e+02	1.54700e+03	1.44030e-02	5.63500e+02
1549	5.65385e+02	1.54900e+03	1.43142e-02	5.64500e+02
1551	5.66364e+02	1.55100e+03	1.42655e-02	5.65500e+02
1553	5.67336e+02	1.55300e+03	1.42547e-02	5.66500e+02
1555	5.68331e+02	1.55500e+03	1.42549e-02	5.67500e+02
1557	5.69321e+02	1.55700e+03	1.42771e-02	5.68500e+02
1559	5.70318e+02	1.55900e+03	1.42769e-02	5.69500e+02
1561	5.71312e+02	1.56100e+03	1.42523e-02	5.70500e+02
1563	5.72290e+02	1.56300e+03	1.42260e-02	5.71500e+02
1565	5.73286e+02	1.56500e+03	1.41903e-02	5.72500e+02
1567	5.74270e+02	1.56700e+03	1.41689e-02	5.73500e+02
1569	5.75267e+02	1.56900e+03	1.41660e-02	5.74500e+02
1571	5.76287e+02	1.57100e+03	1.41680e-02	5.75500e+02
1573	5.77302e+02	1.57300e+03	1.41930e-02	5.76500e+02
1575	5.78299e+02	1.57500e+03	1.42219e-02	5.77500e+02
1577	5.79293e+02	1.57700e+03	1.42599e-02	5.78500e+02
1579	5.80307e+02	1.57900e+03	1.42876e-02	5.79500e+02
1581	5.81303e+02	1.58100e+03	1.42964e-02	5.80500e+02
1583	5.82307e+02	1.58300e+03	1.42978e-02	5.81500e+02
1585	5.83302e+02	1.58500e+03	1.42885e-02	5.82500e+02
1587	5.84303e+02	1.58700e+03	1.42914e-02	5.83500e+02
1589	5.85275e+02	1.58900e+03	1.43021e-02	5.84500e+02
1591	5.86257e+02	1.59100e+03	1.43079e-02	5.85500e+02
1593	5.87274e+02	1.59300e+03	1.43112e-02	5.86500e+02
1595	5.88268e+02	1.59500e+03	1.43111e-02	5.87500e+02
1597	5.89312e+02	1.59700e+03	1.43001e-02	5.88500e+02
1599	5.90286e+02	1.59900e+03	1.42878e-02	5.89500e+02
1601	5.91273e+02	1.60100e+03	1.42640e-02	5.90500e+02
1603	5.92296e+02	1.60300e+03	1.42438e-02	5.91500e+02
1605	5.93345e+02	1.60500e+03	1.42226e-02	5.92500e+02
1607	5.94364e+02	1.60700e+03	1.42082e-02	5.93500e+02
1609	5.95291e+02	1.60900e+03	1.42049e-02	5.94500e+02
1611	5.96276e+02	1.61100e+03	1.42019e-02	5.95500e+02
1613	5.97328e+02	1.61300e+03	1.41983e-02	5.96500e+02
1615	5.98372e+02	1.61500e+03	1.41837e-02	5.97500e+02
1617	5.99428e+02	1.61700e+03	1.41512e-02	5.98500e+02
1619	6.00477e+02	1.61900e+03	1.41154e-02	5.99500e+02
1621	6.01550e+02	1.62100e+03	1.40642e-02	6.00500e+02
1623	6.02571e+02	1.62300e+03	1.40150e-02	6.01500e+02
1625	6.03556e+02	1.62500e+03	1.39706e-02	6.02500e+02
1627	6.04495e+02	1.62700e+03	1.39406e-02	6.03500e+02
1629	6.05480e+02	1.62900e+03	1.39399e-02	6.04500e+02
1631	6.06415e+02	1.63100e+03	1.39467e-02	6.05500e+02
1633	6.07384e+02	1.63300e+03	1.39737e-02	6.06500e+02
1635	6.08367e+02	1.63500e+03	1.39923e-02	6.07500e+02
1637	6.09345e+02	1.63700e+03	1.40066e-02	6.08500e+02
1639	6.10334e+02	1.63900e+03	1.40184e-02	6.09500e+02
1641	6.11316e+02	1.64100e+03	1.40225e-02	6.10500e+02
1643	6.12327e+02	1.64300e+03	1.40229e-02	6.11500e+02
1645	6.13340e+02	1.64500e+03	1.40088e-02	6.12500e+02
1647	6.14349e+02	1.64700e+03	1.39904e-02	6.13500e+02
1649	6.15261e+02	1.64900e+03	1.39635e-02	6.14500e+02
1651	6.16264e+02	1.65100e+03	1.39478e-02	6.15500e+02
1653	6.17264e+02	1.65300e+03	1.39426e-02	6.16500e+02
1655	6.18225e+02	1.65500e+03	1.39351e-02	6.17500e+02
1657	6.19188e+02	1.65700e+03	1.39299e-02	6.18500e+02
1659	6.20166e+02	1.65900e+03	1.39197e-02	6.19500e+02
1661	6.21125e+02	1.66100e+03	1.39020e-02	6.20500e+02
1663	6.22073e+02	1.66300e+03	1.38796e-02	6.21500e+02
1665	6.22960e+02	1.66500e+03	1.38499e-02	6.22500e+02
1667	6.23893e+02	1.66700e+03	1.38221e-02	6.23500e+02
1669	6.24867e+02	1.66900e+03	1.38004e-02	6.24500e+02
1671	6.25831e+02	1.67100e+03	1.37904e-02	6.25500e+02
1673	6.26801e+02	1.67300e+03	1.37995e-02	6.26500e+02
1675	6.27799e+02	1.67500e+03	1.38055e-02	6.27500e+02
1677	6.28812e+02	1.67700e+03	1.38046e-02	6.28500e+02
1679	6.29756e+02	1.67900e+03	1.37862e-02	6.29500e+02
1681	6.30718e+02	1.68100e+03	1.37383e-02	6.30500e+02
1683	6.31682e+02	1.68300e+03	1.36923e-02	6.31500e+02
1685	6.32655e+02	1.68500e+03	1.36408e-02	6.32500e+02
1687	6.33631e+02	1.68700e+03	1.36027e-02	6.33500e+02
1689	6.34610e+02	1.68900e+03	1.35872e-02	6.34500e+02
1691	6.35569e+02	1.69100e+03	1.35819e-02	6.35500e+02
1693	6.36557e+02	1.69300e+03	1.36096e-02	6.36500e+02
1695	6.37525e+02	1.69500e+03	1.36369e-02	6.37500e+02
1697	6.38521e+02	1.69700e+03	1.36765e-02	6.38500e+02
1699	6.39480e+02	1.69900e+03	1.37043e-02	6.39500e+02
1701	6.40465e+02	1.70100e+03	1.37168e-02	6.40500e+02
1703	6.41454e+02	1.70300e+03	1.37226e-02	6.41500e+02
1705	6.42445e+02	1.70500e+03	1.37121e-02	6.42500e+02
1707	6.43449e+02	1.70700e+03	1.37059e-02	6.43500e+02
1709	6.44465e+02	1.70900e+03	1.36992e-02	6.44500e+02
1711	6.45448e+02	1.71100e+03	1.36950e-02	6.45500e+02
1713	6.46445e+02	1.71300e+03	1.36885e-02	6.46500e+02
1715	6.47444e+02	1.71500e+03	1.36727e-02	6.47500e+02
1717	6.48442e+02	1.71700e+03	1.36176e-02	6.48500e+02
1719	6.49444e+02	1.71900e+03	1.35167e-02	6.49500e+02
1721	6.50453e+02	1.72100e+03	1.33358e-02	6.50500e+02
1723	6.51445e+02	1.72300e+03	1.32019e-02	6.51500e+02
1725	6.52444e+02	1.72500e+03	1.31686e-02	6.52500e+02
1727	6.53466e+02	1.72700e+03	1.32429e-02	6.53500e+02
1729	6.54469e+02	1.72900e+03	1.35107e-02	6.54500e+02
1731	6.55477e+02	1.73100e+03	1.37224e-02	6.55500e+02
1733	6.56488e+02	1.73300e+03	1.39008e-02	6.56500e+02
1735	6.57515e+02	1.73500e+03	1.39899e-02	6.57500e+02
1737	6.58523e+02	1.73700e+03	1.39365e-02	6.58500e+02
1739	6.59568e+02	1.73900e+03	1.38863e-02	6.59500e+02
1741	6.60604e+02	1.74100e+03	1.37680e-02	6.60500e+02
1743	6.61632e+02	1.74300e+03	1.36788e-02	6.61500e+02
1745	6.62660e+02	1.74500e+03	1.36055e-02	6.62500e+02
1747	6.63678e+02	1.74700e+03	1.35421e-02	6.63500e+02
1749	6.64656e+02	1.74900e+03	1.35111e-02	6.64500e+02
1751	6.65666e+02	1.75100e+03	1.34913e-02	6.65500e+02
1753	6.66679e+02	1.75300e+03	1.35143e-02	6.66500e+02
1755	6.67649e+02	1.75500e+03	1.35469e-02	6.67500e+02
1757	6.68651e+02	1.75700e+03	1.36172e-02	6.68500e+02
1759	6.69652e+02	1.75900e+03	1.36696e-02	6.69500e+02
1761	6.70638e+02	1.76100e+03	1.36846e-02	6.70500e+02
1763	6.71610e+02	1.76300e+03	1.36608e-02	6.71500e+02
1765	6.72590e+02	1.76500e+03	1.35875e-02	6.72500e+02
1767	6.73603e+02	1.76700e+03	1.35450e-02	6.73500e+02
1769	6.74607e+02	1.76900e+03	1.35306e-02	6.74500e+02
1771	6.75578e+02	1.77100e+03	1.35304e-02	6.75500e+02
1773	6.76545e+02	1.77300e+03	1.35604e-02	6.76500e+02
1775	6.77513e+02	1.77500e+03	1.35730e-02	6.77500e+02
1777	6.78483e+02	1.77700e+03	1.35663e-02	6.78500e+02
1779	6.79484e+02	1.77900e+03	1.35441e-02	6.79500e+02
1781	6.80473e+02	1.78100e+03	1.34940e-02	6.80500e+02
1783	6.81443e+02	1.78300e+03	1.34453e-02	6.81500e+02
1785	6.82401e+02	1.78500e+03	1.33588e-02	6.82500e+02
1787	6.83371e+02	1.78700e+03	1.32623e-02	6.83500e+02
1789	6.84355e+02	1.78900e+03	1.31628e-02	6.84500e+02
1791	6.85348e+02	1.79100e+03	1.31100e-02	6.85500e+02
1793	6.86306e+02	1.79300e+03	1.31592e-02	6.86500e+02
1795	6.86911e+02	1.79500e+03	1.32350e-02	6.87500e+02
1797	6.87297e+02	1.79700e+03	1.33928e-02	6.88500e+02
1799	6.87986e+02	1.79900e+03	1.35122e-02	6.89500e+02
1801	6.88661e+02	1.80100e+03	1.36130e-02	6.90500e+02
1803	6.89295e+02	1.80300e+03	1.36736e-02	6.91500e+02
1805	6.89872e+02	1.80500e+03	1.36531e-02	6.92500e+02
1807	6.90416e+02	1.80700e+03	1.36036e-02	6.93500e+02
1809	6.90934e+02	1.80900e+03	1.34982e-02	6.94500e+02
1811	6.91436e+02	1.81100e+03	1.34392e-02	6.95500e+02
1813	6.91902e+02	1.81300e+03	1.34362e-02	6.96500e+02
1815	6.92345e+02	1.81500e+03	1.34720e-02	6.97500e+02
1817	6.92756e+02	1.81700e+03	1.35659e-02	6.98500e+02
1819	6.93143e+02	1.81900e+03	1.36221e-02	6.99500e+02
1820	6.93337e+02	1.82000e+03	1.36371e-02	7.00000e+02