File: Experiments/TGA/TUBS/tga_nonisotherm/tga_dynamic_n2high60_dyn30_piece_3mg_r1.txt
Index	Ts	t	Weight	Tr
[#]	[°C]	[s]	[mg]	[°C]
681	1.30049e+02	6.81000e+02	3.03607	130.5
683	1.31066e+02	6.83000e+02	3.03602	131.5
685	1.32069e+02	6.85000e+02	3.03597	132.5
687	1.33089e+02	6.87000e+02	3.03594	133.5
689	1.34086e+02	6.89000e+02	3.03596	134.5
691	1.35087e+02	6.91000e+02	3.036	135.5
693	1.36107e+02	6.93000e+02	3.03608	136.5
695	1.37102e+02	6.95000e+02	3.0361	137.5
697	1.38131e+02	6.97000e+02	3.03608	138.5
699	1.39141e+02	6.99000e+02	3.03605	139.5
701	1.40154e+02	7.01000e+02	3.03597	140.5
703	1.41156e+02	7.03000e+02	3.03589	141.5
705	1.42168e+02	7.05000e+02	3.03579	142.5
707	1.43172e+02	7.07000e+02	3.03572	143.5
709	1.44197e+02	7.09000e+02	3.03568	144.5
711	1.45197e+02	7.11000e+02	3.03562	145.5
713	1.46216e+02	7.13000e+02	3.03558	146.5
715	1.47224e+02	7.15000e+02	3.03554	147.5
717	1.48239e+02	7.17000e+02	3.03551	148.5
719	1.49245e+02	7.19000e+02	3.03548	149.5
721	1.50269e+02	7.21000e+02	3.03547	150.5
723	1.51281e+02	7.23000e+02	3.03548	151.5
725	1.52290e+02	7.25000e+02	3.03548	152.5
727	1.53299e+02	7.27000e+02	3.03544	153.5
729	1.54308e+02	7.29000e+02	3.03537	154.5
731	1.55321e+02	7.31000e+02	3.03531	155.5
733	1.56338e+02	7.33000e+02	3.03522	156.5
735	1.57349e+02	7.35000e+02	3.03512	157.5
737	1.58375e+02	7.37000e+02	3.035	158.5
739	1.59381e+02	7.39000e+02	3.03489	159.5
741	1.60388e+02	7.41000e+02	3.03477	160.5
743	1.61406e+02	7.43000e+02	3.03466	161.5
745	1.62409e+02	7.45000e+02	3.03459	162.5
747	1.63427e+02	7.47000e+02	3.03453	163.5
749	1.64453e+02	7.49000e+02	3.03449	164.5
751	1.65460e+02	7.51000e+02	3.03444	165.5
753	1.66487e+02	7.53000e+02	3.03436	166.5
755	1.67498e+02	7.55000e+02	3.03424	167.5
757	1.68492e+02	7.57000e+02	3.03409	168.5
759	1.69533e+02	7.59000e+02	3.03394	169.5
761	1.70552e+02	7.61000e+02	3.0338	170.5
763	1.71567e+02	7.63000e+02	3.03367	171.5
765	1.72591e+02	7.65000e+02	3.03356	172.5
767	1.73606e+02	7.67000e+02	3.03344	173.5
769	1.74620e+02	7.69000e+02	3.03333	174.5
771	1.75642e+02	7.71000e+02	3.03323	175.5
773	1.76652e+02	7.73000e+02	3.03315	176.5
775	1.77678e+02	7.75000e+02	3.03306	177.5
777	1.78688e+02	7.77000e+02	3.03296	178.5
779	1.79713e+02	7.79000e+02	3.03282	179.5
781	1.80727e+02	7.81000e+02	3.03264	180.5
783	1.81741e+02	7.83000e+02	3.03247	181.5
785	1.82754e+02	7.85000e+02	3.03228	182.5
787	1.83774e+02	7.87000e+02	3.0321	183.5
789	1.84794e+02	7.89000e+02	3.03191	184.5
791	1.85806e+02	7.91000e+02	3.03173	185.5
793	1.86829e+02	7.93000e+02	3.03152	186.5
795	1.87847e+02	7.95000e+02	3.03129	187.5
797	1.88868e+02	7.97000e+02	3.03101	188.5
799	1.89893e+02	7.99000e+02	3.03073	189.5
801	1.90898e+02	8.01000e+02	3.0304	190.5
803	1.91922e+02	8.03000e+02	3.03006	191.5
805	1.92952e+02	8.05000e+02	3.02968	192.5
807	1.93967e+02	8.07000e+02	3.02933	193.5
809	1.94985e+02	8.09000e+02	3.02899	194.5
811	1.96005e+02	8.11000e+02	3.02863	195.5
813	1.97023e+02	8.13000e+02	3.02825	196.5
815	1.98042e+02	8.15000e+02	3.02782	197.5
817	1.99064e+02	8.17000e+02	3.02732	198.5
819	2.00081e+02	8.19000e+02	3.02682	199.5
821	2.01086e+02	8.21000e+02	3.02629	200.5
823	2.02116e+02	8.23000e+02	3.02577	201.5
825	2.03149e+02	8.25000e+02	3.02521	202.5
827	2.04151e+02	8.27000e+02	3.0246	203.5
829	2.05182e+02	8.29000e+02	3.0239	204.5
831	2.06200e+02	8.31000e+02	3.02322	205.5
833	2.07212e+02	8.33000e+02	3.02254	206.5
835	2.08236e+02	8.35000e+02	3.02187	207.5
837	2.09279e+02	8.37000e+02	3.02121	208.5
839	2.10290e+02	8.39000e+02	3.02052	209.5
841	2.11320e+02	8.41000e+02	3.01981	210.5
843	2.12348e+02	8.43000e+02	3.01911	211.5
845	2.13367e+02	8.45000e+02	3.01839	212.5
847	2.14386e+02	8.47000e+02	3.01769	213.5
849	2.15411e+02	8.49000e+02	3.01701	214.5
851	2.16438e+02	8.51000e+02	3.01633	215.5
853	2.17449e+02	8.53000e+02	3.01567	216.5
855	2.18480e+02	8.55000e+02	3.01497	217.5
857	2.19499e+02	8.57000e+02	3.01424	218.5
859	2.20504e+02	8.59000e+02	3.01351	219.5
861	2.21502e+02	8.61000e+02	3.01278	220.5
863	2.22515e+02	8.63000e+02	3.01207	221.5
865	2.23539e+02	8.65000e+02	3.01139	222.5
867	2.24557e+02	8.67000e+02	3.0107	223.5
869	2.25594e+02	8.69000e+02	3.01001	224.5
871	2.26604e+02	8.71000e+02	3.00931	225.5
873	2.27635e+02	8.73000e+02	3.00858	226.5
875	2.28646e+02	8.75000e+02	3.00785	227.5
877	2.29663e+02	8.77000e+02	3.00707	228.5
879	2.30680e+02	8.79000e+02	3.00629	229.5
881	2.31696e+02	8.81000e+02	3.00549	230.5
883	2.32733e+02	8.83000e+02	3.00474	231.5
885	2.33753e+02	8.85000e+02	3.004	232.5
887	2.34774e+02	8.87000e+02	3.00321	233.5
889	2.35802e+02	8.89000e+02	3.00237	234.5
891	2.36839e+02	8.91000e+02	3.00154	235.5
893	2.37856e+02	8.93000e+02	3.00069	236.5
895	2.38895e+02	8.95000e+02	2.99985	237.5
897	2.39923e+02	8.97000e+02	2.99903	238.5
899	2.40953e+02	8.99000e+02	2.99822	239.5
901	2.41973e+02	9.01000e+02	2.99743	240.5
903	2.42985e+02	9.03000e+02	2.99663	241.5
905	2.44005e+02	9.05000e+02	2.99583	242.5
907	2.45029e+02	9.07000e+02	2.99504	243.5
909	2.46066e+02	9.09000e+02	2.99426	244.5
911	2.47096e+02	9.11000e+02	2.99347	245.5
913	2.48114e+02	9.13000e+02	2.99267	246.5
915	2.49141e+02	9.15000e+02	2.99185	247.5
917	2.50169e+02	9.17000e+02	2.99103	248.5
919	2.51184e+02	9.19000e+02	2.99018	249.5
921	2.52232e+02	9.21000e+02	2.98931	250.5
923	2.53258e+02	9.23000e+02	2.98845	251.5
925	2.54292e+02	9.25000e+02	2.98757	252.5
927	2.55302e+02	9.27000e+02	2.98671	253.5
929	2.56335e+02	9.29000e+02	2.98586	254.5
931	2.57390e+02	9.31000e+02	2.98499	255.5
933	2.58420e+02	9.33000e+02	2.98411	256.5
935	2.59437e+02	9.35000e+02	2.98322	257.5
937	2.60472e+02	9.37000e+02	2.98229	258.5
939	2.61484e+02	9.39000e+02	2.98136	259.5
941	2.62483e+02	9.41000e+02	2.98039	260.5
943	2.63513e+02	9.43000e+02	2.97942	261.5
945	2.64530e+02	9.45000e+02	2.97841	262.5
947	2.65531e+02	9.47000e+02	2.9774	263.5
949	2.66526e+02	9.49000e+02	2.9764	264.5
951	2.67529e+02	9.51000e+02	2.97545	265.5
953	2.68543e+02	9.53000e+02	2.97454	266.5
955	2.69607e+02	9.55000e+02	2.97363	267.5
957	2.70663e+02	9.57000e+02	2.97276	268.5
959	2.71715e+02	9.59000e+02	2.97189	269.5
961	2.72748e+02	9.61000e+02	2.97103	270.5
963	2.73876e+02	9.63000e+02	2.97013	271.5
965	2.74916e+02	9.65000e+02	2.96918	272.5
967	2.75956e+02	9.67000e+02	2.96819	273.5
969	2.76950e+02	9.69000e+02	2.96707	274.5
971	2.77971e+02	9.71000e+02	2.96584	275.5
973	2.78995e+02	9.73000e+02	2.96437	276.5
975	2.80054e+02	9.75000e+02	2.96286	277.5
977	2.81068e+02	9.77000e+02	2.9612	278.5
979	2.82114e+02	9.79000e+02	2.9596	279.5
981	2.83101e+02	9.81000e+02	2.95804	280.5
983	2.84112e+02	9.83000e+02	2.95655	281.5
985	2.85108e+02	9.85000e+02	2.95515	282.5
987	2.86142e+02	9.87000e+02	2.95372	283.5
989	2.87154e+02	9.89000e+02	2.95229	284.5
991	2.88161e+02	9.91000e+02	2.95078	285.5
993	2.89162e+02	9.93000e+02	2.9491	286.5
995	2.90176e+02	9.95000e+02	2.94737	287.5
997	2.91205e+02	9.97000e+02	2.94552	288.5
999	2.92236e+02	9.99000e+02	2.94373	289.5
1001	2.93238e+02	1.00100e+03	2.94199	290.5
1003	2.94252e+02	1.00300e+03	2.94027	291.5
1005	2.95261e+02	1.00500e+03	2.93859	292.5
1007	2.96266e+02	1.00700e+03	2.93688	293.5
1009	2.97297e+02	1.00900e+03	2.93511	294.5
1011	2.98306e+02	1.01100e+03	2.93331	295.5
1013	2.99328e+02	1.01300e+03	2.93141	296.5
1015	3.00359e+02	1.01500e+03	2.92949	297.5
1017	3.01324e+02	1.01700e+03	2.92747	298.5
1019	3.02319e+02	1.01900e+03	2.92545	299.5
1021	3.03315e+02	1.02100e+03	2.92336	300.5
1023	3.04307e+02	1.02300e+03	2.92124	301.5
1025	3.05282e+02	1.02500e+03	2.91903	302.5
1027	3.06167e+02	1.02700e+03	2.91679	303.5
1029	3.07057e+02	1.02900e+03	2.91444	304.5
1031	3.07928e+02	1.03100e+03	2.91204	305.5
1033	3.08835e+02	1.03300e+03	2.90952	306.5
1035	3.09705e+02	1.03500e+03	2.907	307.5
1037	3.10580e+02	1.03700e+03	2.90438	308.5
1039	3.11453e+02	1.03900e+03	2.90171	309.5
1041	3.12302e+02	1.04100e+03	2.89893	310.5
1043	3.13184e+02	1.04300e+03	2.89612	311.5
1045	3.14077e+02	1.04500e+03	2.89317	312.5
1047	3.14977e+02	1.04700e+03	2.89014	313.5
1049	3.15871e+02	1.04900e+03	2.8869	314.5
1051	3.16773e+02	1.05100e+03	2.8836	315.5
1053	3.17704e+02	1.05300e+03	2.88008	316.5
1055	3.18657e+02	1.05500e+03	2.87655	317.5
1057	3.19623e+02	1.05700e+03	2.87289	318.5
1059	3.20601e+02	1.05900e+03	2.86923	319.5
1061	3.21552e+02	1.06100e+03	2.86548	320.5
1063	3.22527e+02	1.06300e+03	2.86171	321.5
1065	3.23496e+02	1.06500e+03	2.85791	322.5
1067	3.24488e+02	1.06700e+03	2.85416	323.5
1069	3.25503e+02	1.06900e+03	2.85045	324.5
1071	3.26495e+02	1.07100e+03	2.84675	325.5
1073	3.27504e+02	1.07300e+03	2.84307	326.5
1075	3.28506e+02	1.07500e+03	2.83936	327.5
1077	3.29504e+02	1.07700e+03	2.83559	328.5
1079	3.30524e+02	1.07900e+03	2.83175	329.5
1081	3.31508e+02	1.08100e+03	2.82777	330.5
1083	3.32519e+02	1.08300e+03	2.82376	331.5
1085	3.33519e+02	1.08500e+03	2.8196	332.5
1087	3.34527e+02	1.08700e+03	2.81538	333.5
1089	3.35534e+02	1.08900e+03	2.81091	334.5
1091	3.36561e+02	1.09100e+03	2.80631	335.5
1093	3.37584e+02	1.09300e+03	2.80133	336.5
1095	3.38763e+02	1.09500e+03	2.79624	337.5
1097	3.39732e+02	1.09700e+03	2.79074	338.5
1099	3.40700e+02	1.09900e+03	2.78513	339.5
1101	3.41791e+02	1.10100e+03	2.77908	340.5
1103	3.42852e+02	1.10300e+03	2.7729	341.5
1105	3.43801e+02	1.10500e+03	2.76617	342.5
1107	3.44787e+02	1.10700e+03	2.75925	343.5
1109	3.45818e+02	1.10900e+03	2.75165	344.5
1111	3.46850e+02	1.11100e+03	2.74384	345.5
1113	3.47867e+02	1.11300e+03	2.7352	346.5
1115	3.48852e+02	1.11500e+03	2.72627	347.5
1117	3.49844e+02	1.11700e+03	2.71638	348.5
1119	3.50868e+02	1.11900e+03	2.70628	349.5
1121	3.51885e+02	1.12100e+03	2.69514	350.5
1123	3.52891e+02	1.12300e+03	2.68367	351.5
1125	3.53849e+02	1.12500e+03	2.67099	352.5
1127	3.54824e+02	1.12700e+03	2.65791	353.5
1129	3.55819e+02	1.12900e+03	2.64337	354.5
1131	3.56784e+02	1.13100e+03	2.62833	355.5
1133	3.57765e+02	1.13300e+03	2.61157	356.5
1135	3.58751e+02	1.13500e+03	2.5943	357.5
1137	3.59729e+02	1.13700e+03	2.57504	358.5
1139	3.60717e+02	1.13900e+03	2.55514	359.5
1141	3.61725e+02	1.14100e+03	2.53286	360.5
1143	3.62727e+02	1.14300e+03	2.50979	361.5
1145	3.63730e+02	1.14500e+03	2.48393	362.5
1147	3.64719e+02	1.14700e+03	2.45737	363.5
1149	3.65698e+02	1.14900e+03	2.42804	364.5
1151	3.66695e+02	1.15100e+03	2.39823	365.5
1153	3.67684e+02	1.15300e+03	2.36596	366.5
1155	3.68698e+02	1.15500e+03	2.33312	367.5
1157	3.69680e+02	1.15700e+03	2.29761	368.5
1159	3.70668e+02	1.15900e+03	2.26125	369.5
1161	3.71667e+02	1.16100e+03	2.22197	370.5
1163	3.72671e+02	1.16300e+03	2.18218	371.5
1165	3.73680e+02	1.16500e+03	2.13983	372.5
1167	3.74721e+02	1.16700e+03	2.09705	373.5
1169	3.75750e+02	1.16900e+03	2.05218	374.5
1171	3.76744e+02	1.17100e+03	2.00711	375.5
1173	3.77758e+02	1.17300e+03	1.96057	376.5
1175	3.78771e+02	1.17500e+03	1.91395	377.5
1177	3.79758e+02	1.17700e+03	1.8664	378.5
1179	3.80723e+02	1.17900e+03	1.81877	379.5
1181	3.81721e+02	1.18100e+03	1.77049	380.5
1183	3.82702e+02	1.18300e+03	1.72214	381.5
1185	3.83685e+02	1.18500e+03	1.67325	382.5
1187	3.84700e+02	1.18700e+03	1.62417	383.5
1189	3.85704e+02	1.18900e+03	1.57438	384.5
1191	3.86709e+02	1.19100e+03	1.52432	385.5
1193	3.87737e+02	1.19300e+03	1.4734	386.5
1195	3.88753e+02	1.19500e+03	1.42235	387.5
1197	3.89761e+02	1.19700e+03	1.37067	388.5
1199	3.90759e+02	1.19900e+03	1.31899	389.5
1201	3.91774e+02	1.20100e+03	1.26702	390.5
1203	3.92778e+02	1.20300e+03	1.21519	391.5
1205	3.93771e+02	1.20500e+03	1.16349	392.5
1207	3.94752e+02	1.20700e+03	1.11194	393.5
1209	3.95729e+02	1.20900e+03	1.06057	394.5
1211	3.96741e+02	1.21100e+03	1.00904	395.5
1213	3.97753e+02	1.21300e+03	0.957131	396.5
1215	3.98770e+02	1.21500e+03	0.904772	397.5
1217	3.99765e+02	1.21700e+03	0.851396	398.5
1219	4.00777e+02	1.21900e+03	0.797843	399.5
1221	4.01773e+02	1.22100e+03	0.743903	400.5
1223	4.02753e+02	1.22300e+03	0.690746	401.5
1225	4.03799e+02	1.22500e+03	0.639028	402.5
1227	4.04845e+02	1.22700e+03	0.588349	403.5
1229	4.05892e+02	1.22900e+03	0.540515	404.5
1231	4.06928e+02	1.23100e+03	0.493776	405.5
1233	4.07961e+02	1.23300e+03	0.450796	406.5
1235	4.09019e+02	1.23500e+03	0.408979	407.5
1237	4.10061e+02	1.23700e+03	0.371406	408.5
1239	4.11058e+02	1.23900e+03	0.334872	409.5
1241	4.12082e+02	1.24100e+03	0.302653	410.5
1243	4.13067e+02	1.24300e+03	0.271435	411.5
1245	4.14066e+02	1.24500e+03	0.244425	412.5
1247	4.15078e+02	1.24700e+03	0.218298	413.5
1249	4.16079e+02	1.24900e+03	0.196071	414.5
1251	4.17063e+02	1.25100e+03	0.174562	415.5
1253	4.18083e+02	1.25300e+03	0.156495	416.5
1255	4.19100e+02	1.25500e+03	0.139004	417.5
1257	4.20081e+02	1.25700e+03	0.124458	418.5
1259	4.21078e+02	1.25900e+03	0.110396	419.5
1261	4.22040e+02	1.26100e+03	0.0988327	420.5
1263	4.23029e+02	1.26300e+03	0.0876646	421.5
1265	4.24025e+02	1.26500e+03	0.0785995	422.5
1267	4.25028e+02	1.26700e+03	0.0698597	423.5
1269	4.26048e+02	1.26900e+03	0.0628701	424.5
1271	4.27057e+02	1.27100e+03	0.0561367	425.5
1273	4.28095e+02	1.27300e+03	0.0508152	426.5
1275	4.29123e+02	1.27500e+03	0.0456737	427.5
1277	4.30142e+02	1.27700e+03	0.0416327	428.5
1279	4.31166e+02	1.27900e+03	0.0377245	429.5
1281	4.32162e+02	1.28100e+03	0.034642	430.5
1283	4.33156e+02	1.28300e+03	0.0316459	431.5
1285	4.34155e+02	1.28500e+03	0.0292578	432.5
1287	4.35145e+02	1.28700e+03	0.0269434	433.5
1289	4.36132e+02	1.28900e+03	0.025072	434.5
1291	4.37143e+02	1.29100e+03	0.0232443	435.5
1293	4.38122e+02	1.29300e+03	0.0217599	436.5
1295	4.39120e+02	1.29500e+03	0.0203366	437.5
1297	4.40111e+02	1.29700e+03	0.0191784	438.5
1299	4.41097e+02	1.29900e+03	0.0180315	439.5
1301	4.42071e+02	1.30100e+03	0.0170844	440.5
1303	4.43067e+02	1.30300e+03	0.0161878	441.5
1305	4.44042e+02	1.30500e+03	0.0154491	442.5
1307	4.45018e+02	1.30700e+03	0.0147073	443.5
1309	4.45993e+02	1.30900e+03	0.0140773	444.5
1311	4.46957e+02	1.31100e+03	0.0134883	445.5
1313	4.47933e+02	1.31300e+03	0.0129934	446.5
1315	4.48910e+02	1.31500e+03	0.0124829	447.5
1317	4.49874e+02	1.31700e+03	0.0120103	448.5
1319	4.50860e+02	1.31900e+03	0.0115558	449.5
1321	4.51823e+02	1.32100e+03	0.0111708	450.5
1323	4.52770e+02	1.32300e+03	0.0108301	451.5
1325	4.53713e+02	1.32500e+03	0.0105913	452.5
1327	4.54673e+02	1.32700e+03	0.0103404	453.5
1329	4.55634e+02	1.32900e+03	0.0101403	454.5
1331	4.56580e+02	1.33100e+03	0.00995222	455.5
1333	4.57544e+02	1.33300e+03	0.0098322	456.5
1335	4.58501e+02	1.33500e+03	0.00974715	457.5
1337	4.59467e+02	1.33700e+03	0.00972959	458.5
1339	4.60445e+02	1.33900e+03	0.00967927	459.5
1341	4.61427e+02	1.34100e+03	0.00962284	460.5
1343	4.62412e+02	1.34300e+03	0.00956801	461.5
1345	4.63391e+02	1.34500e+03	0.00951873	462.5
1347	4.64368e+02	1.34700e+03	0.0094793	463.5
1349	4.65332e+02	1.34900e+03	0.0094526	464.5
1351	4.66320e+02	1.35100e+03	0.00942156	465.5
1353	4.67291e+02	1.35300e+03	0.00940454	466.5
1355	4.68269e+02	1.35500e+03	0.00940188	467.5
1357	4.69248e+02	1.35700e+03	0.00942545	468.5
1359	4.70199e+02	1.35900e+03	0.0094475	469.5
1361	4.71170e+02	1.36100e+03	0.00948525	470.5
1363	4.72138e+02	1.36300e+03	0.00952598	471.5
1365	4.73117e+02	1.36500e+03	0.00954542	472.5
1367	4.74090e+02	1.36700e+03	0.00952504	473.5
1369	4.75069e+02	1.36900e+03	0.00944436	474.5
1371	4.76044e+02	1.37100e+03	0.00935604	475.5
1373	4.77011e+02	1.37300e+03	0.0092085	476.5
1375	4.77994e+02	1.37500e+03	0.00906565	477.5
1377	4.78957e+02	1.37700e+03	0.00893529	478.5
1379	4.79929e+02	1.37900e+03	0.00885744	479.5
1381	4.80892e+02	1.38100e+03	0.00885429	480.5
1383	4.81861e+02	1.38300e+03	0.00883277	481.5
1385	4.82856e+02	1.38500e+03	0.00882397	482.5
1387	4.83842e+02	1.38700e+03	0.00880318	483.5
1389	4.84856e+02	1.38900e+03	0.00875674	484.5
1391	4.85844e+02	1.39100e+03	0.0087059	485.5
1393	4.86826e+02	1.39300e+03	0.00865698	486.5
1395	4.87828e+02	1.39500e+03	0.00863606	487.5
1397	4.88819e+02	1.39700e+03	0.00863044	488.5
1399	4.89803e+02	1.39900e+03	0.00860057	489.5
1401	4.90776e+02	1.40100e+03	0.00855936	490.5
1403	4.91768e+02	1.40300e+03	0.00853098	491.5
1405	4.92748e+02	1.40500e+03	0.00849873	492.5
1407	4.93727e+02	1.40700e+03	0.00846266	493.5
1409	4.94724e+02	1.40900e+03	0.00843998	494.5
1411	4.95715e+02	1.41100e+03	0.00843896	495.5
1413	4.96692e+02	1.41300e+03	0.00846205	496.5
1415	4.97657e+02	1.41500e+03	0.00846681	497.5
1417	4.98618e+02	1.41700e+03	0.00846176	498.5
1419	4.99594e+02	1.41900e+03	0.00845125	499.5
1421	5.00555e+02	1.42100e+03	0.00842714	500.5
1423	5.01542e+02	1.42300e+03	0.00839924	501.5
1425	5.02522e+02	1.42500e+03	0.0083512	502.5
1427	5.03536e+02	1.42700e+03	0.00829069	503.5
1429	5.04510e+02	1.42900e+03	0.0082106	504.5
1431	5.05487e+02	1.43100e+03	0.008143	505.5
1433	5.06482e+02	1.43300e+03	0.00808204	506.5
1435	5.07446e+02	1.43500e+03	0.00802841	507.5
1437	5.08415e+02	1.43700e+03	0.0080004	508.5
1439	5.09404e+02	1.43900e+03	0.00797695	509.5
1441	5.10382e+02	1.44100e+03	0.00794731	510.5
1443	5.11367e+02	1.44300e+03	0.00789789	511.5
1445	5.12342e+02	1.44500e+03	0.00785391	512.5
1447	5.13334e+02	1.44700e+03	0.00785637	513.5
1449	5.14308e+02	1.44900e+03	0.00791509	514.5
1451	5.15252e+02	1.45100e+03	0.00794915	515.5
1453	5.16233e+02	1.45300e+03	0.00796921	516.5
1455	5.17229e+02	1.45500e+03	0.00797019	517.5
1457	5.18234e+02	1.45700e+03	0.00793006	518.5
1459	5.19197e+02	1.45900e+03	0.00789111	519.5
1461	5.20174e+02	1.46100e+03	0.00783887	520.5
1463	5.21151e+02	1.46300e+03	0.00780226	521.5
1465	5.22128e+02	1.46500e+03	0.00778616	522.5
1467	5.23107e+02	1.46700e+03	0.00777642	523.5
1469	5.24061e+02	1.46900e+03	0.00779886	524.5
1471	5.25033e+02	1.47100e+03	0.00782025	525.5
1473	5.26020e+02	1.47300e+03	0.00783018	526.5
1475	5.26998e+02	1.47500e+03	0.00780717	527.5
1477	5.27963e+02	1.47700e+03	0.00773804	528.5
1479	5.28940e+02	1.47900e+03	0.00768121	529.5
1481	5.29933e+02	1.48100e+03	0.0076301	530.5
1483	5.30907e+02	1.48300e+03	0.00759347	531.5
1485	5.31938e+02	1.48500e+03	0.00759298	532.5
1487	5.32952e+02	1.48700e+03	0.00759987	533.5
1489	5.33948e+02	1.48900e+03	0.00762075	534.5
1491	5.34928e+02	1.49100e+03	0.00761951	535.5
1493	5.35922e+02	1.49300e+03	0.00759617	536.5
1495	5.36933e+02	1.49500e+03	0.00757077	537.5
1497	5.37947e+02	1.49700e+03	0.00752973	538.5
1499	5.38979e+02	1.49900e+03	0.00750199	539.5
1501	5.39994e+02	1.50100e+03	0.00749247	540.5
1503	5.40988e+02	1.50300e+03	0.00749895	541.5
1505	5.41994e+02	1.50500e+03	0.00753436	542.5
1507	5.43021e+02	1.50700e+03	0.00755766	543.5
1509	5.44027e+02	1.50900e+03	0.0075637	544.5
1511	5.45001e+02	1.51100e+03	0.00754675	545.5
1513	5.45980e+02	1.51300e+03	0.00749724	546.5
1515	5.46971e+02	1.51500e+03	0.00745274	547.5
1517	5.47977e+02	1.51700e+03	0.00739849	548.5
1519	5.48970e+02	1.51900e+03	0.00735634	549.5
1521	5.49969e+02	1.52100e+03	0.00734893	550.5
1523	5.50988e+02	1.52300e+03	0.00737005	551.5
1525	5.52013e+02	1.52500e+03	0.00744029	552.5
1527	5.53039e+02	1.52700e+03	0.00749446	553.5
1529	5.54075e+02	1.52900e+03	0.00754883	554.5
1531	5.55159e+02	1.53100e+03	0.00759415	555.5
1533	5.56301e+02	1.53300e+03	0.00761279	556.5
1535	5.57629e+02	1.53500e+03	0.00761621	557.5
1537	5.59258e+02	1.53700e+03	0.00758886	558.5
1539	5.60238e+02	1.53900e+03	0.00757091	559.5
1541	5.62930e+02	1.54100e+03	0.00754208	560.5
1543	5.63680e+02	1.54300e+03	0.00751513	561.5
1545	5.64508e+02	1.54500e+03	0.00748913	562.5
1547	5.65422e+02	1.54700e+03	0.00746354	563.5
1549	5.66379e+02	1.54900e+03	0.00742666	564.5
1551	5.67303e+02	1.55100e+03	0.00738205	565.5
1553	5.68190e+02	1.55300e+03	0.00733892	566.5
1555	5.69148e+02	1.55500e+03	0.00732413	567.5
1557	5.70143e+02	1.55700e+03	0.00733791	568.5
1559	5.71167e+02	1.55900e+03	0.00734385	569.5
1561	5.72118e+02	1.56100e+03	0.00735928	570.5
1563	5.73061e+02	1.56300e+03	0.00738064	571.5
1565	5.73940e+02	1.56500e+03	0.00740807	572.5
1567	5.74898e+02	1.56700e+03	0.00742369	573.5
1569	5.75820e+02	1.56900e+03	0.00743208	574.5
1571	5.76763e+02	1.57100e+03	0.00744071	575.5
1573	5.77702e+02	1.57300e+03	0.00744483	576.5
1575	5.78701e+02	1.57500e+03	0.00744988	577.5
1577	5.79678e+02	1.57700e+03	0.00745925	578.5
1579	5.80649e+02	1.57900e+03	0.00747126	579.5
1581	5.81575e+02	1.58100e+03	0.00747891	580.5
1583	5.82517e+02	1.58300e+03	0.007478	581.5
1585	5.83501e+02	1.58500e+03	0.0074723	582.5
1587	5.84465e+02	1.58700e+03	0.00747076	583.5
1589	5.85401e+02	1.58900e+03	0.00746055	584.5
1591	5.86357e+02	1.59100e+03	0.0074344	585.5
1593	5.87310e+02	1.59300e+03	0.00739068	586.5
1595	5.88256e+02	1.59500e+03	0.0073717	587.5
1597	5.89230e+02	1.59700e+03	0.00739346	588.5
1599	5.90216e+02	1.59900e+03	0.00743827	589.5
1601	5.91205e+02	1.60100e+03	0.00753128	590.5
1603	5.92171e+02	1.60300e+03	0.00760563	591.5
1605	5.93194e+02	1.60500e+03	0.00766656	592.5
1607	5.94190e+02	1.60700e+03	0.00770193	593.5
1609	5.95154e+02	1.60900e+03	0.00767284	594.5
1611	5.96108e+02	1.61100e+03	0.00763156	595.5
1613	5.97080e+02	1.61300e+03	0.00756282	596.5
1615	5.98058e+02	1.61500e+03	0.00752984	597.5
1617	5.99067e+02	1.61700e+03	0.00753403	598.5
1619	6.00106e+02	1.61900e+03	0.00753551	599.5
1621	6.01090e+02	1.62100e+03	0.00756053	600.5
1623	6.02042e+02	1.62300e+03	0.00758237	601.5
1625	6.03033e+02	1.62500e+03	0.00758933	602.5
1627	6.03896e+02	1.62700e+03	0.00757159	603.5
1629	6.04818e+02	1.62900e+03	0.007525	604.5
1631	6.05768e+02	1.63100e+03	0.007489	605.5
1633	6.06717e+02	1.63300e+03	0.00744035	606.5
1635	6.07658e+02	1.63500e+03	0.00738395	607.5
1637	6.08610e+02	1.63700e+03	0.00734283	608.5
1639	6.09560e+02	1.63900e+03	0.00732883	609.5
1641	6.10509e+02	1.64100e+03	0.00735199	610.5
1643	6.11459e+02	1.64300e+03	0.00736293	611.5
1645	6.12421e+02	1.64500e+03	0.00738634	612.5
1647	6.13396e+02	1.64700e+03	0.00741022	613.5
1649	6.14366e+02	1.64900e+03	0.00742856	614.5
1651	6.15333e+02	1.65100e+03	0.00742928	615.5
1653	6.16302e+02	1.65300e+03	0.0074125	616.5
1655	6.17281e+02	1.65500e+03	0.00740721	617.5
1657	6.18273e+02	1.65700e+03	0.00739906	618.5
1659	6.19234e+02	1.65900e+03	0.00737606	619.5
1661	6.20183e+02	1.66100e+03	0.00735759	620.5
1663	6.21188e+02	1.66300e+03	0.00735505	621.5
1665	6.22193e+02	1.66500e+03	0.00737293	622.5
1667	6.23231e+02	1.66700e+03	0.00738908	623.5
1669	6.24357e+02	1.66900e+03	0.00741278	624.5
1671	6.25464e+02	1.67100e+03	0.00742515	625.5
1673	6.26495e+02	1.67300e+03	0.00742455	626.5
1675	6.27622e+02	1.67500e+03	0.00741318	627.5
1677	6.30441e+02	1.67700e+03	0.00737392	628.5
1679	6.31199e+02	1.67900e+03	0.00733169	629.5
1681	6.31941e+02	1.68100e+03	0.00727681	630.5
1683	6.32823e+02	1.68300e+03	0.00723556	631.5
1685	6.33726e+02	1.68500e+03	0.00721608	632.5
1687	6.34673e+02	1.68700e+03	0.00721743	633.5
1689	6.35603e+02	1.68900e+03	0.00727459	634.5
1691	6.36527e+02	1.69100e+03	0.00734042	635.5
1693	6.37468e+02	1.69300e+03	0.00741987	636.5
1695	6.38415e+02	1.69500e+03	0.00746199	637.5
1697	6.39377e+02	1.69700e+03	0.00746383	638.5
1699	6.40332e+02	1.69900e+03	0.00747315	639.5
1701	6.41312e+02	1.70100e+03	0.00746753	640.5
1703	6.42297e+02	1.70300e+03	0.00746192	641.5
1705	6.43266e+02	1.70500e+03	0.00744592	642.5
1707	6.44236e+02	1.70700e+03	0.00742313	643.5
1709	6.45207e+02	1.70900e+03	0.00737565	644.5
1711	6.46168e+02	1.71100e+03	0.00733889	645.5
1713	6.47145e+02	1.71300e+03	0.00733144	646.5
1715	6.48112e+02	1.71500e+03	0.00736729	647.5
1717	6.49079e+02	1.71700e+03	0.00746682	648.5
1719	6.50046e+02	1.71900e+03	0.00753553	649.5
1721	6.51018e+02	1.72100e+03	0.00758012	650.5
1723	6.51985e+02	1.72300e+03	0.0075952	651.5
1725	6.52968e+02	1.72500e+03	0.0075432	652.5
1727	6.53938e+02	1.72700e+03	0.00748805	653.5
1729	6.54908e+02	1.72900e+03	0.00741788	654.5
1731	6.55853e+02	1.73100e+03	0.00737592	655.5
1733	6.56814e+02	1.73300e+03	0.00734957	656.5
1735	6.57781e+02	1.73500e+03	0.00729427	657.5
1737	6.58753e+02	1.73700e+03	0.00723732	658.5
1739	6.59708e+02	1.73900e+03	0.00721218	659.5
1741	6.60666e+02	1.74100e+03	0.00723121	660.5
1743	6.61636e+02	1.74300e+03	0.00725639	661.5
1745	6.62609e+02	1.74500e+03	0.00731112	662.5
1747	6.63567e+02	1.74700e+03	0.00734514	663.5
1749	6.64548e+02	1.74900e+03	0.00735747	664.5
1751	6.65528e+02	1.75100e+03	0.00736401	665.5
1753	6.66501e+02	1.75300e+03	0.00736586	666.5
1755	6.67483e+02	1.75500e+03	0.00739216	667.5
1757	6.68450e+02	1.75700e+03	0.00744679	668.5
1759	6.69439e+02	1.75900e+03	0.00748719	669.5
1761	6.70423e+02	1.76100e+03	0.00751586	670.5
1763	6.71393e+02	1.76300e+03	0.00753186	671.5
1765	6.72373e+02	1.76500e+03	0.0075218	672.5
1767	6.73353e+02	1.76700e+03	0.00752048	673.5
1769	6.74341e+02	1.76900e+03	0.00751367	674.5
1771	6.75318e+02	1.77100e+03	0.00750423	675.5
1773	6.76269e+02	1.77300e+03	0.00748429	676.5
1775	6.77227e+02	1.77500e+03	0.00744981	677.5
1777	6.78203e+02	1.77700e+03	0.00738798	678.5
1779	6.79151e+02	1.77900e+03	0.00732874	679.5
1781	6.80106e+02	1.78100e+03	0.00726462	680.5
1783	6.81089e+02	1.78300e+03	0.00722419	681.5
1785	6.82077e+02	1.78500e+03	0.00720622	682.5
1787	6.83078e+02	1.78700e+03	0.00717861	683.5
1789	6.84084e+02	1.78900e+03	0.00716083	684.5
1791	6.85072e+02	1.79100e+03	0.00715657	685.5
1793	6.86058e+02	1.79300e+03	0.0071764	686.5
1795	6.86731e+02	1.79500e+03	0.00720799	687.5
1797	6.87232e+02	1.79700e+03	0.0072877	688.5
1799	6.87964e+02	1.79900e+03	0.0073796	689.5
1801	6.88688e+02	1.80100e+03	0.00746257	690.5
1803	6.89367e+02	1.80300e+03	0.00747304	691.5
1805	6.89964e+02	1.80500e+03	0.00740858	692.5
1807	6.90484e+02	1.80700e+03	0.00736335	693.5
1809	6.90964e+02	1.80900e+03	0.00731218	694.5
1811	6.91448e+02	1.81100e+03	0.00728428	695.5
1813	6.91925e+02	1.81300e+03	0.00729202	696.5
1815	6.92358e+02	1.81500e+03	0.00730192	697.5
1817	6.92792e+02	1.81700e+03	0.00729497	698.5
1819	6.93160e+02	1.81900e+03	0.00725774	699.5
1821	6.93516e+02	1.82100e+03	0.00718688	700.0
1823	6.93831e+02	1.82300e+03	0.0071453	700.0
1825	6.94138e+02	1.82500e+03	0.00712687	700.0
1827	6.94460e+02	1.82700e+03	0.00711136	700.0
1829	6.94775e+02	1.82900e+03	0.00712767	700.0
1831	6.95035e+02	1.83100e+03	0.00713549	700.0
1833	6.95263e+02	1.83300e+03	0.0071453	700.0
1835	6.95507e+02	1.83500e+03	0.00713925	700.0
1837	6.95738e+02	1.83700e+03	0.00712342	700.0
1839	6.95954e+02	1.83900e+03	0.00712656	700.0
1841	6.96140e+02	1.84100e+03	0.00715006	700.0
1843	6.96313e+02	1.84300e+03	0.00717453	700.0
1845	6.96487e+02	1.84500e+03	0.00720593	700.0
1847	6.96669e+02	1.84700e+03	0.00722167	700.0
1849	6.96834e+02	1.84900e+03	0.00722519	700.0
1851	6.97006e+02	1.85100e+03	0.00722997	700.0
1853	6.97154e+02	1.85300e+03	0.00721496	700.0
1855	6.97312e+02	1.85500e+03	0.0071976	700.0
1857	6.97448e+02	1.85700e+03	0.00717355	700.0
1859	6.97591e+02	1.85900e+03	0.00716967	700.0
1861	6.97714e+02	1.86100e+03	0.00718393	700.0
1863	6.97845e+02	1.86300e+03	0.00718666	700.0
1865	6.97965e+02	1.86500e+03	0.00717407	700.0
1867	6.98063e+02	1.86700e+03	0.00714526	700.0
1869	6.98168e+02	1.86900e+03	0.00710222	700.0
1871	6.98267e+02	1.87100e+03	0.00707018	700.0
1873	6.98373e+02	1.87300e+03	0.00704818	700.0
1875	6.98444e+02	1.87500e+03	0.00703024	700.0
1877	6.98524e+02	1.87700e+03	0.00701634	700.0
1879	6.98575e+02	1.87900e+03	0.0070085	700.0
1881	6.98654e+02	1.88100e+03	0.00701447	700.0
1883	6.98704e+02	1.88300e+03	0.00704365	700.0
1885	6.98774e+02	1.88500e+03	0.00710975	700.0
1887	6.98837e+02	1.88700e+03	0.00716279	700.0
1889	6.98890e+02	1.88900e+03	0.0071928	700.0
1891	6.98941e+02	1.89100e+03	0.00719391	700.0
1893	6.99005e+02	1.89300e+03	0.00714236	700.0
1895	6.99062e+02	1.89500e+03	0.00709969	700.0
1897	6.99116e+02	1.89700e+03	0.00704773	700.0
1899	6.99150e+02	1.89900e+03	0.00701415	700.0
1901	6.99206e+02	1.90100e+03	0.00700776	700.0
1903	6.99235e+02	1.90300e+03	0.00699595	700.0
1905	6.99281e+02	1.90500e+03	0.00700064	700.0
1907	6.99304e+02	1.90700e+03	0.00700395	700.0
1909	6.99347e+02	1.90900e+03	0.00701542	700.0
1911	6.99383e+02	1.91100e+03	0.00703203	700.0
1913	6.99407e+02	1.91300e+03	0.00704855	700.0
1915	6.99430e+02	1.91500e+03	0.0070484	700.0
1917	6.99461e+02	1.91700e+03	0.00702262	700.0
1919	6.99494e+02	1.91900e+03	0.00699893	700.0
1921	6.99522e+02	1.92100e+03	0.006973	700.0
1923	6.99542e+02	1.92300e+03	0.00696037	700.0
1925	6.99564e+02	1.92500e+03	0.00697267	700.0
1927	6.99573e+02	1.92700e+03	0.00699101	700.0
1929	6.99597e+02	1.92900e+03	0.00702944	700.0
1931	6.99612e+02	1.93100e+03	0.00706337	700.0
1933	6.99628e+02	1.93300e+03	0.00709896	700.0
1935	6.99643e+02	1.93500e+03	0.00712892	700.0
1937	6.99657e+02	1.93700e+03	0.00714333	700.0
1939	6.99673e+02	1.93900e+03	0.007149	700.0
1941	6.99685e+02	1.94100e+03	0.00714365	700.0
1943	6.99696e+02	1.94300e+03	0.00713823	700.0
1945	6.99698e+02	1.94500e+03	0.00712516	700.0
1947	6.99724e+02	1.94700e+03	0.00711199	700.0
1949	6.99724e+02	1.94900e+03	0.00711584	700.0
1951	6.99734e+02	1.95100e+03	0.00712444	700.0
1953	6.99739e+02	1.95300e+03	0.00712655	700.0
1955	6.99758e+02	1.95500e+03	0.00709781	700.0
1957	6.99754e+02	1.95700e+03	0.00703495	700.0
1959	6.99771e+02	1.95900e+03	0.00699808	700.0
1961	6.99777e+02	1.96100e+03	0.00699008	700.0
1963	6.99791e+02	1.96300e+03	0.00698912	700.0
1965	6.99792e+02	1.96500e+03	0.0070232	700.0
1967	6.99808e+02	1.96700e+03	0.00705693	700.0
1969	6.99819e+02	1.96900e+03	0.00708323	700.0
1971	6.99820e+02	1.97100e+03	0.0071003	700.0
1973	6.99818e+02	1.97300e+03	0.00711434	700.0
1975	6.99832e+02	1.97500e+03	0.007141	700.0
1977	6.99830e+02	1.97700e+03	0.0071648	700.0
1979	6.99836e+02	1.97900e+03	0.0071662	700.0
1981	6.99838e+02	1.98100e+03	0.00713009	700.0
1983	6.99836e+02	1.98300e+03	0.00709842	700.0
1985	6.99847e+02	1.98500e+03	0.00707148	700.0
1987	6.99847e+02	1.98700e+03	0.00706314	700.0
1989	6.99855e+02	1.98900e+03	0.007086	700.0
1991	6.99863e+02	1.99100e+03	0.00710537	700.0
1993	6.99852e+02	1.99300e+03	0.00713198	700.0
1995	6.99861e+02	1.99500e+03	0.00714701	700.0
1997	6.99872e+02	1.99700e+03	0.00714676	700.0
1999	6.99868e+02	1.99900e+03	0.00713794	700.0
2001	6.99872e+02	2.00100e+03	0.00711694	700.0
2003	6.99884e+02	2.00300e+03	0.0071083	700.0
2005	6.99884e+02	2.00500e+03	0.00710691	700.0
2007	6.99878e+02	2.00700e+03	0.00709968	700.0
2009	6.99891e+02	2.00900e+03	0.00708561	700.0
2011	6.99887e+02	2.01100e+03	0.0070703	700.0
2013	6.99884e+02	2.01300e+03	0.00705826	700.0
2015	6.99890e+02	2.01500e+03	0.0070716	700.0
2017	6.99886e+02	2.01700e+03	0.00712266	700.0
2019	6.99890e+02	2.01900e+03	0.00717698	700.0
2021	6.99894e+02	2.02100e+03	0.00724603	700.0
2023	6.99891e+02	2.02300e+03	0.00728962	700.0
2025	6.99897e+02	2.02500e+03	0.00730845	700.0
2027	6.99898e+02	2.02700e+03	0.00732236	700.0
2029	6.99898e+02	2.02900e+03	0.00731264	700.0
2031	6.99903e+02	2.03100e+03	0.00731365	700.0
2033	6.99906e+02	2.03300e+03	0.00732152	700.0
2035	6.99907e+02	2.03500e+03	0.0073418	700.0
2037	6.99914e+02	2.03700e+03	0.00736482	700.0
2039	6.99913e+02	2.03900e+03	0.00736662	700.0
2041	6.99897e+02	2.04100e+03	0.00735622	700.0
2043	6.99900e+02	2.04300e+03	0.00736004	700.0
2045	6.99903e+02	2.04500e+03	0.00736415	700.0
2047	6.99897e+02	2.04700e+03	0.00734701	700.0
2049	6.99895e+02	2.04900e+03	0.0073083	700.0
2051	6.99904e+02	2.05100e+03	0.0072677	700.0
2053	6.99898e+02	2.05300e+03	0.00721752	700.0
2055	6.99899e+02	2.05500e+03	0.0071799	700.0
2057	6.99898e+02	2.05700e+03	0.00715949	700.0
2059	6.99898e+02	2.05900e+03	0.00715238	700.0
2061	6.99894e+02	2.06100e+03	0.00717098	700.0
2063	6.99901e+02	2.06300e+03	0.00718633	700.0
2065	6.99894e+02	2.06500e+03	0.00720895	700.0
2067	6.99908e+02	2.06700e+03	0.00722094	700.0
2069	6.99895e+02	2.06900e+03	0.00722177	700.0
2071	6.99895e+02	2.07100e+03	0.00722456	700.0
2073	6.99895e+02	2.07300e+03	0.00724047	700.0
2075	6.99898e+02	2.07500e+03	0.00726263	700.0
2077	6.99890e+02	2.07700e+03	0.00728768	700.0
2079	6.99904e+02	2.07900e+03	0.00729122	700.0
2081	6.99894e+02	2.08100e+03	0.00725859	700.0
2083	6.99898e+02	2.08300e+03	0.00722457	700.0
2085	6.99893e+02	2.08500e+03	0.00718608	700.0
2087	6.99889e+02	2.08700e+03	0.00716049	700.0
2089	6.99889e+02	2.08900e+03	0.00715475	700.0
2091	6.99890e+02	2.09100e+03	0.00714341	700.0
2093	6.99889e+02	2.09300e+03	0.00713537	700.0
2095	6.99895e+02	2.09500e+03	0.00712661	700.0
2097	6.99887e+02	2.09700e+03	0.00711573	700.0
2099	6.99884e+02	2.09900e+03	0.00710113	700.0
2101	6.99888e+02	2.10100e+03	0.00708065	700.0
2103	6.99886e+02	2.10300e+03	0.00706262	700.0
2105	6.99887e+02	2.10500e+03	0.00704923	700.0
2107	6.99877e+02	2.10700e+03	0.00705406	700.0
2109	6.99885e+02	2.10900e+03	0.00708214	700.0
2111	6.99879e+02	2.11100e+03	0.00711047	700.0
2113	6.99876e+02	2.11300e+03	0.00714639	700.0
2115	6.99879e+02	2.11500e+03	0.00716625	700.0
2117	6.99884e+02	2.11700e+03	0.00717501	700.0
2119	6.99872e+02	2.11900e+03	0.00718058	700.0
2121	6.99866e+02	2.12100e+03	0.00715824	700.0
2123	6.99859e+02	2.12300e+03	0.00711788	700.0
2125	6.99862e+02	2.12500e+03	0.00705186	700.0
2127	6.99860e+02	2.12700e+03	0.0069992	700.0
2129	6.99859e+02	2.12900e+03	0.00695155	700.0
2131	6.99862e+02	2.13100e+03	0.00691571	700.0
2133	6.99854e+02	2.13300e+03	0.00690782	700.0
2135	6.99858e+02	2.13500e+03	0.00690724	700.0
2137	6.99844e+02	2.13700e+03	0.00692559	700.0
2139	6.99855e+02	2.13900e+03	0.00693604	700.0
2141	6.99854e+02	2.14100e+03	0.0069567	700.0
2143	6.99846e+02	2.14300e+03	0.00697957	700.0
2145	6.99852e+02	2.14500e+03	0.0070188	700.0
2147	6.99852e+02	2.14700e+03	0.0070408	700.0
2149	6.99832e+02	2.14900e+03	0.00703218	700.0
2151	6.99846e+02	2.15100e+03	0.00700437	700.0
2153	6.99838e+02	2.15300e+03	0.00695314	700.0
2155	6.99839e+02	2.15500e+03	0.00692554	700.0
2157	6.99844e+02	2.15700e+03	0.00692179	700.0
2159	6.99834e+02	2.15900e+03	0.00692692	700.0
2161	6.99836e+02	2.16100e+03	0.00696239	700.0
2163	6.99828e+02	2.16300e+03	0.00700815	700.0
2165	6.99825e+02	2.16500e+03	0.00706485	700.0
2167	6.99825e+02	2.16700e+03	0.00710534	700.0
2169	6.99826e+02	2.16900e+03	0.00713087	700.0
2171	6.99818e+02	2.17100e+03	0.00715784	700.0
2173	6.99812e+02	2.17300e+03	0.00716411	700.0
2175	6.99820e+02	2.17500e+03	0.0071661	700.0
2177	6.99818e+02	2.17700e+03	0.00714754	700.0
2179	6.99820e+02	2.17900e+03	0.00711914	700.0
2181	6.99811e+02	2.18100e+03	0.0070589	700.0
2183	6.99815e+02	2.18300e+03	0.00699566	700.0
2185	6.99804e+02	2.18500e+03	0.00692231	700.0
2187	6.99810e+02	2.18700e+03	0.00687046	700.0
2189	6.99804e+02	2.18900e+03	0.00686581	700.0
2191	6.99800e+02	2.19100e+03	0.00687247	700.0
2193	6.99804e+02	2.19300e+03	0.00691632	700.0
2195	6.99798e+02	2.19500e+03	0.00694551	700.0
2197	6.99806e+02	2.19700e+03	0.0069833	700.0
2199	6.99796e+02	2.19900e+03	0.00701738	700.0
2201	6.99790e+02	2.20100e+03	0.00704202	700.0
2203	6.99799e+02	2.20300e+03	0.00706664	700.0
2205	6.99779e+02	2.20500e+03	0.007081	700.0
2207	6.99795e+02	2.20700e+03	0.00710009	700.0
2209	6.99778e+02	2.20900e+03	0.00712359	700.0
2211	6.99779e+02	2.21100e+03	0.00714332	700.0
2213	6.99771e+02	2.21300e+03	0.00715458	700.0
2215	6.99779e+02	2.21500e+03	0.00715824	700.0
2217	6.99767e+02	2.21700e+03	0.00714113	700.0
2219	6.99768e+02	2.21900e+03	0.00712949	700.0
2221	6.99771e+02	2.22100e+03	0.00713089	700.0
2223	6.99762e+02	2.22300e+03	0.00714959	700.0
2225	6.99773e+02	2.22500e+03	0.00718839	700.0
2227	6.99764e+02	2.22700e+03	0.00720973	700.0
2229	6.99765e+02	2.22900e+03	0.00721433	700.0
2231	6.99758e+02	2.23100e+03	0.00721356	700.0
2233	6.99750e+02	2.23300e+03	0.00719084	700.0
2235	6.99753e+02	2.23500e+03	0.00715928	700.0
2237	6.99744e+02	2.23700e+03	0.00708876	700.0
2239	6.99752e+02	2.23900e+03	0.00701651	700.0
2241	6.99754e+02	2.24100e+03	0.00692711	700.0
2243	6.99752e+02	2.24300e+03	0.00685613	700.0
2245	6.99751e+02	2.24500e+03	0.00681035	700.0
2247	6.99753e+02	2.24700e+03	0.00678515	700.0
2249	6.99742e+02	2.24900e+03	0.00679563	700.0
2251	6.99744e+02	2.25100e+03	0.00680641	700.0
2253	6.99738e+02	2.25300e+03	0.00683627	700.0
2255	6.99733e+02	2.25500e+03	0.00685556	700.0
2257	6.99730e+02	2.25700e+03	0.00686496	700.0
2259	6.99731e+02	2.25900e+03	0.00686844	700.0
2261	6.99727e+02	2.26100e+03	0.00686929	700.0
2263	6.99733e+02	2.26300e+03	0.00688552	700.0
2265	6.99714e+02	2.26500e+03	0.00692394	700.0
2267	6.99719e+02	2.26700e+03	0.00694784	700.0
2269	6.99724e+02	2.26900e+03	0.00696412	700.0
2271	6.99720e+02	2.27100e+03	0.00698676	700.0
2273	6.99713e+02	2.27300e+03	0.00701335	700.0
2275	6.99727e+02	2.27500e+03	0.00704752	700.0
2277	6.99713e+02	2.27700e+03	0.00708891	700.0
2279	6.99708e+02	2.27900e+03	0.00710698	700.0
2281	6.99706e+02	2.28100e+03	0.00709402	700.0
2283	6.99703e+02	2.28300e+03	0.00708331	700.0
2285	6.99703e+02	2.28500e+03	0.00706268	700.0
2287	6.99694e+02	2.28700e+03	0.00704745	700.0
2289	6.99695e+02	2.28900e+03	0.00703213	700.0
2291	6.99694e+02	2.29100e+03	0.00700641	700.0
2293	6.99706e+02	2.29300e+03	0.00696149	700.0
2295	6.99692e+02	2.29500e+03	0.00691863	700.0
2297	6.99694e+02	2.29700e+03	0.00688407	700.0
2299	6.99693e+02	2.29900e+03	0.00687606	700.0
2301	6.99700e+02	2.30100e+03	0.00689763	700.0
2303	6.99691e+02	2.30300e+03	0.00690802	700.0
2305	6.99687e+02	2.30500e+03	0.00691759	700.0
2307	6.99691e+02	2.30700e+03	0.00692372	700.0
2309	6.99693e+02	2.30900e+03	0.00692778	700.0
2311	6.99699e+02	2.31100e+03	0.00693772	700.0
2313	6.99693e+02	2.31300e+03	0.00696931	700.0
2315	6.99688e+02	2.31500e+03	0.00701005	700.0
2317	6.99689e+02	2.31700e+03	0.00704593	700.0
2319	6.99680e+02	2.31900e+03	0.00704461	700.0
2321	6.99687e+02	2.32100e+03	0.00700212	700.0
2323	6.99685e+02	2.32300e+03	0.00696534	700.0
2325	6.99675e+02	2.32500e+03	0.00691757	700.0
2327	6.99681e+02	2.32700e+03	0.00688141	700.0
2329	6.99690e+02	2.32900e+03	0.00686704	700.0
2331	6.99666e+02	2.33100e+03	0.00686897	700.0
2333	6.99671e+02	2.33300e+03	0.00689037	700.0
2335	6.99676e+02	2.33500e+03	0.00690237	700.0
2337	6.99673e+02	2.33700e+03	0.00690724	700.0
2339	6.99669e+02	2.33900e+03	0.00690384	700.0
2341	6.99670e+02	2.34100e+03	0.00686962	700.0
2343	6.99663e+02	2.34300e+03	0.00681536	700.0
2345	6.99667e+02	2.34500e+03	0.00674924	700.0
2347	6.99670e+02	2.34700e+03	0.0067161	700.0
2349	6.99673e+02	2.34900e+03	0.00672618	700.0
2351	6.99663e+02	2.35100e+03	0.0067421	700.0
2353	6.99667e+02	2.35300e+03	0.00678987	700.0
2355	6.99662e+02	2.35500e+03	0.00683271	700.0
2357	6.99671e+02	2.35700e+03	0.00687779	700.0
2359	6.99673e+02	2.35900e+03	0.00691869	700.0
2361	6.99673e+02	2.36100e+03	0.00694385	700.0
2363	6.99661e+02	2.36300e+03	0.00695223	700.0
2365	6.99667e+02	2.36500e+03	0.00692658	700.0
2367	6.99666e+02	2.36700e+03	0.00688914	700.0
2369	6.99664e+02	2.36900e+03	0.00682506	700.0
2371	6.99657e+02	2.37100e+03	0.00678648	700.0
2373	6.99666e+02	2.37300e+03	0.00678091	700.0
2375	6.99662e+02	2.37500e+03	0.00679612	700.0
2377	6.99669e+02	2.37700e+03	0.00684701	700.0
2379	6.99649e+02	2.37900e+03	0.00686952	700.0
2381	6.99646e+02	2.38100e+03	0.00687312	700.0
2383	6.99652e+02	2.38300e+03	0.00686941	700.0
2385	6.99643e+02	2.38500e+03	0.00684987	700.0
2387	6.99641e+02	2.38700e+03	0.00684293	700.0
2389	6.99643e+02	2.38900e+03	0.00685291	700.0
2391	6.99643e+02	2.39100e+03	0.00686731	700.0
2393	6.99641e+02	2.39300e+03	0.00687934	700.0
2395	6.99638e+02	2.39500e+03	0.00687368	700.0
2397	6.99646e+02	2.39700e+03	0.00684508	700.0
2399	6.99643e+02	2.39900e+03	0.00682736	700.0
2401	6.99642e+02	2.40100e+03	0.00681037	700.0
2403	6.99640e+02	2.40300e+03	0.00678798	700.0
2405	6.99642e+02	2.40500e+03	0.00676593	700.0
2407	6.99641e+02	2.40700e+03	0.00675122	700.0
2409	6.99637e+02	2.40900e+03	0.00673846	700.0
2411	6.99633e+02	2.41100e+03	0.00672641	700.0
2413	6.99626e+02	2.41300e+03	0.00672961	700.0
2415	6.99637e+02	2.41500e+03	0.00674699	700.0
2417	6.99636e+02	2.41700e+03	0.00679628	700.0
2419	6.99636e+02	2.41900e+03	0.00684481	700.0
2421	6.99630e+02	2.42100e+03	0.00690473	700.0
2423	6.99639e+02	2.42300e+03	0.00696094	700.0
2425	6.99623e+02	2.42500e+03	0.0069943	700.0
2427	6.99625e+02	2.42700e+03	0.0070118	700.0
2429	6.99622e+02	2.42900e+03	0.00699936	700.0
2431	6.99633e+02	2.43100e+03	0.00699354	700.0
2433	6.99627e+02	2.43300e+03	0.00699165	700.0
2435	6.99624e+02	2.43500e+03	0.00700141	700.0
2437	6.99631e+02	2.43700e+03	0.00701804	700.0
2439	6.99618e+02	2.43900e+03	0.00701323	700.0
2441	6.99622e+02	2.44100e+03	0.00696844	700.0
2443	6.99623e+02	2.44300e+03	0.00691669	700.0
2445	6.99628e+02	2.44500e+03	0.00685981	700.0
2447	6.99625e+02	2.44700e+03	0.00685081	700.0
2449	6.99616e+02	2.44900e+03	0.00690369	700.0
2451	6.99628e+02	2.45100e+03	0.00694605	700.0
2453	6.99611e+02	2.45300e+03	0.00699301	700.0
2455	6.99608e+02	2.45500e+03	0.00701642	700.0
2457	6.99615e+02	2.45700e+03	0.00700458	700.0
2459	6.99620e+02	2.45900e+03	0.0070016	700.0
2461	6.99623e+02	2.46100e+03	0.00700446	700.0
2463	6.99616e+02	2.46300e+03	0.00703173	700.0
2465	6.99610e+02	2.46500e+03	0.00707816	700.0
2467	6.99609e+02	2.46700e+03	0.00710385	700.0
2469	6.99605e+02	2.46900e+03	0.0070798	700.0
2471	6.99602e+02	2.47100e+03	0.00703007	700.0
2473	6.99605e+02	2.47300e+03	0.00694396	700.0
2475	6.99610e+02	2.47500e+03	0.00690667	700.0
2477	6.99609e+02	2.47700e+03	0.00690835	700.0
2479	6.99610e+02	2.47900e+03	0.0069065	700.0
2481	6.99612e+02	2.48100e+03	0.00692037	700.0
2483	6.99612e+02	2.48300e+03	0.00693814	700.0
2485	6.99604e+02	2.48500e+03	0.00696335	700.0
2487	6.99602e+02	2.48700e+03	0.00698887	700.0
2489	6.99607e+02	2.48900e+03	0.00701967	700.0
2491	6.99607e+02	2.49100e+03	0.00704259	700.0
2493	6.99596e+02	2.49300e+03	0.00705183	700.0
2495	6.99603e+02	2.49500e+03	0.00704296	700.0
2497	6.99599e+02	2.49700e+03	0.00700749	700.0
2499	6.99598e+02	2.49900e+03	0.00698254	700.0
2501	6.99586e+02	2.50100e+03	0.00694721	700.0
2503	6.99593e+02	2.50300e+03	0.00691649	700.0
2505	6.99592e+02	2.50500e+03	0.00688572	700.0
2507	6.99594e+02	2.50700e+03	0.00684672	700.0
2509	6.99592e+02	2.50900e+03	0.00679713	700.0
2511	6.99594e+02	2.51100e+03	0.00675452	700.0
2513	6.99589e+02	2.51300e+03	0.00672986	700.0
2515	6.99585e+02	2.51500e+03	0.00672549	700.0
2517	6.99588e+02	2.51700e+03	0.00677989	700.0
2519	6.99580e+02	2.51900e+03	0.00684033	700.0
2521	6.99583e+02	2.52100e+03	0.00692827	700.0
2523	6.99578e+02	2.52300e+03	0.00699588	700.0
2525	6.99584e+02	2.52500e+03	0.00704351	700.0
2527	6.99581e+02	2.52700e+03	0.0070776	700.0
2529	6.99587e+02	2.52900e+03	0.00707832	700.0
2531	6.99590e+02	2.53100e+03	0.00706926	700.0
2533	6.99591e+02	2.53300e+03	0.00702803	700.0
2535	6.99588e+02	2.53500e+03	0.00699058	700.0
2537	6.99582e+02	2.53700e+03	0.00694394	700.0
2539	6.99584e+02	2.53900e+03	0.00690356	700.0
2541	6.99584e+02	2.54100e+03	0.0068731	700.0
2543	6.99587e+02	2.54300e+03	0.00685096	700.0
2545	6.99575e+02	2.54500e+03	0.00685223	700.0
2547	6.99581e+02	2.54700e+03	0.00685971	700.0
2549	6.99582e+02	2.54900e+03	0.00688435	700.0
2551	6.99584e+02	2.55100e+03	0.00689648	700.0
2553	6.99576e+02	2.55300e+03	0.00687835	700.0
2555	6.99576e+02	2.55500e+03	0.00685072	700.0
2557	6.99585e+02	2.55700e+03	0.00681508	700.0
2559	6.99583e+02	2.55900e+03	0.00681271	700.0
2561	6.99587e+02	2.56100e+03	0.00683864	700.0
2563	6.99587e+02	2.56300e+03	0.00683948	700.0
2565	6.99568e+02	2.56500e+03	0.00683169	700.0
2567	6.99581e+02	2.56700e+03	0.00681416	700.0
2569	6.99581e+02	2.56900e+03	0.00678637	700.0
2571	6.99576e+02	2.57100e+03	0.00677199	700.0
2573	6.99568e+02	2.57300e+03	0.00677291	700.0
2575	6.99577e+02	2.57500e+03	0.00677969	700.0
2577	6.99572e+02	2.57700e+03	0.00679862	700.0
2579	6.99571e+02	2.57900e+03	0.00680916	700.0
2581	6.99570e+02	2.58100e+03	0.00681486	700.0
2583	6.99568e+02	2.58300e+03	0.00682534	700.0
2585	6.99568e+02	2.58500e+03	0.00682134	700.0
2587	6.99559e+02	2.58700e+03	0.00681354	700.0
2589	6.99567e+02	2.58900e+03	0.00681934	700.0
2591	6.99565e+02	2.59100e+03	0.00685026	700.0
2593	6.99561e+02	2.59300e+03	0.00690762	700.0
2595	6.99565e+02	2.59500e+03	0.0069316	700.0
2597	6.99567e+02	2.59700e+03	0.00691294	700.0
2599	6.99556e+02	2.59900e+03	0.00688069	700.0
2601	6.99562e+02	2.60100e+03	0.00680872	700.0
2603	6.99565e+02	2.60300e+03	0.00675971	700.0
2605	6.99557e+02	2.60500e+03	0.00673043	700.0
2607	6.99569e+02	2.60700e+03	0.00672092	700.0
2609	6.99565e+02	2.60900e+03	0.00676147	700.0
2611	6.99562e+02	2.61100e+03	0.00680415	700.0
2613	6.99556e+02	2.61300e+03	0.00686408	700.0
2615	6.99565e+02	2.61500e+03	0.00689982	700.0
2617	6.99564e+02	2.61700e+03	0.00690962	700.0
2619	6.99562e+02	2.61900e+03	0.00691365	700.0
2621	6.99562e+02	2.62100e+03	0.00689009	700.0
2623	6.99566e+02	2.62300e+03	0.00686729	700.0
2625	6.99560e+02	2.62500e+03	0.00683054	700.0
2627	6.99555e+02	2.62700e+03	0.00680448	700.0
2629	6.99560e+02	2.62900e+03	0.00679405	700.0
2631	6.99559e+02	2.63100e+03	0.00680578	700.0
2633	6.99549e+02	2.63300e+03	0.00686004	700.0
2635	6.99552e+02	2.63500e+03	0.00691181	700.0
2637	6.99544e+02	2.63700e+03	0.00695731	700.0
2639	6.99558e+02	2.63900e+03	0.00697911	700.0
2641	6.99552e+02	2.64100e+03	0.00696289	700.0
2643	6.99559e+02	2.64300e+03	0.00695009	700.0
2645	6.99554e+02	2.64500e+03	0.00689692	700.0
2647	6.99553e+02	2.64700e+03	0.00681961	700.0
2649	6.99553e+02	2.64900e+03	0.0067042	700.0
2651	6.99555e+02	2.65100e+03	0.00661419	700.0
2653	6.99548e+02	2.65300e+03	0.0065544	700.0
2655	6.99548e+02	2.65500e+03	0.00651531	700.0
2657	6.99551e+02	2.65700e+03	0.00654162	700.0
2659	6.99548e+02	2.65900e+03	0.00657518	700.0
2661	6.99546e+02	2.66100e+03	0.00663727	700.0
2663	6.99547e+02	2.66300e+03	0.0066779	700.0
2665	6.99547e+02	2.66500e+03	0.00671187	700.0
2667	6.99543e+02	2.66700e+03	0.00673966	700.0
2669	6.99548e+02	2.66900e+03	0.00674487	700.0
2671	6.99552e+02	2.67100e+03	0.00672611	700.0
2673	6.99543e+02	2.67300e+03	0.00667999	700.0
2675	6.99543e+02	2.67500e+03	0.0066499	700.0
2677	6.99545e+02	2.67700e+03	0.006635	700.0
2679	6.99544e+02	2.67900e+03	0.00663524	700.0
2681	6.99537e+02	2.68100e+03	0.00666749	700.0
2683	6.99541e+02	2.68300e+03	0.00669655	700.0
2685	6.99536e+02	2.68500e+03	0.00672505	700.0
2687	6.99547e+02	2.68700e+03	0.00672683	700.0
2689	6.99534e+02	2.68900e+03	0.00669905	700.0
2691	6.99542e+02	2.69100e+03	0.00667245	700.0
2693	6.99542e+02	2.69300e+03	0.00664215	700.0
2695	6.99539e+02	2.69500e+03	0.00663127	700.0
2697	6.99535e+02	2.69700e+03	0.00663853	700.0
2699	6.99532e+02	2.69900e+03	0.00665405	700.0
2701	6.99537e+02	2.70100e+03	0.00668029	700.0
2703	6.99534e+02	2.70300e+03	0.00670275	700.0
2705	6.99539e+02	2.70500e+03	0.0067272	700.0
2707	6.99545e+02	2.70700e+03	0.0067468	700.0
2709	6.99539e+02	2.70900e+03	0.00675538	700.0
2711	6.99541e+02	2.71100e+03	0.00675669	700.0
2713	6.99534e+02	2.71300e+03	0.00674863	700.0
2715	6.99540e+02	2.71500e+03	0.00673356	700.0
2717	6.99546e+02	2.71700e+03	0.00671844	700.0
2719	6.99537e+02	2.71900e+03	0.00670713	700.0
2720	6.99539e+02	2.72000e+03	0.00670277	700.0