File: Experiments/TGA/TUBS/tga_nonisotherm/tga_dynamic_n2_dyn60_powder_1mg_r1.txt
index	ts	t	weight	tr
[#]	[°C]	[s]	[mg]	[°C]
643	1.29900e+02	6.43000e+02	9.89352e-01	1.33000e+02
644	1.30881e+02	6.44000e+02	9.89333e-01	1.34000e+02
645	1.31864e+02	6.45000e+02	9.89305e-01	1.35000e+02
646	1.32848e+02	6.46000e+02	9.89276e-01	1.36000e+02
647	1.33843e+02	6.47000e+02	9.89249e-01	1.37000e+02
648	1.34821e+02	6.48000e+02	9.89231e-01	1.38000e+02
649	1.35802e+02	6.49000e+02	9.89213e-01	1.39000e+02
650	1.36770e+02	6.50000e+02	9.89195e-01	1.40000e+02
651	1.37748e+02	6.51000e+02	9.89176e-01	1.41000e+02
652	1.38734e+02	6.52000e+02	9.89167e-01	1.42000e+02
653	1.39724e+02	6.53000e+02	9.89151e-01	1.43000e+02
654	1.40693e+02	6.54000e+02	9.89128e-01	1.44000e+02
655	1.41685e+02	6.55000e+02	9.89100e-01	1.45000e+02
656	1.42651e+02	6.56000e+02	9.89060e-01	1.46000e+02
657	1.43637e+02	6.57000e+02	9.89017e-01	1.47000e+02
658	1.44625e+02	6.58000e+02	9.88967e-01	1.48000e+02
659	1.45609e+02	6.59000e+02	9.88913e-01	1.49000e+02
660	1.46593e+02	6.60000e+02	9.88838e-01	1.50000e+02
661	1.47567e+02	6.61000e+02	9.88769e-01	1.51000e+02
662	1.48551e+02	6.62000e+02	9.88697e-01	1.52000e+02
663	1.49525e+02	6.63000e+02	9.88621e-01	1.53000e+02
664	1.50504e+02	6.64000e+02	9.88531e-01	1.54000e+02
665	1.51493e+02	6.65000e+02	9.88441e-01	1.55000e+02
666	1.52475e+02	6.66000e+02	9.88348e-01	1.56000e+02
667	1.53449e+02	6.67000e+02	9.88252e-01	1.57000e+02
668	1.54425e+02	6.68000e+02	9.88141e-01	1.58000e+02
669	1.55410e+02	6.69000e+02	9.88036e-01	1.59000e+02
670	1.56380e+02	6.70000e+02	9.87932e-01	1.60000e+02
671	1.57366e+02	6.71000e+02	9.87827e-01	1.61000e+02
672	1.58345e+02	6.72000e+02	9.87717e-01	1.62000e+02
673	1.59334e+02	6.73000e+02	9.87606e-01	1.63000e+02
674	1.60312e+02	6.74000e+02	9.87494e-01	1.64000e+02
675	1.61304e+02	6.75000e+02	9.87383e-01	1.65000e+02
676	1.62274e+02	6.76000e+02	9.87272e-01	1.66000e+02
677	1.63253e+02	6.77000e+02	9.87164e-01	1.67000e+02
678	1.64246e+02	6.78000e+02	9.87056e-01	1.68000e+02
679	1.65219e+02	6.79000e+02	9.86947e-01	1.69000e+02
680	1.66199e+02	6.80000e+02	9.86841e-01	1.70000e+02
681	1.67189e+02	6.81000e+02	9.86727e-01	1.71000e+02
682	1.68170e+02	6.82000e+02	9.86609e-01	1.72000e+02
683	1.69150e+02	6.83000e+02	9.86486e-01	1.73000e+02
684	1.70132e+02	6.84000e+02	9.86342e-01	1.74000e+02
685	1.71123e+02	6.85000e+02	9.86197e-01	1.75000e+02
686	1.72109e+02	6.86000e+02	9.86045e-01	1.76000e+02
687	1.73102e+02	6.87000e+02	9.85887e-01	1.77000e+02
688	1.74090e+02	6.88000e+02	9.85692e-01	1.78000e+02
689	1.75067e+02	6.89000e+02	9.85499e-01	1.79000e+02
690	1.76048e+02	6.90000e+02	9.85296e-01	1.80000e+02
691	1.77046e+02	6.91000e+02	9.85085e-01	1.81000e+02
692	1.78025e+02	6.92000e+02	9.84833e-01	1.82000e+02
693	1.79016e+02	6.93000e+02	9.84586e-01	1.83000e+02
694	1.80005e+02	6.94000e+02	9.84329e-01	1.84000e+02
695	1.80984e+02	6.95000e+02	9.84065e-01	1.85000e+02
696	1.81971e+02	6.96000e+02	9.83755e-01	1.86000e+02
697	1.82962e+02	6.97000e+02	9.83445e-01	1.87000e+02
698	1.83953e+02	6.98000e+02	9.83118e-01	1.88000e+02
699	1.84937e+02	6.99000e+02	9.82779e-01	1.89000e+02
700	1.85923e+02	7.00000e+02	9.82376e-01	1.90000e+02
701	1.86911e+02	7.01000e+02	9.81978e-01	1.91000e+02
702	1.87911e+02	7.02000e+02	9.81562e-01	1.92000e+02
703	1.88906e+02	7.03000e+02	9.81131e-01	1.93000e+02
704	1.89888e+02	7.04000e+02	9.80619e-01	1.94000e+02
705	1.90883e+02	7.05000e+02	9.80112e-01	1.95000e+02
706	1.91869e+02	7.06000e+02	9.79583e-01	1.96000e+02
707	1.92863e+02	7.07000e+02	9.79033e-01	1.97000e+02
708	1.93854e+02	7.08000e+02	9.78385e-01	1.98000e+02
709	1.94834e+02	7.09000e+02	9.77748e-01	1.99000e+02
710	1.95822e+02	7.10000e+02	9.77089e-01	2.00000e+02
711	1.96834e+02	7.11000e+02	9.76411e-01	2.01000e+02
712	1.97815e+02	7.12000e+02	9.75637e-01	2.02000e+02
713	1.98816e+02	7.13000e+02	9.74886e-01	2.03000e+02
714	1.99812e+02	7.14000e+02	9.74127e-01	2.04000e+02
715	2.00801e+02	7.15000e+02	9.73358e-01	2.05000e+02
716	2.01794e+02	7.16000e+02	9.72532e-01	2.06000e+02
717	2.02791e+02	7.17000e+02	9.71722e-01	2.07000e+02
718	2.03781e+02	7.18000e+02	9.70910e-01	2.08000e+02
719	2.04770e+02	7.19000e+02	9.70093e-01	2.09000e+02
720	2.05768e+02	7.20000e+02	9.69258e-01	2.10000e+02
721	2.06771e+02	7.21000e+02	9.68439e-01	2.11000e+02
722	2.07766e+02	7.22000e+02	9.67634e-01	2.12000e+02
723	2.08762e+02	7.23000e+02	9.66841e-01	2.13000e+02
724	2.09753e+02	7.24000e+02	9.66094e-01	2.14000e+02
725	2.10756e+02	7.25000e+02	9.65365e-01	2.15000e+02
726	2.11751e+02	7.26000e+02	9.64664e-01	2.16000e+02
727	2.12758e+02	7.27000e+02	9.63983e-01	2.17000e+02
728	2.13752e+02	7.28000e+02	9.63414e-01	2.18000e+02
729	2.14749e+02	7.29000e+02	9.62830e-01	2.19000e+02
730	2.15731e+02	7.30000e+02	9.62270e-01	2.20000e+02
731	2.16744e+02	7.31000e+02	9.61731e-01	2.21000e+02
732	2.17749e+02	7.32000e+02	9.61302e-01	2.22000e+02
733	2.18744e+02	7.33000e+02	9.60857e-01	2.23000e+02
734	2.19736e+02	7.34000e+02	9.60430e-01	2.24000e+02
735	2.20724e+02	7.35000e+02	9.60019e-01	2.25000e+02
736	2.21725e+02	7.36000e+02	9.59700e-01	2.26000e+02
737	2.22743e+02	7.37000e+02	9.59359e-01	2.27000e+02
738	2.23732e+02	7.38000e+02	9.59026e-01	2.28000e+02
739	2.24724e+02	7.39000e+02	9.58702e-01	2.29000e+02
740	2.25727e+02	7.40000e+02	9.58433e-01	2.30000e+02
741	2.26725e+02	7.41000e+02	9.58150e-01	2.31000e+02
742	2.27732e+02	7.42000e+02	9.57872e-01	2.32000e+02
743	2.28724e+02	7.43000e+02	9.57600e-01	2.33000e+02
744	2.29740e+02	7.44000e+02	9.57360e-01	2.34000e+02
745	2.30732e+02	7.45000e+02	9.57113e-01	2.35000e+02
746	2.31742e+02	7.46000e+02	9.56870e-01	2.36000e+02
747	2.32733e+02	7.47000e+02	9.56633e-01	2.37000e+02
748	2.33731e+02	7.48000e+02	9.56417e-01	2.38000e+02
749	2.34736e+02	7.49000e+02	9.56197e-01	2.39000e+02
750	2.35741e+02	7.50000e+02	9.55978e-01	2.40000e+02
751	2.36741e+02	7.51000e+02	9.55760e-01	2.41000e+02
752	2.37745e+02	7.52000e+02	9.55550e-01	2.42000e+02
753	2.38744e+02	7.53000e+02	9.55330e-01	2.43000e+02
754	2.39744e+02	7.54000e+02	9.55104e-01	2.44000e+02
755	2.40752e+02	7.55000e+02	9.54873e-01	2.45000e+02
756	2.41753e+02	7.56000e+02	9.54624e-01	2.46000e+02
757	2.42751e+02	7.57000e+02	9.54378e-01	2.47000e+02
758	2.43759e+02	7.58000e+02	9.54130e-01	2.48000e+02
759	2.44757e+02	7.59000e+02	9.53882e-01	2.49000e+02
760	2.45774e+02	7.60000e+02	9.53623e-01	2.50000e+02
761	2.46776e+02	7.61000e+02	9.53374e-01	2.51000e+02
762	2.47766e+02	7.62000e+02	9.53127e-01	2.52000e+02
763	2.48775e+02	7.63000e+02	9.52880e-01	2.53000e+02
764	2.49772e+02	7.64000e+02	9.52637e-01	2.54000e+02
765	2.50778e+02	7.65000e+02	9.52387e-01	2.55000e+02
766	2.51776e+02	7.66000e+02	9.52134e-01	2.56000e+02
767	2.52779e+02	7.67000e+02	9.51880e-01	2.57000e+02
768	2.53784e+02	7.68000e+02	9.51622e-01	2.58000e+02
769	2.54793e+02	7.69000e+02	9.51372e-01	2.59000e+02
770	2.55804e+02	7.70000e+02	9.51127e-01	2.60000e+02
771	2.56803e+02	7.71000e+02	9.50883e-01	2.61000e+02
772	2.57803e+02	7.72000e+02	9.50650e-01	2.62000e+02
773	2.58810e+02	7.73000e+02	9.50413e-01	2.63000e+02
774	2.59820e+02	7.74000e+02	9.50179e-01	2.64000e+02
775	2.60814e+02	7.75000e+02	9.49946e-01	2.65000e+02
776	2.61819e+02	7.76000e+02	9.49726e-01	2.66000e+02
777	2.62827e+02	7.77000e+02	9.49510e-01	2.67000e+02
778	2.63849e+02	7.78000e+02	9.49301e-01	2.68000e+02
779	2.64838e+02	7.79000e+02	9.49096e-01	2.69000e+02
780	2.65846e+02	7.80000e+02	9.48911e-01	2.70000e+02
781	2.66853e+02	7.81000e+02	9.48719e-01	2.71000e+02
782	2.67857e+02	7.82000e+02	9.48528e-01	2.72000e+02
783	2.68861e+02	7.83000e+02	9.48339e-01	2.73000e+02
784	2.69871e+02	7.84000e+02	9.48158e-01	2.74000e+02
785	2.70865e+02	7.85000e+02	9.47973e-01	2.75000e+02
786	2.71881e+02	7.86000e+02	9.47787e-01	2.76000e+02
787	2.72888e+02	7.87000e+02	9.47599e-01	2.77000e+02
788	2.73895e+02	7.88000e+02	9.47406e-01	2.78000e+02
789	2.74899e+02	7.89000e+02	9.47209e-01	2.79000e+02
790	2.75902e+02	7.90000e+02	9.47007e-01	2.80000e+02
791	2.76906e+02	7.91000e+02	9.46801e-01	2.81000e+02
792	2.77909e+02	7.92000e+02	9.46579e-01	2.82000e+02
793	2.78931e+02	7.93000e+02	9.46361e-01	2.83000e+02
794	2.79934e+02	7.94000e+02	9.46142e-01	2.84000e+02
795	2.80927e+02	7.95000e+02	9.45921e-01	2.85000e+02
796	2.81930e+02	7.96000e+02	9.45689e-01	2.86000e+02
797	2.82948e+02	7.97000e+02	9.45457e-01	2.87000e+02
798	2.83956e+02	7.98000e+02	9.45219e-01	2.88000e+02
799	2.84954e+02	7.99000e+02	9.44976e-01	2.89000e+02
800	2.85955e+02	8.00000e+02	9.44705e-01	2.90000e+02
801	2.86967e+02	8.01000e+02	9.44428e-01	2.91000e+02
802	2.87982e+02	8.02000e+02	9.44137e-01	2.92000e+02
803	2.88977e+02	8.03000e+02	9.43837e-01	2.93000e+02
804	2.89983e+02	8.04000e+02	9.43483e-01	2.94000e+02
805	2.91001e+02	8.05000e+02	9.43136e-01	2.95000e+02
806	2.92000e+02	8.06000e+02	9.42775e-01	2.96000e+02
807	2.92999e+02	8.07000e+02	9.42403e-01	2.97000e+02
808	2.94017e+02	8.08000e+02	9.41970e-01	2.98000e+02
809	2.95015e+02	8.09000e+02	9.41540e-01	2.99000e+02
810	2.96019e+02	8.10000e+02	9.41092e-01	3.00000e+02
811	2.97022e+02	8.11000e+02	9.40628e-01	3.01000e+02
812	2.98035e+02	8.12000e+02	9.40083e-01	3.02000e+02
813	2.99044e+02	8.13000e+02	9.39542e-01	3.03000e+02
814	3.00039e+02	8.14000e+02	9.38978e-01	3.04000e+02
815	3.01049e+02	8.15000e+02	9.38392e-01	3.05000e+02
816	3.02049e+02	8.16000e+02	9.37702e-01	3.06000e+02
817	3.03058e+02	8.17000e+02	9.37021e-01	3.07000e+02
818	3.04079e+02	8.18000e+02	9.36313e-01	3.08000e+02
819	3.05069e+02	8.19000e+02	9.35582e-01	3.09000e+02
820	3.06078e+02	8.20000e+02	9.34728e-01	3.10000e+02
821	3.07085e+02	8.21000e+02	9.33888e-01	3.11000e+02
822	3.08095e+02	8.22000e+02	9.33018e-01	3.12000e+02
823	3.09095e+02	8.23000e+02	9.32122e-01	3.13000e+02
824	3.10089e+02	8.24000e+02	9.31092e-01	3.14000e+02
825	3.11099e+02	8.25000e+02	9.30077e-01	3.15000e+02
826	3.12113e+02	8.26000e+02	9.29033e-01	3.16000e+02
827	3.13114e+02	8.27000e+02	9.27964e-01	3.17000e+02
828	3.14128e+02	8.28000e+02	9.26759e-01	3.18000e+02
829	3.15138e+02	8.29000e+02	9.25577e-01	3.19000e+02
830	3.16139e+02	8.30000e+02	9.24371e-01	3.20000e+02
831	3.17135e+02	8.31000e+02	9.23144e-01	3.21000e+02
832	3.18144e+02	8.32000e+02	9.21803e-01	3.22000e+02
833	3.19141e+02	8.33000e+02	9.20485e-01	3.23000e+02
834	3.20154e+02	8.34000e+02	9.19153e-01	3.24000e+02
835	3.21161e+02	8.35000e+02	9.17805e-01	3.25000e+02
836	3.22159e+02	8.36000e+02	9.16374e-01	3.26000e+02
837	3.23172e+02	8.37000e+02	9.14962e-01	3.27000e+02
838	3.24182e+02	8.38000e+02	9.13538e-01	3.28000e+02
839	3.25186e+02	8.39000e+02	9.12103e-01	3.29000e+02
840	3.26197e+02	8.40000e+02	9.10611e-01	3.30000e+02
841	3.27190e+02	8.41000e+02	9.09136e-01	3.31000e+02
842	3.28206e+02	8.42000e+02	9.07661e-01	3.32000e+02
843	3.29207e+02	8.43000e+02	9.06183e-01	3.33000e+02
844	3.30211e+02	8.44000e+02	9.04680e-01	3.34000e+02
845	3.31215e+02	8.45000e+02	9.03182e-01	3.35000e+02
846	3.32220e+02	8.46000e+02	9.01675e-01	3.36000e+02
847	3.33229e+02	8.47000e+02	9.00157e-01	3.37000e+02
848	3.34226e+02	8.48000e+02	8.98589e-01	3.38000e+02
849	3.35230e+02	8.49000e+02	8.96994e-01	3.39000e+02
850	3.36231e+02	8.50000e+02	8.95359e-01	3.40000e+02
851	3.37231e+02	8.51000e+02	8.93692e-01	3.41000e+02
852	3.38234e+02	8.52000e+02	8.91856e-01	3.42000e+02
853	3.39234e+02	8.53000e+02	8.90014e-01	3.43000e+02
854	3.40245e+02	8.54000e+02	8.88106e-01	3.44000e+02
855	3.41232e+02	8.55000e+02	8.86145e-01	3.45000e+02
856	3.42232e+02	8.56000e+02	8.83901e-01	3.46000e+02
857	3.43238e+02	8.57000e+02	8.81662e-01	3.47000e+02
858	3.44254e+02	8.58000e+02	8.79329e-01	3.48000e+02
859	3.45253e+02	8.59000e+02	8.76917e-01	3.49000e+02
860	3.46236e+02	8.60000e+02	8.74100e-01	3.50000e+02
861	3.47251e+02	8.61000e+02	8.71301e-01	3.51000e+02
862	3.48255e+02	8.62000e+02	8.68379e-01	3.52000e+02
863	3.49247e+02	8.63000e+02	8.65351e-01	3.53000e+02
864	3.50237e+02	8.64000e+02	8.61777e-01	3.54000e+02
865	3.51238e+02	8.65000e+02	8.58230e-01	3.55000e+02
866	3.52234e+02	8.66000e+02	8.54523e-01	3.56000e+02
867	3.53218e+02	8.67000e+02	8.50676e-01	3.57000e+02
868	3.54223e+02	8.68000e+02	8.46121e-01	3.58000e+02
869	3.55206e+02	8.69000e+02	8.41622e-01	3.59000e+02
870	3.56214e+02	8.70000e+02	8.36936e-01	3.60000e+02
871	3.57205e+02	8.71000e+02	8.32084e-01	3.61000e+02
872	3.58196e+02	8.72000e+02	8.26387e-01	3.62000e+02
873	3.59202e+02	8.73000e+02	8.20777e-01	3.63000e+02
874	3.60193e+02	8.74000e+02	8.14965e-01	3.64000e+02
875	3.61179e+02	8.75000e+02	8.08971e-01	3.65000e+02
876	3.62169e+02	8.76000e+02	8.02044e-01	3.66000e+02
877	3.63173e+02	8.77000e+02	7.95225e-01	3.67000e+02
878	3.64156e+02	8.78000e+02	7.88191e-01	3.68000e+02
879	3.65152e+02	8.79000e+02	7.80959e-01	3.69000e+02
880	3.66142e+02	8.80000e+02	7.72735e-01	3.70000e+02
881	3.67137e+02	8.81000e+02	7.64631e-01	3.71000e+02
882	3.68123e+02	8.82000e+02	7.56312e-01	3.72000e+02
883	3.69114e+02	8.83000e+02	7.47794e-01	3.73000e+02
884	3.70101e+02	8.84000e+02	7.38258e-01	3.74000e+02
885	3.71099e+02	8.85000e+02	7.28859e-01	3.75000e+02
886	3.72075e+02	8.86000e+02	7.19249e-01	3.76000e+02
887	3.73060e+02	8.87000e+02	7.09441e-01	3.77000e+02
888	3.74045e+02	8.88000e+02	6.98634e-01	3.78000e+02
889	3.75030e+02	8.89000e+02	6.87975e-01	3.79000e+02
890	3.76017e+02	8.90000e+02	6.77120e-01	3.80000e+02
891	3.77011e+02	8.91000e+02	6.66084e-01	3.81000e+02
892	3.77987e+02	8.92000e+02	6.54092e-01	3.82000e+02
893	3.78979e+02	8.93000e+02	6.42244e-01	3.83000e+02
894	3.79969e+02	8.94000e+02	6.30212e-01	3.84000e+02
895	3.80950e+02	8.95000e+02	6.18006e-01	3.85000e+02
896	3.81936e+02	8.96000e+02	6.04911e-01	3.86000e+02
897	3.82924e+02	8.97000e+02	5.91960e-01	3.87000e+02
898	3.83916e+02	8.98000e+02	5.78857e-01	3.88000e+02
899	3.84897e+02	8.99000e+02	5.65608e-01	3.89000e+02
900	3.85894e+02	9.00000e+02	5.51594e-01	3.90000e+02
901	3.86886e+02	9.01000e+02	5.37737e-01	3.91000e+02
902	3.87881e+02	9.02000e+02	5.23779e-01	3.92000e+02
903	3.88871e+02	9.03000e+02	5.09715e-01	3.93000e+02
904	3.89860e+02	9.04000e+02	4.95115e-01	3.94000e+02
905	3.90844e+02	9.05000e+02	4.80657e-01	3.95000e+02
906	3.91837e+02	9.06000e+02	4.66169e-01	3.96000e+02
907	3.92838e+02	9.07000e+02	4.51643e-01	3.97000e+02
908	3.93828e+02	9.08000e+02	4.36891e-01	3.98000e+02
909	3.94806e+02	9.09000e+02	4.22279e-01	3.99000e+02
910	3.95806e+02	9.10000e+02	4.07725e-01	4.00000e+02
911	3.96805e+02	9.11000e+02	3.93206e-01	4.01000e+02
912	3.97798e+02	9.12000e+02	3.78845e-01	4.02000e+02
913	3.98792e+02	9.13000e+02	3.64546e-01	4.03000e+02
914	3.99777e+02	9.14000e+02	3.50364e-01	4.04000e+02
915	4.00780e+02	9.15000e+02	3.36278e-01	4.05000e+02
916	4.01777e+02	9.16000e+02	3.22684e-01	4.06000e+02
917	4.02777e+02	9.17000e+02	3.09115e-01	4.07000e+02
918	4.03763e+02	9.18000e+02	2.95739e-01	4.08000e+02
919	4.04751e+02	9.19000e+02	2.82522e-01	4.09000e+02
920	4.05745e+02	9.20000e+02	2.70123e-01	4.10000e+02
921	4.06738e+02	9.21000e+02	2.57688e-01	4.11000e+02
922	4.07739e+02	9.22000e+02	2.45492e-01	4.12000e+02
923	4.08749e+02	9.23000e+02	2.33504e-01	4.13000e+02
924	4.09728e+02	9.24000e+02	2.22589e-01	4.14000e+02
925	4.10716e+02	9.25000e+02	2.11588e-01	4.15000e+02
926	4.11715e+02	9.26000e+02	2.00864e-01	4.16000e+02
927	4.12722e+02	9.27000e+02	1.90389e-01	4.17000e+02
928	4.13702e+02	9.28000e+02	1.81175e-01	4.18000e+02
929	4.14691e+02	9.29000e+02	1.71834e-01	4.19000e+02
930	4.15692e+02	9.30000e+02	1.62791e-01	4.20000e+02
931	4.16698e+02	9.31000e+02	1.54013e-01	4.21000e+02
932	4.17689e+02	9.32000e+02	1.46603e-01	4.22000e+02
933	4.18681e+02	9.33000e+02	1.39009e-01	4.23000e+02
934	4.19672e+02	9.34000e+02	1.31696e-01	4.24000e+02
935	4.20669e+02	9.35000e+02	1.24643e-01	4.25000e+02
936	4.21675e+02	9.36000e+02	1.18923e-01	4.26000e+02
937	4.22668e+02	9.37000e+02	1.12995e-01	4.27000e+02
938	4.23652e+02	9.38000e+02	1.07315e-01	4.28000e+02
939	4.24660e+02	9.39000e+02	1.01867e-01	4.29000e+02
940	4.25655e+02	9.40000e+02	9.76168e-02	4.30000e+02
941	4.26652e+02	9.41000e+02	9.31585e-02	4.31000e+02
942	4.27635e+02	9.42000e+02	8.89055e-02	4.32000e+02
943	4.28624e+02	9.43000e+02	8.48510e-02	4.33000e+02
944	4.29626e+02	9.44000e+02	8.18117e-02	4.34000e+02
945	4.30621e+02	9.45000e+02	7.85893e-02	4.35000e+02
946	4.31603e+02	9.46000e+02	7.55298e-02	4.36000e+02
947	4.32598e+02	9.47000e+02	7.26289e-02	4.37000e+02
948	4.33596e+02	9.48000e+02	7.05514e-02	4.38000e+02
949	4.34589e+02	9.49000e+02	6.83057e-02	4.39000e+02
950	4.35582e+02	9.50000e+02	6.61787e-02	4.40000e+02
951	4.36563e+02	9.51000e+02	6.41723e-02	4.41000e+02
952	4.37559e+02	9.52000e+02	6.27845e-02	4.42000e+02
953	4.38546e+02	9.53000e+02	6.12704e-02	4.43000e+02
954	4.39540e+02	9.54000e+02	5.98433e-02	4.44000e+02
955	4.40527e+02	9.55000e+02	5.85036e-02	4.45000e+02
956	4.41524e+02	9.56000e+02	5.76135e-02	4.46000e+02
957	4.42514e+02	9.57000e+02	5.66197e-02	4.47000e+02
958	4.43500e+02	9.58000e+02	5.56790e-02	4.48000e+02
959	4.44494e+02	9.59000e+02	5.47959e-02	4.49000e+02
960	4.45478e+02	9.60000e+02	5.42112e-02	4.50000e+02
961	4.46470e+02	9.61000e+02	5.35565e-02	4.51000e+02
962	4.47450e+02	9.62000e+02	5.29363e-02	4.52000e+02
963	4.48439e+02	9.63000e+02	5.23537e-02	4.53000e+02
964	4.49421e+02	9.64000e+02	5.19628e-02	4.54000e+02
965	4.50398e+02	9.65000e+02	5.15260e-02	4.55000e+02
966	4.51398e+02	9.66000e+02	5.11115e-02	4.56000e+02
967	4.52389e+02	9.67000e+02	5.07224e-02	4.57000e+02
968	4.53365e+02	9.68000e+02	5.04640e-02	4.58000e+02
969	4.54357e+02	9.69000e+02	5.01788e-02	4.59000e+02
970	4.55340e+02	9.70000e+02	4.99104e-02	4.60000e+02
971	4.56328e+02	9.71000e+02	4.96604e-02	4.61000e+02
972	4.57317e+02	9.72000e+02	4.95080e-02	4.62000e+02
973	4.58295e+02	9.73000e+02	4.93314e-02	4.63000e+02
974	4.59275e+02	9.74000e+02	4.91645e-02	4.64000e+02
975	4.60278e+02	9.75000e+02	4.90100e-02	4.65000e+02
976	4.61253e+02	9.76000e+02	4.89177e-02	4.66000e+02
977	4.62233e+02	9.77000e+02	4.88085e-02	4.67000e+02
978	4.63229e+02	9.78000e+02	4.87036e-02	4.68000e+02
979	4.64216e+02	9.79000e+02	4.86047e-02	4.69000e+02
980	4.65194e+02	9.80000e+02	4.85411e-02	4.70000e+02
981	4.66183e+02	9.81000e+02	4.84693e-02	4.71000e+02
982	4.67172e+02	9.82000e+02	4.84025e-02	4.72000e+02
983	4.68156e+02	9.83000e+02	4.83411e-02	4.73000e+02
984	4.69155e+02	9.84000e+02	4.83036e-02	4.74000e+02
985	4.70134e+02	9.85000e+02	4.82618e-02	4.75000e+02
986	4.71121e+02	9.86000e+02	4.82212e-02	4.76000e+02
987	4.72104e+02	9.87000e+02	4.81816e-02	4.77000e+02
988	4.73093e+02	9.88000e+02	4.81528e-02	4.78000e+02
989	4.74084e+02	9.89000e+02	4.81157e-02	4.79000e+02
990	4.75067e+02	9.90000e+02	4.80778e-02	4.80000e+02
991	4.76055e+02	9.91000e+02	4.80405e-02	4.81000e+02
992	4.77038e+02	9.92000e+02	4.80006e-02	4.82000e+02
993	4.78035e+02	9.93000e+02	4.79659e-02	4.83000e+02
994	4.79022e+02	9.94000e+02	4.79339e-02	4.84000e+02
995	4.80008e+02	9.95000e+02	4.79034e-02	4.85000e+02
996	4.81001e+02	9.96000e+02	4.78821e-02	4.86000e+02
997	4.81993e+02	9.97000e+02	4.78581e-02	4.87000e+02
998	4.82987e+02	9.98000e+02	4.78347e-02	4.88000e+02
999	4.83967e+02	9.99000e+02	4.78122e-02	4.89000e+02
1000	4.84950e+02	1.00000e+03	4.77941e-02	4.90000e+02
1001	4.85932e+02	1.00100e+03	4.77746e-02	4.91000e+02
1002	4.86926e+02	1.00200e+03	4.77558e-02	4.92000e+02
1003	4.87915e+02	1.00300e+03	4.77379e-02	4.93000e+02
1004	4.88907e+02	1.00400e+03	4.77232e-02	4.94000e+02
1005	4.89892e+02	1.00500e+03	4.77072e-02	4.95000e+02
1006	4.90882e+02	1.00600e+03	4.76909e-02	4.96000e+02
1007	4.91872e+02	1.00700e+03	4.76755e-02	4.97000e+02
1008	4.92854e+02	1.00800e+03	4.76632e-02	4.98000e+02
1009	4.93843e+02	1.00900e+03	4.76512e-02	4.99000e+02
1010	4.94823e+02	1.01000e+03	4.76418e-02	5.00000e+02
1011	4.95812e+02	1.01100e+03	4.76348e-02	5.01000e+02
1012	4.96809e+02	1.01200e+03	4.76334e-02	5.02000e+02
1013	4.97790e+02	1.01300e+03	4.76296e-02	5.03000e+02
1014	4.98779e+02	1.01400e+03	4.76239e-02	5.04000e+02
1015	4.99770e+02	1.01500e+03	4.76170e-02	5.05000e+02
1016	5.00758e+02	1.01600e+03	4.76091e-02	5.06000e+02
1017	5.01740e+02	1.01700e+03	4.75972e-02	5.07000e+02
1018	5.02732e+02	1.01800e+03	4.75830e-02	5.08000e+02
1019	5.03716e+02	1.01900e+03	4.75679e-02	5.09000e+02
1020	5.04708e+02	1.02000e+03	4.75449e-02	5.10000e+02
1021	5.05693e+02	1.02100e+03	4.75259e-02	5.11000e+02
1022	5.06686e+02	1.02200e+03	4.75069e-02	5.12000e+02
1023	5.07682e+02	1.02300e+03	4.74876e-02	5.13000e+02
1024	5.08663e+02	1.02400e+03	4.74712e-02	5.14000e+02
1025	5.09648e+02	1.02500e+03	4.74561e-02	5.15000e+02
1026	5.10643e+02	1.02600e+03	4.74432e-02	5.16000e+02
1027	5.11625e+02	1.02700e+03	4.74321e-02	5.17000e+02
1028	5.12626e+02	1.02800e+03	4.74274e-02	5.18000e+02
1029	5.13612e+02	1.02900e+03	4.74215e-02	5.19000e+02
1030	5.14597e+02	1.03000e+03	4.74145e-02	5.20000e+02
1031	5.15576e+02	1.03100e+03	4.74064e-02	5.21000e+02
1032	5.16570e+02	1.03200e+03	4.73982e-02	5.22000e+02
1033	5.17563e+02	1.03300e+03	4.73858e-02	5.23000e+02
1034	5.18541e+02	1.03400e+03	4.73713e-02	5.24000e+02
1035	5.19540e+02	1.03500e+03	4.73562e-02	5.25000e+02
1036	5.20514e+02	1.03600e+03	4.73369e-02	5.26000e+02
1037	5.21512e+02	1.03700e+03	4.73246e-02	5.27000e+02
1038	5.22491e+02	1.03800e+03	4.73146e-02	5.28000e+02
1039	5.23483e+02	1.03900e+03	4.73052e-02	5.29000e+02
1040	5.24472e+02	1.04000e+03	4.73026e-02	5.30000e+02
1041	5.25458e+02	1.04100e+03	4.72960e-02	5.31000e+02
1042	5.26451e+02	1.04200e+03	4.72882e-02	5.32000e+02
1043	5.27434e+02	1.04300e+03	4.72798e-02	5.33000e+02
1044	5.28416e+02	1.04400e+03	4.72689e-02	5.34000e+02
1045	5.29415e+02	1.04500e+03	4.72575e-02	5.35000e+02
1046	5.30400e+02	1.04600e+03	4.72446e-02	5.36000e+02
1047	5.31395e+02	1.04700e+03	4.72307e-02	5.37000e+02
1048	5.32373e+02	1.04800e+03	4.72122e-02	5.38000e+02
1049	5.33374e+02	1.04900e+03	4.71956e-02	5.39000e+02
1050	5.34362e+02	1.05000e+03	4.71800e-02	5.40000e+02
1051	5.35346e+02	1.05100e+03	4.71648e-02	5.41000e+02
1052	5.36333e+02	1.05200e+03	4.71471e-02	5.42000e+02
1053	5.37332e+02	1.05300e+03	4.71300e-02	5.43000e+02
1054	5.38308e+02	1.05400e+03	4.71122e-02	5.44000e+02
1055	5.39294e+02	1.05500e+03	4.70934e-02	5.45000e+02
1056	5.40288e+02	1.05600e+03	4.70721e-02	5.46000e+02
1057	5.41287e+02	1.05700e+03	4.70523e-02	5.47000e+02
1058	5.42266e+02	1.05800e+03	4.70351e-02	5.48000e+02
1059	5.43251e+02	1.05900e+03	4.70196e-02	5.49000e+02
1060	5.44227e+02	1.06000e+03	4.70096e-02	5.50000e+02
1061	5.45226e+02	1.06100e+03	4.70042e-02	5.51000e+02
1062	5.46213e+02	1.06200e+03	4.70015e-02	5.52000e+02
1063	5.47199e+02	1.06300e+03	4.69996e-02	5.53000e+02
1064	5.48190e+02	1.06400e+03	4.70109e-02	5.54000e+02
1065	5.49178e+02	1.06500e+03	4.70158e-02	5.55000e+02
1066	5.50165e+02	1.06600e+03	4.70208e-02	5.56000e+02
1067	5.51151e+02	1.06700e+03	4.70273e-02	5.57000e+02
1068	5.52139e+02	1.06800e+03	4.70350e-02	5.58000e+02
1069	5.53130e+02	1.06900e+03	4.70442e-02	5.59000e+02
1070	5.54114e+02	1.07000e+03	4.70545e-02	5.60000e+02
1071	5.55102e+02	1.07100e+03	4.70646e-02	5.61000e+02
1072	5.56086e+02	1.07200e+03	4.70726e-02	5.62000e+02
1073	5.57072e+02	1.07300e+03	4.70769e-02	5.63000e+02
1074	5.58067e+02	1.07400e+03	4.70799e-02	5.64000e+02
1075	5.59061e+02	1.07500e+03	4.70825e-02	5.65000e+02
1076	5.60050e+02	1.07600e+03	4.70784e-02	5.66000e+02
1077	5.61032e+02	1.07700e+03	4.70784e-02	5.67000e+02
1078	5.62021e+02	1.07800e+03	4.70783e-02	5.68000e+02
1079	5.63015e+02	1.07900e+03	4.70776e-02	5.69000e+02
1080	5.63995e+02	1.08000e+03	4.70762e-02	5.70000e+02
1081	5.64988e+02	1.08100e+03	4.70706e-02	5.71000e+02
1082	5.65972e+02	1.08200e+03	4.70623e-02	5.72000e+02
1083	5.66973e+02	1.08300e+03	4.70528e-02	5.73000e+02
1084	5.67956e+02	1.08400e+03	4.70337e-02	5.74000e+02
1085	5.68942e+02	1.08500e+03	4.70177e-02	5.75000e+02
1086	5.69931e+02	1.08600e+03	4.70033e-02	5.76000e+02
1087	5.70923e+02	1.08700e+03	4.69899e-02	5.77000e+02
1088	5.71897e+02	1.08800e+03	4.69743e-02	5.78000e+02
1089	5.72897e+02	1.08900e+03	4.69601e-02	5.79000e+02
1090	5.73890e+02	1.09000e+03	4.69463e-02	5.80000e+02
1091	5.74877e+02	1.09100e+03	4.69323e-02	5.81000e+02
1092	5.75855e+02	1.09200e+03	4.69193e-02	5.82000e+02
1093	5.76839e+02	1.09300e+03	4.69045e-02	5.83000e+02
1094	5.77837e+02	1.09400e+03	4.68899e-02	5.84000e+02
1095	5.78833e+02	1.09500e+03	4.68764e-02	5.85000e+02
1096	5.79821e+02	1.09600e+03	4.68650e-02	5.86000e+02
1097	5.80792e+02	1.09700e+03	4.68573e-02	5.87000e+02
1098	5.81790e+02	1.09800e+03	4.68529e-02	5.88000e+02
1099	5.82781e+02	1.09900e+03	4.68503e-02	5.89000e+02
1100	5.83763e+02	1.10000e+03	4.68550e-02	5.90000e+02
1101	5.84761e+02	1.10100e+03	4.68541e-02	5.91000e+02
1102	5.85740e+02	1.10200e+03	4.68526e-02	5.92000e+02
1103	5.86745e+02	1.10300e+03	4.68518e-02	5.93000e+02
1104	5.87722e+02	1.10400e+03	4.68513e-02	5.94000e+02
1105	5.88712e+02	1.10500e+03	4.68520e-02	5.95000e+02
1106	5.89694e+02	1.10600e+03	4.68522e-02	5.96000e+02
1107	5.90679e+02	1.10700e+03	4.68516e-02	5.97000e+02
1108	5.91676e+02	1.10800e+03	4.68497e-02	5.98000e+02
1109	5.92659e+02	1.10900e+03	4.68429e-02	5.99000e+02
1110	5.93648e+02	1.11000e+03	4.68320e-02	6.00000e+02
1111	5.94645e+02	1.11100e+03	4.68191e-02	6.01000e+02
1112	5.95636e+02	1.11200e+03	4.67970e-02	6.02000e+02
1113	5.96628e+02	1.11300e+03	4.67799e-02	6.03000e+02
1114	5.97614e+02	1.11400e+03	4.67652e-02	6.04000e+02
1115	5.98607e+02	1.11500e+03	4.67520e-02	6.05000e+02
1116	5.99592e+02	1.11600e+03	4.67425e-02	6.06000e+02
1117	6.00570e+02	1.11700e+03	4.67337e-02	6.07000e+02
1118	6.01556e+02	1.11800e+03	4.67255e-02	6.08000e+02
1119	6.02555e+02	1.11900e+03	4.67178e-02	6.09000e+02
1120	6.03540e+02	1.12000e+03	4.67167e-02	6.10000e+02
1121	6.04522e+02	1.12100e+03	4.67120e-02	6.11000e+02
1122	6.05517e+02	1.12200e+03	4.67061e-02	6.12000e+02
1123	6.06501e+02	1.12300e+03	4.66997e-02	6.13000e+02
1124	6.07489e+02	1.12400e+03	4.66925e-02	6.14000e+02
1125	6.08478e+02	1.12500e+03	4.66867e-02	6.15000e+02
1126	6.09472e+02	1.12600e+03	4.66814e-02	6.16000e+02
1127	6.10456e+02	1.12700e+03	4.66762e-02	6.17000e+02
1128	6.11445e+02	1.12800e+03	4.66717e-02	6.18000e+02
1129	6.12437e+02	1.12900e+03	4.66663e-02	6.19000e+02
1130	6.13420e+02	1.13000e+03	4.66609e-02	6.20000e+02
1131	6.14417e+02	1.13100e+03	4.66560e-02	6.21000e+02
1132	6.15408e+02	1.13200e+03	4.66546e-02	6.22000e+02
1133	6.16397e+02	1.13300e+03	4.66560e-02	6.23000e+02
1134	6.17390e+02	1.13400e+03	4.66605e-02	6.24000e+02
1135	6.18374e+02	1.13500e+03	4.66674e-02	6.25000e+02
1136	6.19364e+02	1.13600e+03	4.66838e-02	6.26000e+02
1137	6.20358e+02	1.13700e+03	4.66960e-02	6.27000e+02
1138	6.21348e+02	1.13800e+03	4.67065e-02	6.28000e+02
1139	6.22336e+02	1.13900e+03	4.67159e-02	6.29000e+02
1140	6.23323e+02	1.14000e+03	4.67250e-02	6.30000e+02
1141	6.24312e+02	1.14100e+03	4.67325e-02	6.31000e+02
1142	6.25295e+02	1.14200e+03	4.67392e-02	6.32000e+02
1143	6.26291e+02	1.14300e+03	4.67456e-02	6.33000e+02
1144	6.27282e+02	1.14400e+03	4.67440e-02	6.34000e+02
1145	6.28280e+02	1.14500e+03	4.67426e-02	6.35000e+02
1146	6.29275e+02	1.14600e+03	4.67378e-02	6.36000e+02
1147	6.30258e+02	1.14700e+03	4.67297e-02	6.37000e+02
1148	6.31237e+02	1.14800e+03	4.67131e-02	6.38000e+02
1149	6.32230e+02	1.14900e+03	4.66996e-02	6.39000e+02
1150	6.33224e+02	1.15000e+03	4.66877e-02	6.40000e+02
1151	6.34219e+02	1.15100e+03	4.66768e-02	6.41000e+02
1152	6.35205e+02	1.15200e+03	4.66672e-02	6.42000e+02
1153	6.36192e+02	1.15300e+03	4.66637e-02	6.43000e+02
1154	6.37187e+02	1.15400e+03	4.66636e-02	6.44000e+02
1155	6.38184e+02	1.15500e+03	4.66652e-02	6.45000e+02
1156	6.39173e+02	1.15600e+03	4.66821e-02	6.46000e+02
1157	6.40167e+02	1.15700e+03	4.66949e-02	6.47000e+02
1158	6.41164e+02	1.15800e+03	4.67083e-02	6.48000e+02
1159	6.42151e+02	1.15900e+03	4.67216e-02	6.49000e+02
1160	6.43139e+02	1.16000e+03	4.67346e-02	6.50000e+02
1161	6.44138e+02	1.16100e+03	4.67422e-02	6.51000e+02
1162	6.45138e+02	1.16200e+03	4.67463e-02	6.52000e+02
1163	6.46124e+02	1.16300e+03	4.67482e-02	6.53000e+02
1164	6.47114e+02	1.16400e+03	4.67393e-02	6.54000e+02
1165	6.48117e+02	1.16500e+03	4.67361e-02	6.55000e+02
1166	6.49108e+02	1.16600e+03	4.67357e-02	6.56000e+02
1167	6.50096e+02	1.16700e+03	4.67368e-02	6.57000e+02
1168	6.51086e+02	1.16800e+03	4.67396e-02	6.58000e+02
1169	6.52076e+02	1.16900e+03	4.67444e-02	6.59000e+02
1170	6.53079e+02	1.17000e+03	4.67507e-02	6.60000e+02
1171	6.54075e+02	1.17100e+03	4.67572e-02	6.61000e+02
1172	6.55058e+02	1.17200e+03	4.67695e-02	6.62000e+02
1173	6.56061e+02	1.17300e+03	4.67786e-02	6.63000e+02
1174	6.57054e+02	1.17400e+03	4.67869e-02	6.64000e+02
1175	6.58053e+02	1.17500e+03	4.67950e-02	6.65000e+02
1176	6.59040e+02	1.17600e+03	4.67986e-02	6.66000e+02
1177	6.60032e+02	1.17700e+03	4.68006e-02	6.67000e+02
1178	6.61027e+02	1.17800e+03	4.68011e-02	6.68000e+02
1179	6.62022e+02	1.17900e+03	4.68009e-02	6.69000e+02
1180	6.63010e+02	1.18000e+03	4.67965e-02	6.70000e+02
1181	6.64008e+02	1.18100e+03	4.67958e-02	6.71000e+02
1182	6.65008e+02	1.18200e+03	4.67973e-02	6.72000e+02
1183	6.65997e+02	1.18300e+03	4.68002e-02	6.73000e+02
1184	6.66988e+02	1.18400e+03	4.68112e-02	6.74000e+02
1185	6.67379e+02	1.18500e+03	4.68252e-02	6.75000e+02
1186	6.67736e+02	1.18600e+03	4.68440e-02	6.76000e+02
1187	6.68325e+02	1.18700e+03	4.68655e-02	6.77000e+02
1188	6.69036e+02	1.18800e+03	4.69095e-02	6.78000e+02
1189	6.69782e+02	1.18900e+03	4.69461e-02	6.79000e+02
1190	6.70513e+02	1.19000e+03	4.69733e-02	6.80000e+02
1191	6.71220e+02	1.19100e+03	4.69919e-02	6.81000e+02
1192	6.71883e+02	1.19200e+03	4.70067e-02	6.82000e+02
1193	6.72534e+02	1.19300e+03	4.70050e-02	6.83000e+02
1194	6.73178e+02	1.19400e+03	4.69875e-02	6.84000e+02
1195	6.73794e+02	1.19500e+03	4.69598e-02	6.85000e+02
1196	6.74380e+02	1.19600e+03	4.68921e-02	6.86000e+02
1197	6.74961e+02	1.19700e+03	4.68445e-02	6.87000e+02
1198	6.75527e+02	1.19800e+03	4.68031e-02	6.88000e+02
1199	6.76075e+02	1.19900e+03	4.67655e-02	6.89000e+02
1200	6.76600e+02	1.20000e+03	4.67347e-02	6.90000e+02
1201	6.77114e+02	1.20100e+03	4.67123e-02	6.91000e+02
1202	6.77624e+02	1.20200e+03	4.66953e-02	6.92000e+02
1203	6.78103e+02	1.20300e+03	4.66808e-02	6.93000e+02
1204	6.78570e+02	1.20400e+03	4.66844e-02	6.94000e+02
1205	6.79032e+02	1.20500e+03	4.66746e-02	6.95000e+02
1206	6.79478e+02	1.20600e+03	4.66640e-02	6.96000e+02
1207	6.79908e+02	1.20700e+03	4.66550e-02	6.97000e+02
1208	6.80331e+02	1.20800e+03	4.66426e-02	6.98000e+02
1209	6.80742e+02	1.20900e+03	4.66389e-02	6.99000e+02
1210	6.81144e+02	1.21000e+03	4.66401e-02	7.00000e+02