File: Experiments/TGA/TUBS/tga_nonisotherm/tga_dynamic_n2_dyn45_powder_3mg_r2.txt
index	ts	t	weight	tr
[#]	[°C]	[s]	[mg]	[°C]
657	1.32513e+02	6.57000e+02	3.01860e+00	1.32752e+02
658	1.33287e+02	6.58000e+02	3.01860e+00	1.33502e+02
659	1.34045e+02	6.59000e+02	3.01860e+00	1.34252e+02
660	1.34813e+02	6.60000e+02	3.01861e+00	1.35002e+02
661	1.35574e+02	6.61000e+02	3.01862e+00	1.35752e+02
662	1.36353e+02	6.62000e+02	3.01862e+00	1.36502e+02
663	1.37119e+02	6.63000e+02	3.01863e+00	1.37252e+02
664	1.37874e+02	6.64000e+02	3.01862e+00	1.38002e+02
665	1.38642e+02	6.65000e+02	3.01861e+00	1.38752e+02
666	1.39411e+02	6.66000e+02	3.01860e+00	1.39502e+02
667	1.40167e+02	6.67000e+02	3.01857e+00	1.40252e+02
668	1.40937e+02	6.68000e+02	3.01853e+00	1.41002e+02
669	1.41715e+02	6.69000e+02	3.01848e+00	1.41752e+02
670	1.42487e+02	6.70000e+02	3.01842e+00	1.42502e+02
671	1.43245e+02	6.71000e+02	3.01836e+00	1.43252e+02
672	1.44008e+02	6.72000e+02	3.01825e+00	1.44002e+02
673	1.44776e+02	6.73000e+02	3.01814e+00	1.44752e+02
674	1.45545e+02	6.74000e+02	3.01802e+00	1.45502e+02
675	1.46308e+02	6.75000e+02	3.01789e+00	1.46252e+02
676	1.47070e+02	6.76000e+02	3.01771e+00	1.47002e+02
677	1.47841e+02	6.77000e+02	3.01753e+00	1.47752e+02
678	1.48606e+02	6.78000e+02	3.01735e+00	1.48502e+02
679	1.49359e+02	6.79000e+02	3.01716e+00	1.49252e+02
680	1.50120e+02	6.80000e+02	3.01695e+00	1.50002e+02
681	1.50881e+02	6.81000e+02	3.01675e+00	1.50752e+02
682	1.51659e+02	6.82000e+02	3.01656e+00	1.51503e+02
683	1.52420e+02	6.83000e+02	3.01638e+00	1.52253e+02
684	1.53189e+02	6.84000e+02	3.01619e+00	1.53003e+02
685	1.53943e+02	6.85000e+02	3.01599e+00	1.53753e+02
686	1.54718e+02	6.86000e+02	3.01578e+00	1.54503e+02
687	1.55490e+02	6.87000e+02	3.01557e+00	1.55253e+02
688	1.56248e+02	6.88000e+02	3.01532e+00	1.56003e+02
689	1.57018e+02	6.89000e+02	3.01507e+00	1.56753e+02
690	1.57776e+02	6.90000e+02	3.01481e+00	1.57503e+02
691	1.58541e+02	6.91000e+02	3.01453e+00	1.58253e+02
692	1.59302e+02	6.92000e+02	3.01420e+00	1.59003e+02
693	1.60063e+02	6.93000e+02	3.01387e+00	1.59753e+02
694	1.60828e+02	6.94000e+02	3.01354e+00	1.60503e+02
695	1.61586e+02	6.95000e+02	3.01319e+00	1.61253e+02
696	1.62357e+02	6.96000e+02	3.01279e+00	1.62003e+02
697	1.63124e+02	6.97000e+02	3.01240e+00	1.62753e+02
698	1.63888e+02	6.98000e+02	3.01200e+00	1.63503e+02
699	1.64638e+02	6.99000e+02	3.01159e+00	1.64253e+02
700	1.65397e+02	7.00000e+02	3.01114e+00	1.65003e+02
701	1.66165e+02	7.01000e+02	3.01069e+00	1.65753e+02
702	1.66935e+02	7.02000e+02	3.01025e+00	1.66503e+02
703	1.67692e+02	7.03000e+02	3.00981e+00	1.67253e+02
704	1.68451e+02	7.04000e+02	3.00934e+00	1.68003e+02
705	1.69215e+02	7.05000e+02	3.00890e+00	1.68753e+02
706	1.69982e+02	7.06000e+02	3.00845e+00	1.69503e+02
707	1.70741e+02	7.07000e+02	3.00799e+00	1.70253e+02
708	1.71506e+02	7.08000e+02	3.00753e+00	1.71003e+02
709	1.72274e+02	7.09000e+02	3.00704e+00	1.71753e+02
710	1.73039e+02	7.10000e+02	3.00654e+00	1.72503e+02
711	1.73806e+02	7.11000e+02	3.00603e+00	1.73253e+02
712	1.74551e+02	7.12000e+02	3.00545e+00	1.74003e+02
713	1.75326e+02	7.13000e+02	3.00487e+00	1.74753e+02
714	1.76089e+02	7.14000e+02	3.00428e+00	1.75503e+02
715	1.76851e+02	7.15000e+02	3.00366e+00	1.76254e+02
716	1.77618e+02	7.16000e+02	3.00297e+00	1.77004e+02
717	1.78385e+02	7.17000e+02	3.00227e+00	1.77754e+02
718	1.79143e+02	7.18000e+02	3.00154e+00	1.78504e+02
719	1.79899e+02	7.19000e+02	3.00077e+00	1.79254e+02
720	1.80670e+02	7.20000e+02	2.99987e+00	1.80004e+02
721	1.81431e+02	7.21000e+02	2.99898e+00	1.80754e+02
722	1.82197e+02	7.22000e+02	2.99804e+00	1.81504e+02
723	1.82961e+02	7.23000e+02	2.99706e+00	1.82254e+02
724	1.83710e+02	7.24000e+02	2.99589e+00	1.83004e+02
725	1.84491e+02	7.25000e+02	2.99474e+00	1.83754e+02
726	1.85253e+02	7.26000e+02	2.99354e+00	1.84504e+02
727	1.85996e+02	7.27000e+02	2.99230e+00	1.85254e+02
728	1.86768e+02	7.28000e+02	2.99084e+00	1.86004e+02
729	1.87531e+02	7.29000e+02	2.98940e+00	1.86754e+02
730	1.88294e+02	7.30000e+02	2.98790e+00	1.87504e+02
731	1.89062e+02	7.31000e+02	2.98636e+00	1.88254e+02
732	1.89826e+02	7.32000e+02	2.98458e+00	1.89004e+02
733	1.90592e+02	7.33000e+02	2.98283e+00	1.89754e+02
734	1.91355e+02	7.34000e+02	2.98105e+00	1.90504e+02
735	1.92116e+02	7.35000e+02	2.97923e+00	1.91254e+02
736	1.92877e+02	7.36000e+02	2.97721e+00	1.92004e+02
737	1.93647e+02	7.37000e+02	2.97522e+00	1.92754e+02
738	1.94402e+02	7.38000e+02	2.97320e+00	1.93504e+02
739	1.95168e+02	7.39000e+02	2.97115e+00	1.94254e+02
740	1.95942e+02	7.40000e+02	2.96893e+00	1.95004e+02
741	1.96695e+02	7.41000e+02	2.96674e+00	1.95754e+02
742	1.97452e+02	7.42000e+02	2.96454e+00	1.96504e+02
743	1.98232e+02	7.43000e+02	2.96232e+00	1.97254e+02
744	1.98993e+02	7.44000e+02	2.95999e+00	1.98004e+02
745	1.99755e+02	7.45000e+02	2.95769e+00	1.98754e+02
746	2.00530e+02	7.46000e+02	2.95539e+00	1.99504e+02
747	2.01289e+02	7.47000e+02	2.95308e+00	2.00255e+02
748	2.02046e+02	7.48000e+02	2.95074e+00	2.01005e+02
749	2.02813e+02	7.49000e+02	2.94843e+00	2.01755e+02
750	2.03586e+02	7.50000e+02	2.94613e+00	2.02505e+02
751	2.04345e+02	7.51000e+02	2.94384e+00	2.03255e+02
752	2.05117e+02	7.52000e+02	2.94160e+00	2.04005e+02
753	2.05890e+02	7.53000e+02	2.93939e+00	2.04755e+02
754	2.06647e+02	7.54000e+02	2.93723e+00	2.05505e+02
755	2.07414e+02	7.55000e+02	2.93509e+00	2.06255e+02
756	2.08186e+02	7.56000e+02	2.93310e+00	2.07005e+02
757	2.08964e+02	7.57000e+02	2.93111e+00	2.07755e+02
758	2.09727e+02	7.58000e+02	2.92917e+00	2.08505e+02
759	2.10488e+02	7.59000e+02	2.92727e+00	2.09255e+02
760	2.11258e+02	7.60000e+02	2.92557e+00	2.10005e+02
761	2.12034e+02	7.61000e+02	2.92386e+00	2.10755e+02
762	2.12794e+02	7.62000e+02	2.92220e+00	2.11505e+02
763	2.13566e+02	7.63000e+02	2.92060e+00	2.12255e+02
764	2.14325e+02	7.64000e+02	2.91924e+00	2.13005e+02
765	2.15109e+02	7.65000e+02	2.91786e+00	2.13755e+02
766	2.15871e+02	7.66000e+02	2.91654e+00	2.14505e+02
767	2.16636e+02	7.67000e+02	2.91528e+00	2.15255e+02
768	2.17402e+02	7.68000e+02	2.91430e+00	2.16005e+02
769	2.18172e+02	7.69000e+02	2.91329e+00	2.16755e+02
770	2.18942e+02	7.70000e+02	2.91232e+00	2.17505e+02
771	2.19712e+02	7.71000e+02	2.91141e+00	2.18255e+02
772	2.20479e+02	7.72000e+02	2.91073e+00	2.19005e+02
773	2.21245e+02	7.73000e+02	2.90999e+00	2.19755e+02
774	2.22025e+02	7.74000e+02	2.90926e+00	2.20505e+02
775	2.22792e+02	7.75000e+02	2.90856e+00	2.21255e+02
776	2.23559e+02	7.76000e+02	2.90799e+00	2.22005e+02
777	2.24313e+02	7.77000e+02	2.90738e+00	2.22755e+02
778	2.25096e+02	7.78000e+02	2.90678e+00	2.23505e+02
779	2.25866e+02	7.79000e+02	2.90619e+00	2.24255e+02
780	2.26625e+02	7.80000e+02	2.90568e+00	2.25006e+02
781	2.27394e+02	7.81000e+02	2.90515e+00	2.25756e+02
782	2.28156e+02	7.82000e+02	2.90464e+00	2.26506e+02
783	2.28919e+02	7.83000e+02	2.90414e+00	2.27256e+02
784	2.29682e+02	7.84000e+02	2.90369e+00	2.28006e+02
785	2.30452e+02	7.85000e+02	2.90321e+00	2.28756e+02
786	2.31222e+02	7.86000e+02	2.90271e+00	2.29506e+02
787	2.31987e+02	7.87000e+02	2.90219e+00	2.30256e+02
788	2.32748e+02	7.88000e+02	2.90162e+00	2.31006e+02
789	2.33523e+02	7.89000e+02	2.90103e+00	2.31756e+02
790	2.34266e+02	7.90000e+02	2.90040e+00	2.32506e+02
791	2.35048e+02	7.91000e+02	2.89975e+00	2.33256e+02
792	2.35812e+02	7.92000e+02	2.89898e+00	2.34006e+02
793	2.36586e+02	7.93000e+02	2.89826e+00	2.34756e+02
794	2.37357e+02	7.94000e+02	2.89756e+00	2.35506e+02
795	2.38123e+02	7.95000e+02	2.89685e+00	2.36256e+02
796	2.38881e+02	7.96000e+02	2.89617e+00	2.37006e+02
797	2.39668e+02	7.97000e+02	2.89551e+00	2.37756e+02
798	2.40431e+02	7.98000e+02	2.89490e+00	2.38506e+02
799	2.41212e+02	7.99000e+02	2.89430e+00	2.39256e+02
800	2.41985e+02	8.00000e+02	2.89383e+00	2.40006e+02
801	2.42744e+02	8.01000e+02	2.89334e+00	2.40756e+02
802	2.43508e+02	8.02000e+02	2.89285e+00	2.41506e+02
803	2.44270e+02	8.03000e+02	2.89236e+00	2.42256e+02
804	2.45030e+02	8.04000e+02	2.89193e+00	2.43006e+02
805	2.45796e+02	8.05000e+02	2.89146e+00	2.43756e+02
806	2.46570e+02	8.06000e+02	2.89099e+00	2.44506e+02
807	2.47335e+02	8.07000e+02	2.89052e+00	2.45256e+02
808	2.48105e+02	8.08000e+02	2.89005e+00	2.46006e+02
809	2.48871e+02	8.09000e+02	2.88959e+00	2.46756e+02
810	2.49641e+02	8.10000e+02	2.88914e+00	2.47506e+02
811	2.50408e+02	8.11000e+02	2.88868e+00	2.48256e+02
812	2.51174e+02	8.12000e+02	2.88824e+00	2.49007e+02
813	2.51947e+02	8.13000e+02	2.88776e+00	2.49757e+02
814	2.52711e+02	8.14000e+02	2.88727e+00	2.50507e+02
815	2.53471e+02	8.15000e+02	2.88676e+00	2.51257e+02
816	2.54243e+02	8.16000e+02	2.88620e+00	2.52007e+02
817	2.55011e+02	8.17000e+02	2.88566e+00	2.52757e+02
818	2.55784e+02	8.18000e+02	2.88512e+00	2.53507e+02
819	2.56547e+02	8.19000e+02	2.88458e+00	2.54257e+02
820	2.57311e+02	8.20000e+02	2.88404e+00	2.55007e+02
821	2.58091e+02	8.21000e+02	2.88352e+00	2.55757e+02
822	2.58859e+02	8.22000e+02	2.88302e+00	2.56507e+02
823	2.59628e+02	8.23000e+02	2.88252e+00	2.57257e+02
824	2.60401e+02	8.24000e+02	2.88207e+00	2.58007e+02
825	2.61180e+02	8.25000e+02	2.88161e+00	2.58757e+02
826	2.61932e+02	8.26000e+02	2.88115e+00	2.59507e+02
827	2.62667e+02	8.27000e+02	2.88070e+00	2.60257e+02
828	2.63438e+02	8.28000e+02	2.88026e+00	2.61007e+02
829	2.64217e+02	8.29000e+02	2.87980e+00	2.61757e+02
830	2.64985e+02	8.30000e+02	2.87934e+00	2.62507e+02
831	2.65750e+02	8.31000e+02	2.87888e+00	2.63257e+02
832	2.66510e+02	8.32000e+02	2.87842e+00	2.64007e+02
833	2.67288e+02	8.33000e+02	2.87796e+00	2.64757e+02
834	2.68044e+02	8.34000e+02	2.87752e+00	2.65507e+02
835	2.68798e+02	8.35000e+02	2.87708e+00	2.66257e+02
836	2.69560e+02	8.36000e+02	2.87665e+00	2.67007e+02
837	2.70319e+02	8.37000e+02	2.87622e+00	2.67757e+02
838	2.71073e+02	8.38000e+02	2.87579e+00	2.68507e+02
839	2.71835e+02	8.39000e+02	2.87535e+00	2.69257e+02
840	2.72607e+02	8.40000e+02	2.87491e+00	2.70007e+02
841	2.73355e+02	8.41000e+02	2.87447e+00	2.70757e+02
842	2.74124e+02	8.42000e+02	2.87402e+00	2.71507e+02
843	2.74885e+02	8.43000e+02	2.87358e+00	2.72257e+02
844	2.75658e+02	8.44000e+02	2.87311e+00	2.73007e+02
845	2.76417e+02	8.45000e+02	2.87265e+00	2.73758e+02
846	2.77179e+02	8.46000e+02	2.87219e+00	2.74508e+02
847	2.77940e+02	8.47000e+02	2.87171e+00	2.75258e+02
848	2.78711e+02	8.48000e+02	2.87122e+00	2.76008e+02
849	2.79484e+02	8.49000e+02	2.87071e+00	2.76758e+02
850	2.80214e+02	8.50000e+02	2.87017e+00	2.77508e+02
851	2.80966e+02	8.51000e+02	2.86962e+00	2.78258e+02
852	2.81733e+02	8.52000e+02	2.86900e+00	2.79008e+02
853	2.82473e+02	8.53000e+02	2.86838e+00	2.79758e+02
854	2.83216e+02	8.54000e+02	2.86775e+00	2.80508e+02
855	2.83958e+02	8.55000e+02	2.86711e+00	2.81258e+02
856	2.84723e+02	8.56000e+02	2.86639e+00	2.82008e+02
857	2.85474e+02	8.57000e+02	2.86568e+00	2.82758e+02
858	2.86229e+02	8.58000e+02	2.86496e+00	2.83508e+02
859	2.86987e+02	8.59000e+02	2.86422e+00	2.84258e+02
860	2.87745e+02	8.60000e+02	2.86340e+00	2.85008e+02
861	2.88508e+02	8.61000e+02	2.86258e+00	2.85758e+02
862	2.89266e+02	8.62000e+02	2.86172e+00	2.86508e+02
863	2.90031e+02	8.63000e+02	2.86084e+00	2.87258e+02
864	2.90793e+02	8.64000e+02	2.85985e+00	2.88008e+02
865	2.91551e+02	8.65000e+02	2.85889e+00	2.88758e+02
866	2.92319e+02	8.66000e+02	2.85792e+00	2.89508e+02
867	2.93072e+02	8.67000e+02	2.85692e+00	2.90258e+02
868	2.93850e+02	8.68000e+02	2.85582e+00	2.91008e+02
869	2.94597e+02	8.69000e+02	2.85472e+00	2.91758e+02
870	2.95335e+02	8.70000e+02	2.85357e+00	2.92508e+02
871	2.96093e+02	8.71000e+02	2.85238e+00	2.93258e+02
872	2.96853e+02	8.72000e+02	2.85102e+00	2.94008e+02
873	2.97634e+02	8.73000e+02	2.84967e+00	2.94758e+02
874	2.98378e+02	8.74000e+02	2.84826e+00	2.95508e+02
875	2.99152e+02	8.75000e+02	2.84681e+00	2.96258e+02
876	2.99912e+02	8.76000e+02	2.84512e+00	2.97008e+02
877	3.00674e+02	8.77000e+02	2.84347e+00	2.97759e+02
878	3.01432e+02	8.78000e+02	2.84176e+00	2.98509e+02
879	3.02215e+02	8.79000e+02	2.84001e+00	2.99259e+02
880	3.02991e+02	8.80000e+02	2.83803e+00	3.00009e+02
881	3.03748e+02	8.81000e+02	2.83608e+00	3.00759e+02
882	3.04530e+02	8.82000e+02	2.83409e+00	3.01509e+02
883	3.05292e+02	8.83000e+02	2.83206e+00	3.02259e+02
884	3.06053e+02	8.84000e+02	2.82981e+00	3.03009e+02
885	3.06806e+02	8.85000e+02	2.82758e+00	3.03759e+02
886	3.07572e+02	8.86000e+02	2.82528e+00	3.04509e+02
887	3.08341e+02	8.87000e+02	2.82292e+00	3.05259e+02
888	3.09099e+02	8.88000e+02	2.82030e+00	3.06009e+02
889	3.09882e+02	8.89000e+02	2.81771e+00	3.06759e+02
890	3.10643e+02	8.90000e+02	2.81508e+00	3.07509e+02
891	3.11426e+02	8.91000e+02	2.81241e+00	3.08259e+02
892	3.12207e+02	8.92000e+02	2.80952e+00	3.09009e+02
893	3.12984e+02	8.93000e+02	2.80670e+00	3.09759e+02
894	3.13736e+02	8.94000e+02	2.80387e+00	3.10509e+02
895	3.14499e+02	8.95000e+02	2.80101e+00	3.11259e+02
896	3.15264e+02	8.96000e+02	2.79804e+00	3.12009e+02
897	3.16039e+02	8.97000e+02	2.79507e+00	3.12759e+02
898	3.16803e+02	8.98000e+02	2.79207e+00	3.13509e+02
899	3.17560e+02	8.99000e+02	2.78904e+00	3.14259e+02
900	3.18332e+02	9.00000e+02	2.78586e+00	3.15009e+02
901	3.19097e+02	9.01000e+02	2.78270e+00	3.15759e+02
902	3.19861e+02	9.02000e+02	2.77952e+00	3.16509e+02
903	3.20636e+02	9.03000e+02	2.77632e+00	3.17259e+02
904	3.21389e+02	9.04000e+02	2.77299e+00	3.18009e+02
905	3.22147e+02	9.05000e+02	2.76970e+00	3.18759e+02
906	3.22899e+02	9.06000e+02	2.76640e+00	3.19509e+02
907	3.23651e+02	9.07000e+02	2.76308e+00	3.20259e+02
908	3.24405e+02	9.08000e+02	2.75971e+00	3.21009e+02
909	3.25177e+02	9.09000e+02	2.75636e+00	3.21759e+02
910	3.25926e+02	9.10000e+02	2.75301e+00	3.22510e+02
911	3.26683e+02	9.11000e+02	2.74964e+00	3.23260e+02
912	3.27439e+02	9.12000e+02	2.74623e+00	3.24010e+02
913	3.28191e+02	9.13000e+02	2.74282e+00	3.24760e+02
914	3.28969e+02	9.14000e+02	2.73939e+00	3.25510e+02
915	3.29728e+02	9.15000e+02	2.73594e+00	3.26260e+02
916	3.30500e+02	9.16000e+02	2.73243e+00	3.27010e+02
917	3.31240e+02	9.17000e+02	2.72892e+00	3.27760e+02
918	3.32006e+02	9.18000e+02	2.72539e+00	3.28510e+02
919	3.32770e+02	9.19000e+02	2.72182e+00	3.29260e+02
920	3.33529e+02	9.20000e+02	2.71811e+00	3.30010e+02
921	3.34276e+02	9.21000e+02	2.71434e+00	3.30760e+02
922	3.35030e+02	9.22000e+02	2.71046e+00	3.31510e+02
923	3.35792e+02	9.23000e+02	2.70650e+00	3.32260e+02
924	3.36548e+02	9.24000e+02	2.70212e+00	3.33010e+02
925	3.37313e+02	9.25000e+02	2.69774e+00	3.33760e+02
926	3.38073e+02	9.26000e+02	2.69323e+00	3.34510e+02
927	3.38815e+02	9.27000e+02	2.68859e+00	3.35260e+02
928	3.39595e+02	9.28000e+02	2.68334e+00	3.36010e+02
929	3.40342e+02	9.29000e+02	2.67814e+00	3.36760e+02
930	3.41087e+02	9.30000e+02	2.67278e+00	3.37510e+02
931	3.41830e+02	9.31000e+02	2.66728e+00	3.38260e+02
932	3.42575e+02	9.32000e+02	2.66105e+00	3.39010e+02
933	3.43332e+02	9.33000e+02	2.65489e+00	3.39760e+02
934	3.44086e+02	9.34000e+02	2.64855e+00	3.40510e+02
935	3.44823e+02	9.35000e+02	2.64204e+00	3.41260e+02
936	3.45586e+02	9.36000e+02	2.63469e+00	3.42010e+02
937	3.46342e+02	9.37000e+02	2.62741e+00	3.42760e+02
938	3.47092e+02	9.38000e+02	2.61988e+00	3.43510e+02
939	3.47857e+02	9.39000e+02	2.61215e+00	3.44260e+02
940	3.48602e+02	9.40000e+02	2.60337e+00	3.45010e+02
941	3.49352e+02	9.41000e+02	2.59467e+00	3.45760e+02
942	3.50109e+02	9.42000e+02	2.58570e+00	3.46510e+02
943	3.50852e+02	9.43000e+02	2.57649e+00	3.47261e+02
944	3.51601e+02	9.44000e+02	2.56603e+00	3.48011e+02
945	3.52337e+02	9.45000e+02	2.55570e+00	3.48761e+02
946	3.53092e+02	9.46000e+02	2.54508e+00	3.49511e+02
947	3.53846e+02	9.47000e+02	2.53420e+00	3.50261e+02
948	3.54607e+02	9.48000e+02	2.52195e+00	3.51011e+02
949	3.55357e+02	9.49000e+02	2.50985e+00	3.51761e+02
950	3.56103e+02	9.50000e+02	2.49742e+00	3.52511e+02
951	3.56841e+02	9.51000e+02	2.48470e+00	3.53261e+02
952	3.57618e+02	9.52000e+02	2.47049e+00	3.54011e+02
953	3.58365e+02	9.53000e+02	2.45644e+00	3.54761e+02
954	3.59108e+02	9.54000e+02	2.44204e+00	3.55511e+02
955	3.59859e+02	9.55000e+02	2.42732e+00	3.56261e+02
956	3.60618e+02	9.56000e+02	2.41098e+00	3.57011e+02
957	3.61362e+02	9.57000e+02	2.39483e+00	3.57761e+02
958	3.62125e+02	9.58000e+02	2.37832e+00	3.58511e+02
959	3.62883e+02	9.59000e+02	2.36149e+00	3.59261e+02
960	3.63624e+02	9.60000e+02	2.34296e+00	3.60011e+02
961	3.64366e+02	9.61000e+02	2.32468e+00	3.60761e+02
962	3.65124e+02	9.62000e+02	2.30605e+00	3.61511e+02
963	3.65873e+02	9.63000e+02	2.28709e+00	3.62261e+02
964	3.66612e+02	9.64000e+02	2.26645e+00	3.63011e+02
965	3.67355e+02	9.65000e+02	2.24603e+00	3.63761e+02
966	3.68107e+02	9.66000e+02	2.22527e+00	3.64511e+02
967	3.68840e+02	9.67000e+02	2.20419e+00	3.65261e+02
968	3.69586e+02	9.68000e+02	2.18147e+00	3.66011e+02
969	3.70332e+02	9.69000e+02	2.15902e+00	3.66761e+02
970	3.71058e+02	9.70000e+02	2.13626e+00	3.67511e+02
971	3.71784e+02	9.71000e+02	2.11322e+00	3.68261e+02
972	3.72513e+02	9.72000e+02	2.08870e+00	3.69011e+02
973	3.73241e+02	9.73000e+02	2.06440e+00	3.69761e+02
974	3.73971e+02	9.74000e+02	2.03983e+00	3.70511e+02
975	3.74698e+02	9.75000e+02	2.01500e+00	3.71262e+02
976	3.75436e+02	9.76000e+02	1.98882e+00	3.72012e+02
977	3.76177e+02	9.77000e+02	1.96283e+00	3.72762e+02
978	3.76925e+02	9.78000e+02	1.93657e+00	3.73512e+02
979	3.77675e+02	9.79000e+02	1.91005e+00	3.74262e+02
980	3.78408e+02	9.80000e+02	1.88220e+00	3.75012e+02
981	3.79136e+02	9.81000e+02	1.85449e+00	3.75762e+02
982	3.79876e+02	9.82000e+02	1.82646e+00	3.76512e+02
983	3.80621e+02	9.83000e+02	1.79818e+00	3.77262e+02
984	3.81353e+02	9.84000e+02	1.76851e+00	3.78012e+02
985	3.82104e+02	9.85000e+02	1.73906e+00	3.78762e+02
986	3.82842e+02	9.86000e+02	1.70936e+00	3.79512e+02
987	3.83578e+02	9.87000e+02	1.67943e+00	3.80262e+02
988	3.84315e+02	9.88000e+02	1.64826e+00	3.81012e+02
989	3.85061e+02	9.89000e+02	1.61730e+00	3.81762e+02
990	3.85804e+02	9.90000e+02	1.58613e+00	3.82512e+02
991	3.86537e+02	9.91000e+02	1.55476e+00	3.83262e+02
992	3.87266e+02	9.92000e+02	1.52244e+00	3.84012e+02
993	3.88018e+02	9.93000e+02	1.49036e+00	3.84762e+02
994	3.88751e+02	9.94000e+02	1.45820e+00	3.85512e+02
995	3.89484e+02	9.95000e+02	1.42595e+00	3.86262e+02
996	3.90225e+02	9.96000e+02	1.39319e+00	3.87012e+02
997	3.90970e+02	9.97000e+02	1.36064e+00	3.87762e+02
998	3.91716e+02	9.98000e+02	1.32811e+00	3.88512e+02
999	3.92458e+02	9.99000e+02	1.29557e+00	3.89262e+02
1000	3.93207e+02	1.00000e+03	1.26301e+00	3.90012e+02
1001	3.93942e+02	1.00100e+03	1.23058e+00	3.90762e+02
1002	3.94676e+02	1.00200e+03	1.19825e+00	3.91512e+02
1003	3.95420e+02	1.00300e+03	1.16600e+00	3.92262e+02
1004	3.96160e+02	1.00400e+03	1.13409e+00	3.93012e+02
1005	3.96916e+02	1.00500e+03	1.10218e+00	3.93762e+02
1006	3.97643e+02	1.00600e+03	1.07037e+00	3.94512e+02
1007	3.98388e+02	1.00700e+03	1.03863e+00	3.95262e+02
1008	3.99148e+02	1.00800e+03	1.00727e+00	3.96013e+02
1009	3.99897e+02	1.00900e+03	9.75796e-01	3.96763e+02
1010	4.00648e+02	1.01000e+03	9.44380e-01	3.97513e+02
1011	4.01395e+02	1.01100e+03	9.13019e-01	3.98263e+02
1012	4.02146e+02	1.01200e+03	8.81939e-01	3.99013e+02
1013	4.02907e+02	1.01300e+03	8.50883e-01	3.99763e+02
1014	4.03657e+02	1.01400e+03	8.19951e-01	4.00513e+02
1015	4.04407e+02	1.01500e+03	7.89127e-01	4.01263e+02
1016	4.05169e+02	1.01600e+03	7.58849e-01	4.02013e+02
1017	4.05944e+02	1.01700e+03	7.28622e-01	4.02763e+02
1018	4.06717e+02	1.01800e+03	6.98660e-01	4.03513e+02
1019	4.07468e+02	1.01900e+03	6.68931e-01	4.04263e+02
1020	4.08217e+02	1.02000e+03	6.40308e-01	4.05013e+02
1021	4.08993e+02	1.02100e+03	6.11780e-01	4.05763e+02
1022	4.09763e+02	1.02200e+03	5.83722e-01	4.06513e+02
1023	4.10529e+02	1.02300e+03	5.56047e-01	4.07263e+02
1024	4.11277e+02	1.02400e+03	5.30006e-01	4.08013e+02
1025	4.12026e+02	1.02500e+03	5.03462e-01	4.08763e+02
1026	4.12775e+02	1.02600e+03	4.78272e-01	4.09513e+02
1027	4.13522e+02	1.02700e+03	4.54395e-01	4.10263e+02
1028	4.14298e+02	1.02800e+03	4.31570e-01	4.11013e+02
1029	4.15064e+02	1.02900e+03	4.08237e-01	4.11763e+02
1030	4.15826e+02	1.03000e+03	3.86027e-01	4.12513e+02
1031	4.16590e+02	1.03100e+03	3.64420e-01	4.13263e+02
1032	4.17359e+02	1.03200e+03	3.45270e-01	4.14013e+02
1033	4.18150e+02	1.03300e+03	3.25999e-01	4.14763e+02
1034	4.18922e+02	1.03400e+03	3.07679e-01	4.15513e+02
1035	4.19674e+02	1.03500e+03	2.90528e-01	4.16263e+02
1036	4.20445e+02	1.03600e+03	2.74570e-01	4.17013e+02
1037	4.21222e+02	1.03700e+03	2.58259e-01	4.17763e+02
1038	4.21977e+02	1.03800e+03	2.42438e-01	4.18513e+02
1039	4.22712e+02	1.03900e+03	2.28116e-01	4.19263e+02
1040	4.23490e+02	1.04000e+03	2.15252e-01	4.20014e+02
1041	4.24235e+02	1.04100e+03	2.01880e-01	4.20764e+02
1042	4.25012e+02	1.04200e+03	1.88949e-01	4.21514e+02
1043	4.25797e+02	1.04300e+03	1.77479e-01	4.22264e+02
1044	4.26558e+02	1.04400e+03	1.67403e-01	4.23014e+02
1045	4.27302e+02	1.04500e+03	1.57054e-01	4.23764e+02
1046	4.28075e+02	1.04600e+03	1.47140e-01	4.24514e+02
1047	4.28832e+02	1.04700e+03	1.37622e-01	4.25264e+02
1048	4.29594e+02	1.04800e+03	1.29930e-01	4.26014e+02
1049	4.30339e+02	1.04900e+03	1.21905e-01	4.26764e+02
1050	4.31091e+02	1.05000e+03	1.14195e-01	4.27514e+02
1051	4.31856e+02	1.05100e+03	1.06790e-01	4.28264e+02
1052	4.32611e+02	1.05200e+03	1.00956e-01	4.29014e+02
1053	4.33358e+02	1.05300e+03	9.48670e-02	4.29764e+02
1054	4.34102e+02	1.05400e+03	8.90667e-02	4.30514e+02
1055	4.34847e+02	1.05500e+03	8.35418e-02	4.31264e+02
1056	4.35614e+02	1.05600e+03	7.94069e-02	4.32014e+02
1057	4.36384e+02	1.05700e+03	7.50334e-02	4.32764e+02
1058	4.37150e+02	1.05800e+03	7.08872e-02	4.33514e+02
1059	4.37913e+02	1.05900e+03	6.69592e-02	4.34264e+02
1060	4.38657e+02	1.06000e+03	6.41763e-02	4.35014e+02
1061	4.39428e+02	1.06100e+03	6.11400e-02	4.35764e+02
1062	4.40202e+02	1.06200e+03	5.82477e-02	4.36514e+02
1063	4.40958e+02	1.06300e+03	5.55068e-02	4.37264e+02
1064	4.41708e+02	1.06400e+03	5.35481e-02	4.38014e+02
1065	4.42439e+02	1.06500e+03	5.14022e-02	4.38764e+02
1066	4.43200e+02	1.06600e+03	4.93427e-02	4.39514e+02
1067	4.43961e+02	1.06700e+03	4.73807e-02	4.40264e+02
1068	4.44697e+02	1.06800e+03	4.59401e-02	4.41014e+02
1069	4.45470e+02	1.06900e+03	4.44038e-02	4.41764e+02
1070	4.46225e+02	1.07000e+03	4.29608e-02	4.42514e+02
1071	4.46955e+02	1.07100e+03	4.16094e-02	4.43264e+02
1072	4.47711e+02	1.07200e+03	4.06881e-02	4.44014e+02
1073	4.48473e+02	1.07300e+03	3.96869e-02	4.44765e+02
1074	4.49202e+02	1.07400e+03	3.87362e-02	4.45515e+02
1075	4.49938e+02	1.07500e+03	3.78351e-02	4.46265e+02
1076	4.50652e+02	1.07600e+03	3.72349e-02	4.47015e+02
1077	4.51390e+02	1.07700e+03	3.65291e-02	4.47765e+02
1078	4.52140e+02	1.07800e+03	3.58382e-02	4.48515e+02
1079	4.52884e+02	1.07900e+03	3.51741e-02	4.49265e+02
1080	4.53620e+02	1.08000e+03	3.46166e-02	4.50015e+02
1081	4.54362e+02	1.08100e+03	3.40356e-02	4.50765e+02
1082	4.55149e+02	1.08200e+03	3.34691e-02	4.51515e+02
1083	4.55890e+02	1.08300e+03	3.29200e-02	4.52265e+02
1084	4.56652e+02	1.08400e+03	3.24751e-02	4.53015e+02
1085	4.57390e+02	1.08500e+03	3.20314e-02	4.53765e+02
1086	4.58155e+02	1.08600e+03	3.16265e-02	4.54515e+02
1087	4.58923e+02	1.08700e+03	3.12553e-02	4.55265e+02
1088	4.59674e+02	1.08800e+03	3.10373e-02	4.56015e+02
1089	4.60441e+02	1.08900e+03	3.08057e-02	4.56765e+02
1090	4.61196e+02	1.09000e+03	3.06024e-02	4.57515e+02
1091	4.61931e+02	1.09100e+03	3.04228e-02	4.58265e+02
1092	4.62672e+02	1.09200e+03	3.03878e-02	4.59015e+02
1093	4.63415e+02	1.09300e+03	3.03050e-02	4.59765e+02
1094	4.64136e+02	1.09400e+03	3.02308e-02	4.60515e+02
1095	4.64872e+02	1.09500e+03	3.01700e-02	4.61265e+02
1096	4.65614e+02	1.09600e+03	3.01641e-02	4.62015e+02
1097	4.66341e+02	1.09700e+03	3.01400e-02	4.62765e+02
1098	4.67078e+02	1.09800e+03	3.01129e-02	4.63515e+02
1099	4.67829e+02	1.09900e+03	3.00843e-02	4.64265e+02
1100	4.68572e+02	1.10000e+03	3.00630e-02	4.65015e+02
1101	4.69337e+02	1.10100e+03	3.00276e-02	4.65765e+02
1102	4.70069e+02	1.10200e+03	2.99869e-02	4.66515e+02
1103	4.70836e+02	1.10300e+03	2.99438e-02	4.67265e+02
1104	4.71594e+02	1.10400e+03	2.98757e-02	4.68015e+02
1105	4.72341e+02	1.10500e+03	2.98171e-02	4.68766e+02
1106	4.73107e+02	1.10600e+03	2.97570e-02	4.69516e+02
1107	4.73835e+02	1.10700e+03	2.96943e-02	4.70266e+02
1108	4.74563e+02	1.10800e+03	2.96223e-02	4.71016e+02
1109	4.75298e+02	1.10900e+03	2.95497e-02	4.71766e+02
1110	4.76037e+02	1.11000e+03	2.94758e-02	4.72516e+02
1111	4.76780e+02	1.11100e+03	2.94016e-02	4.73266e+02
1112	4.77510e+02	1.11200e+03	2.93240e-02	4.74016e+02
1113	4.78245e+02	1.11300e+03	2.92578e-02	4.74766e+02
1114	4.78983e+02	1.11400e+03	2.92014e-02	4.75516e+02
1115	4.79721e+02	1.11500e+03	2.91520e-02	4.76266e+02
1116	4.80452e+02	1.11600e+03	2.91398e-02	4.77016e+02
1117	4.81223e+02	1.11700e+03	2.91362e-02	4.77766e+02
1118	4.81987e+02	1.11800e+03	2.91542e-02	4.78516e+02
1119	4.82763e+02	1.11900e+03	2.91893e-02	4.79266e+02
1120	4.83512e+02	1.12000e+03	2.92964e-02	4.80016e+02
1121	4.84263e+02	1.12100e+03	2.93860e-02	4.80766e+02
1122	4.85013e+02	1.12200e+03	2.94710e-02	4.81516e+02
1123	4.85740e+02	1.12300e+03	2.95503e-02	4.82266e+02
1124	4.86482e+02	1.12400e+03	2.96254e-02	4.83016e+02
1125	4.87195e+02	1.12500e+03	2.96545e-02	4.83766e+02
1126	4.87936e+02	1.12600e+03	2.96507e-02	4.84516e+02
1127	4.88666e+02	1.12700e+03	2.96270e-02	4.85266e+02
1128	4.89402e+02	1.12800e+03	2.94905e-02	4.86016e+02
1129	4.90140e+02	1.12900e+03	2.93909e-02	4.86766e+02
1130	4.90865e+02	1.13000e+03	2.92963e-02	4.87516e+02
1131	4.91603e+02	1.13100e+03	2.92033e-02	4.88266e+02
1132	4.92338e+02	1.13200e+03	2.90916e-02	4.89016e+02
1133	4.93080e+02	1.13300e+03	2.90121e-02	4.89766e+02
1134	4.93819e+02	1.13400e+03	2.89512e-02	4.90516e+02
1135	4.94565e+02	1.13500e+03	2.89006e-02	4.91266e+02
1136	4.95299e+02	1.13600e+03	2.89065e-02	4.92016e+02
1137	4.96036e+02	1.13700e+03	2.88935e-02	4.92766e+02
1138	4.96793e+02	1.13800e+03	2.88802e-02	4.93517e+02
1139	4.97502e+02	1.13900e+03	2.88684e-02	4.94267e+02
1140	4.98232e+02	1.14000e+03	2.88666e-02	4.95017e+02
1141	4.98947e+02	1.14100e+03	2.88463e-02	4.95767e+02
1142	4.99646e+02	1.14200e+03	2.88131e-02	4.96517e+02
1143	5.00363e+02	1.14300e+03	2.87711e-02	4.97267e+02
1144	5.01087e+02	1.14400e+03	2.86887e-02	4.98017e+02
1145	5.01853e+02	1.14500e+03	2.86095e-02	4.98767e+02
1146	5.02551e+02	1.14600e+03	2.85211e-02	4.99517e+02
1147	5.03256e+02	1.14700e+03	2.84258e-02	5.00267e+02
1148	5.03964e+02	1.14800e+03	2.83050e-02	5.01017e+02
1149	5.04676e+02	1.14900e+03	2.82187e-02	5.01767e+02
1150	5.05404e+02	1.15000e+03	2.81628e-02	5.02517e+02
1151	5.06132e+02	1.15100e+03	2.81284e-02	5.03267e+02
1152	5.06846e+02	1.15200e+03	2.81762e-02	5.04017e+02
1153	5.07568e+02	1.15300e+03	2.82361e-02	5.04767e+02
1154	5.08324e+02	1.15400e+03	2.83243e-02	5.05517e+02
1155	5.09050e+02	1.15500e+03	2.84327e-02	5.06267e+02
1156	5.09753e+02	1.15600e+03	2.86623e-02	5.07017e+02
1157	5.10475e+02	1.15700e+03	2.88444e-02	5.07767e+02
1158	5.11186e+02	1.15800e+03	2.90213e-02	5.08517e+02
1159	5.11913e+02	1.15900e+03	2.91983e-02	5.09267e+02
1160	5.12629e+02	1.16000e+03	2.93765e-02	5.10017e+02
1161	5.13358e+02	1.16100e+03	2.95201e-02	5.10767e+02
1162	5.14076e+02	1.16200e+03	2.96287e-02	5.11517e+02
1163	5.14801e+02	1.16300e+03	2.97117e-02	5.12267e+02
1164	5.15526e+02	1.16400e+03	2.96692e-02	5.13017e+02
1165	5.16275e+02	1.16500e+03	2.96118e-02	5.13767e+02
1166	5.17037e+02	1.16600e+03	2.95071e-02	5.14517e+02
1167	5.17788e+02	1.16700e+03	2.93688e-02	5.15267e+02
1168	5.18516e+02	1.16800e+03	2.90610e-02	5.16017e+02
1169	5.19254e+02	1.16900e+03	2.88165e-02	5.16767e+02
1170	5.19997e+02	1.17000e+03	2.85844e-02	5.17518e+02
1171	5.20746e+02	1.17100e+03	2.83571e-02	5.18268e+02
1172	5.21495e+02	1.17200e+03	2.81311e-02	5.19018e+02
1173	5.22243e+02	1.17300e+03	2.79627e-02	5.19768e+02
1174	5.22983e+02	1.17400e+03	2.78367e-02	5.20518e+02
1175	5.23723e+02	1.17500e+03	2.77369e-02	5.21268e+02
1176	5.24442e+02	1.17600e+03	2.77850e-02	5.22018e+02
1177	5.25169e+02	1.17700e+03	2.77976e-02	5.22768e+02
1178	5.25902e+02	1.17800e+03	2.78214e-02	5.23518e+02
1179	5.26640e+02	1.17900e+03	2.78579e-02	5.24268e+02
1180	5.27379e+02	1.18000e+03	2.79696e-02	5.25018e+02
1181	5.28102e+02	1.18100e+03	2.80398e-02	5.25768e+02
1182	5.28822e+02	1.18200e+03	2.80974e-02	5.26518e+02
1183	5.29561e+02	1.18300e+03	2.81506e-02	5.27268e+02
1184	5.30298e+02	1.18400e+03	2.81858e-02	5.28018e+02
1185	5.31046e+02	1.18500e+03	2.82182e-02	5.28768e+02
1186	5.31788e+02	1.18600e+03	2.82454e-02	5.29518e+02
1187	5.32505e+02	1.18700e+03	2.82694e-02	5.30268e+02
1188	5.33241e+02	1.18800e+03	2.82724e-02	5.31018e+02
1189	5.33994e+02	1.18900e+03	2.82917e-02	5.31768e+02
1190	5.34733e+02	1.19000e+03	2.83169e-02	5.32518e+02
1191	5.35477e+02	1.19100e+03	2.83445e-02	5.33268e+02
1192	5.36219e+02	1.19200e+03	2.83847e-02	5.34018e+02
1193	5.36985e+02	1.19300e+03	2.84241e-02	5.34768e+02
1194	5.37730e+02	1.19400e+03	2.84696e-02	5.35518e+02
1195	5.38462e+02	1.19500e+03	2.85207e-02	5.36268e+02
1196	5.39210e+02	1.19600e+03	2.85867e-02	5.37018e+02
1197	5.39955e+02	1.19700e+03	2.86413e-02	5.37768e+02
1198	5.40713e+02	1.19800e+03	2.86826e-02	5.38518e+02
1199	5.41431e+02	1.19900e+03	2.87124e-02	5.39268e+02
1200	5.42164e+02	1.20000e+03	2.87056e-02	5.40018e+02
1201	5.42893e+02	1.20100e+03	2.86798e-02	5.40768e+02
1202	5.43625e+02	1.20200e+03	2.86350e-02	5.41518e+02
1203	5.44344e+02	1.20300e+03	2.85805e-02	5.42268e+02
1204	5.45084e+02	1.20400e+03	2.84711e-02	5.43019e+02
1205	5.45854e+02	1.20500e+03	2.84095e-02	5.43769e+02
1206	5.46587e+02	1.20600e+03	2.83665e-02	5.44519e+02
1207	5.47325e+02	1.20700e+03	2.83318e-02	5.45269e+02
1208	5.48076e+02	1.20800e+03	2.83390e-02	5.46019e+02
1209	5.48807e+02	1.20900e+03	2.83370e-02	5.46769e+02
1210	5.49568e+02	1.21000e+03	2.83435e-02	5.47519e+02
1211	5.50340e+02	1.21100e+03	2.83594e-02	5.48269e+02
1212	5.51083e+02	1.21200e+03	2.84208e-02	5.49019e+02
1213	5.51808e+02	1.21300e+03	2.84764e-02	5.49769e+02
1214	5.52543e+02	1.21400e+03	2.85355e-02	5.50519e+02
1215	5.53303e+02	1.21500e+03	2.85960e-02	5.51269e+02
1216	5.54065e+02	1.21600e+03	2.86690e-02	5.52019e+02
1217	5.54799e+02	1.21700e+03	2.87090e-02	5.52769e+02
1218	5.55544e+02	1.21800e+03	2.87232e-02	5.53519e+02
1219	5.56297e+02	1.21900e+03	2.87206e-02	5.54269e+02
1220	5.57039e+02	1.22000e+03	2.86462e-02	5.55019e+02
1221	5.57825e+02	1.22100e+03	2.85853e-02	5.55769e+02
1222	5.58551e+02	1.22200e+03	2.85238e-02	5.56519e+02
1223	5.59248e+02	1.22300e+03	2.84631e-02	5.57269e+02
1224	5.59967e+02	1.22400e+03	2.83774e-02	5.58019e+02
1225	5.60669e+02	1.22500e+03	2.83261e-02	5.58769e+02
1226	5.61389e+02	1.22600e+03	2.82861e-02	5.59519e+02
1227	5.62157e+02	1.22700e+03	2.82488e-02	5.60269e+02
1228	5.62925e+02	1.22800e+03	2.82498e-02	5.61019e+02
1229	5.63654e+02	1.22900e+03	2.82242e-02	5.61769e+02
1230	5.64379e+02	1.23000e+03	2.81918e-02	5.62519e+02
1231	5.65125e+02	1.23100e+03	2.81579e-02	5.63269e+02
1232	5.65885e+02	1.23200e+03	2.81098e-02	5.64019e+02
1233	5.66667e+02	1.23300e+03	2.80650e-02	5.64769e+02
1234	5.67378e+02	1.23400e+03	2.80165e-02	5.65519e+02
1235	5.68140e+02	1.23500e+03	2.79639e-02	5.66269e+02
1236	5.68877e+02	1.23600e+03	2.78989e-02	5.67020e+02
1237	5.69640e+02	1.23700e+03	2.78413e-02	5.67770e+02
1238	5.70361e+02	1.23800e+03	2.77927e-02	5.68520e+02
1239	5.71062e+02	1.23900e+03	2.77505e-02	5.69270e+02
1240	5.71800e+02	1.24000e+03	2.77243e-02	5.70020e+02
1241	5.72583e+02	1.24100e+03	2.77122e-02	5.70770e+02
1242	5.73367e+02	1.24200e+03	2.77150e-02	5.71520e+02
1243	5.74178e+02	1.24300e+03	2.77282e-02	5.72270e+02
1244	5.74950e+02	1.24400e+03	2.78063e-02	5.73020e+02
1245	5.75679e+02	1.24500e+03	2.78790e-02	5.73770e+02
1246	5.76388e+02	1.24600e+03	2.79682e-02	5.74520e+02
1247	5.77143e+02	1.24700e+03	2.80706e-02	5.75270e+02
1248	5.77874e+02	1.24800e+03	2.82182e-02	5.76020e+02
1249	5.78757e+02	1.24900e+03	2.83227e-02	5.76770e+02
1250	5.79516e+02	1.25000e+03	2.83860e-02	5.77520e+02
1251	5.80235e+02	1.25100e+03	2.84178e-02	5.78270e+02
1252	5.80987e+02	1.25200e+03	2.83500e-02	5.79020e+02
1253	5.81763e+02	1.25300e+03	2.82589e-02	5.79770e+02
1254	5.82544e+02	1.25400e+03	2.81383e-02	5.80520e+02
1255	5.83301e+02	1.25500e+03	2.80022e-02	5.81270e+02
1256	5.84126e+02	1.25600e+03	2.77447e-02	5.82020e+02
1257	5.84892e+02	1.25700e+03	2.75915e-02	5.82770e+02
1258	5.85655e+02	1.25800e+03	2.74922e-02	5.83520e+02
1259	5.86368e+02	1.25900e+03	2.74242e-02	5.84270e+02
1260	5.87107e+02	1.26000e+03	2.74932e-02	5.85020e+02
1261	5.87900e+02	1.26100e+03	2.75518e-02	5.85770e+02
1262	5.88652e+02	1.26200e+03	2.76255e-02	5.86520e+02
1263	5.89440e+02	1.26300e+03	2.77076e-02	5.87270e+02
1264	5.90125e+02	1.26400e+03	2.78771e-02	5.88020e+02
1265	5.90989e+02	1.26500e+03	2.79602e-02	5.88770e+02
1266	5.91778e+02	1.26600e+03	2.80028e-02	5.89520e+02
1267	5.92594e+02	1.26700e+03	2.80262e-02	5.90270e+02
1268	5.93284e+02	1.26800e+03	2.79464e-02	5.91021e+02
1269	5.93989e+02	1.26900e+03	2.78908e-02	5.91771e+02
1270	5.94687e+02	1.27000e+03	2.78320e-02	5.92521e+02
1271	5.95377e+02	1.27100e+03	2.77713e-02	5.93271e+02
1272	5.96087e+02	1.27200e+03	2.76773e-02	5.94021e+02
1273	5.96785e+02	1.27300e+03	2.76252e-02	5.94771e+02
1274	5.97440e+02	1.27400e+03	2.75942e-02	5.95521e+02
1275	5.98158e+02	1.27500e+03	2.75737e-02	5.96271e+02
1276	5.98914e+02	1.27600e+03	2.76108e-02	5.97021e+02
1277	5.99677e+02	1.27700e+03	2.76265e-02	5.97771e+02
1278	6.00404e+02	1.27800e+03	2.76390e-02	5.98521e+02
1279	6.01098e+02	1.27900e+03	2.76501e-02	5.99271e+02
1280	6.01813e+02	1.28000e+03	2.76630e-02	6.00021e+02
1281	6.02539e+02	1.28100e+03	2.76549e-02	6.00771e+02
1282	6.03263e+02	1.28200e+03	2.76326e-02	6.01521e+02
1283	6.03985e+02	1.28300e+03	2.76040e-02	6.02271e+02
1284	6.04685e+02	1.28400e+03	2.75434e-02	6.03021e+02
1285	6.05410e+02	1.28500e+03	2.75064e-02	6.03771e+02
1286	6.06144e+02	1.28600e+03	2.74808e-02	6.04521e+02
1287	6.06890e+02	1.28700e+03	2.74621e-02	6.05271e+02
1288	6.07625e+02	1.28800e+03	2.74725e-02	6.06021e+02
1289	6.08364e+02	1.28900e+03	2.74891e-02	6.06771e+02
1290	6.09105e+02	1.29000e+03	2.75162e-02	6.07521e+02
1291	6.09829e+02	1.29100e+03	2.75503e-02	6.08271e+02
1292	6.10576e+02	1.29200e+03	2.76273e-02	6.09021e+02
1293	6.11416e+02	1.29300e+03	2.76836e-02	6.09771e+02
1294	6.12251e+02	1.29400e+03	2.77340e-02	6.10521e+02
1295	6.13055e+02	1.29500e+03	2.77821e-02	6.11271e+02
1296	6.13878e+02	1.29600e+03	2.78193e-02	6.12021e+02
1297	6.14830e+02	1.29700e+03	2.78461e-02	6.12771e+02
1298	6.15595e+02	1.29800e+03	2.78601e-02	6.13521e+02
1299	6.16332e+02	1.29900e+03	2.78652e-02	6.14271e+02
1300	6.17037e+02	1.30000e+03	2.78293e-02	6.15021e+02
1301	6.17722e+02	1.30100e+03	2.78031e-02	6.15772e+02
1302	6.18417e+02	1.30200e+03	2.77737e-02	6.16522e+02
1303	6.19162e+02	1.30300e+03	2.77412e-02	6.17272e+02
1304	6.19922e+02	1.30400e+03	2.76898e-02	6.18022e+02
1305	6.20676e+02	1.30500e+03	2.76527e-02	6.18772e+02
1306	6.21411e+02	1.30600e+03	2.76202e-02	6.19522e+02
1307	6.22119e+02	1.30700e+03	2.75896e-02	6.20272e+02
1308	6.22827e+02	1.30800e+03	2.75718e-02	6.21022e+02
1309	6.23576e+02	1.30900e+03	2.75538e-02	6.21772e+02
1310	6.24320e+02	1.31000e+03	2.75411e-02	6.22522e+02
1311	6.25043e+02	1.31100e+03	2.75334e-02	6.23272e+02
1312	6.25770e+02	1.31200e+03	2.75503e-02	6.24022e+02
1313	6.26541e+02	1.31300e+03	2.75703e-02	6.24772e+02
1314	6.27311e+02	1.31400e+03	2.75983e-02	6.25522e+02
1315	6.28060e+02	1.31500e+03	2.76312e-02	6.26272e+02
1316	6.28838e+02	1.31600e+03	2.76894e-02	6.27022e+02
1317	6.29626e+02	1.31700e+03	2.77306e-02	6.27772e+02
1318	6.30358e+02	1.31800e+03	2.77630e-02	6.28522e+02
1319	6.31100e+02	1.31900e+03	2.77898e-02	6.29272e+02
1320	6.31819e+02	1.32000e+03	2.77919e-02	6.30022e+02
1321	6.32566e+02	1.32100e+03	2.77839e-02	6.30772e+02
1322	6.33371e+02	1.32200e+03	2.77608e-02	6.31522e+02
1323	6.34210e+02	1.32300e+03	2.77278e-02	6.32272e+02
1324	6.35021e+02	1.32400e+03	2.76492e-02	6.33022e+02
1325	6.35681e+02	1.32500e+03	2.75931e-02	6.33772e+02
1326	6.36465e+02	1.32600e+03	2.75438e-02	6.34522e+02
1327	6.37111e+02	1.32700e+03	2.74971e-02	6.35272e+02
1328	6.37805e+02	1.32800e+03	2.74555e-02	6.36022e+02
1329	6.38612e+02	1.32900e+03	2.74265e-02	6.36772e+02
1330	6.39415e+02	1.33000e+03	2.74098e-02	6.37522e+02
1331	6.40151e+02	1.33100e+03	2.74011e-02	6.38272e+02
1332	6.41313e+02	1.33200e+03	2.74339e-02	6.39022e+02
1333	6.42320e+02	1.33300e+03	2.74596e-02	6.39773e+02
1334	6.42937e+02	1.33400e+03	2.74913e-02	6.40523e+02
1335	6.43708e+02	1.33500e+03	2.75283e-02	6.41273e+02
1336	6.44400e+02	1.33600e+03	2.75950e-02	6.42023e+02
1337	6.45145e+02	1.33700e+03	2.76491e-02	6.42773e+02
1338	6.45857e+02	1.33800e+03	2.76993e-02	6.43523e+02
1339	6.46689e+02	1.33900e+03	2.77476e-02	6.44273e+02
1340	6.47523e+02	1.34000e+03	2.77922e-02	6.45023e+02
1341	6.50062e+02	1.34100e+03	2.78300e-02	6.45773e+02
1342	6.51885e+02	1.34200e+03	2.78620e-02	6.46523e+02
1343	6.52349e+02	1.34300e+03	2.78903e-02	6.47273e+02
1344	6.53080e+02	1.34400e+03	2.78987e-02	6.48023e+02
1345	6.53884e+02	1.34500e+03	2.79172e-02	6.48773e+02
1346	6.54687e+02	1.34600e+03	2.79385e-02	6.49523e+02
1347	6.55472e+02	1.34700e+03	2.79595e-02	6.50273e+02
1348	6.56332e+02	1.34800e+03	2.79710e-02	6.51023e+02
1349	6.57020e+02	1.34900e+03	2.79743e-02	6.51773e+02
1350	6.57740e+02	1.35000e+03	2.79646e-02	6.52523e+02
1351	6.58600e+02	1.35100e+03	2.79458e-02	6.53273e+02
1352	6.59360e+02	1.35200e+03	2.78982e-02	6.54023e+02
1353	6.60010e+02	1.35300e+03	2.78530e-02	6.54773e+02
1354	6.60854e+02	1.35400e+03	2.77981e-02	6.55523e+02
1355	6.61617e+02	1.35500e+03	2.77335e-02	6.56273e+02
1356	6.62465e+02	1.35600e+03	2.76208e-02	6.57023e+02
1357	6.63224e+02	1.35700e+03	2.75199e-02	6.57773e+02
1358	6.64162e+02	1.35800e+03	2.74342e-02	6.58523e+02
1359	6.64999e+02	1.35900e+03	2.73661e-02	6.59273e+02
1360	6.65720e+02	1.36000e+03	2.73436e-02	6.60023e+02
1361	6.66401e+02	1.36100e+03	2.73655e-02	6.60773e+02
1362	6.66933e+02	1.36200e+03	2.74219e-02	6.61523e+02
1363	6.67729e+02	1.36300e+03	2.74968e-02	6.62273e+02
1364	6.68454e+02	1.36400e+03	2.76964e-02	6.63023e+02
1365	6.69098e+02	1.36500e+03	2.78255e-02	6.63773e+02
1366	6.69848e+02	1.36600e+03	2.79373e-02	6.64523e+02
1367	6.70578e+02	1.36700e+03	2.80450e-02	6.65274e+02
1368	6.71310e+02	1.36800e+03	2.81249e-02	6.66024e+02
1369	6.71971e+02	1.36900e+03	2.81918e-02	6.66774e+02
1370	6.72692e+02	1.37000e+03	2.82330e-02	6.67524e+02
1371	6.73527e+02	1.37100e+03	2.82541e-02	6.68274e+02
1372	6.74276e+02	1.37200e+03	2.81795e-02	6.69024e+02
1373	6.75014e+02	1.37300e+03	2.81046e-02	6.69774e+02
1374	6.75643e+02	1.37400e+03	2.80117e-02	6.70524e+02
1375	6.76345e+02	1.37500e+03	2.79072e-02	6.71274e+02
1376	6.77125e+02	1.37600e+03	2.77351e-02	6.72024e+02
1377	6.77828e+02	1.37700e+03	2.76312e-02	6.72774e+02
1378	6.78538e+02	1.37800e+03	2.75626e-02	6.73524e+02
1379	6.79279e+02	1.37900e+03	2.75128e-02	6.74274e+02
1380	6.79980e+02	1.38000e+03	2.75451e-02	6.75024e+02
1381	6.80712e+02	1.38100e+03	2.75628e-02	6.75774e+02
1382	6.81460e+02	1.38200e+03	2.75873e-02	6.76524e+02
1383	6.82207e+02	1.38300e+03	2.76181e-02	6.77274e+02
1384	6.82937e+02	1.38400e+03	2.76930e-02	6.78024e+02
1385	6.83676e+02	1.38500e+03	2.77219e-02	6.78774e+02
1386	6.84375e+02	1.38600e+03	2.77233e-02	6.79524e+02
1387	6.85194e+02	1.38700e+03	2.77071e-02	6.80274e+02
1388	6.85637e+02	1.38800e+03	2.76143e-02	6.81024e+02
1389	6.85923e+02	1.38900e+03	2.75313e-02	6.81774e+02
1390	6.86338e+02	1.39000e+03	2.74492e-02	6.82524e+02
1391	6.86891e+02	1.39100e+03	2.73706e-02	6.83274e+02
1392	6.87507e+02	1.39200e+03	2.72873e-02	6.84024e+02
1393	6.87917e+02	1.39300e+03	2.72599e-02	6.84774e+02
1394	6.88467e+02	1.39400e+03	2.72592e-02	6.85524e+02
1395	6.88973e+02	1.39500e+03	2.72691e-02	6.86274e+02
1396	6.89241e+02	1.39600e+03	2.73742e-02	6.87024e+02
1397	6.89629e+02	1.39700e+03	2.74212e-02	6.87774e+02
1398	6.90069e+02	1.39800e+03	2.74503e-02	6.88524e+02
1399	6.90473e+02	1.39900e+03	2.74724e-02	6.89275e+02
1400	6.90886e+02	1.40000e+03	2.74596e-02	6.90025e+02
1401	6.91296e+02	1.40100e+03	2.74390e-02	6.90775e+02
1402	6.91695e+02	1.40200e+03	2.74019e-02	6.91525e+02
1403	6.92068e+02	1.40300e+03	2.73548e-02	6.92275e+02
1404	6.92460e+02	1.40400e+03	2.72718e-02	6.93025e+02
1405	6.92837e+02	1.40500e+03	2.72311e-02	6.93775e+02
1406	6.93240e+02	1.40600e+03	2.72228e-02	6.94525e+02
1407	6.93638e+02	1.40700e+03	2.72361e-02	6.95275e+02
1408	6.94184e+02	1.40800e+03	2.73217e-02	6.96025e+02
1409	6.94596e+02	1.40900e+03	2.74093e-02	6.96775e+02
1410	6.94944e+02	1.41000e+03	2.75104e-02	6.97525e+02
1411	6.95245e+02	1.41100e+03	2.76189e-02	6.98275e+02
1412	6.95517e+02	1.41200e+03	2.77834e-02	6.99025e+02
1413	6.95753e+02	1.41300e+03	2.78853e-02	6.99775e+02
1414	6.95845e+02	1.41400e+03	2.79517e-02	7.00000e+02