File: Experiments/TGA/TUBS/tga_nonisotherm/tga_dynamic_n2_dyn60_powder_6mg_r3.txt
index	ts	t	weight	tr
[#]	[°C]	[s]	[mg]	[°C]
643	1.30860e+02	6.43000e+02	6.09419e+00	1.33000e+02
644	1.31886e+02	6.44000e+02	6.09413e+00	1.34000e+02
645	1.32900e+02	6.45000e+02	6.09406e+00	1.35000e+02
646	1.33926e+02	6.46000e+02	6.09398e+00	1.36000e+02
647	1.34961e+02	6.47000e+02	6.09390e+00	1.37000e+02
648	1.35970e+02	6.48000e+02	6.09382e+00	1.38000e+02
649	1.37010e+02	6.49000e+02	6.09373e+00	1.39000e+02
650	1.38034e+02	6.50000e+02	6.09364e+00	1.40000e+02
651	1.39067e+02	6.51000e+02	6.09353e+00	1.41000e+02
652	1.40081e+02	6.52000e+02	6.09341e+00	1.42000e+02
653	1.41101e+02	6.53000e+02	6.09328e+00	1.43000e+02
654	1.42124e+02	6.54000e+02	6.09313e+00	1.44000e+02
655	1.43134e+02	6.55000e+02	6.09297e+00	1.45000e+02
656	1.44175e+02	6.56000e+02	6.09274e+00	1.46000e+02
657	1.45190e+02	6.57000e+02	6.09251e+00	1.47000e+02
658	1.46201e+02	6.58000e+02	6.09224e+00	1.48000e+02
659	1.47237e+02	6.59000e+02	6.09196e+00	1.49000e+02
660	1.48255e+02	6.60000e+02	6.09157e+00	1.50000e+02
661	1.49268e+02	6.61000e+02	6.09119e+00	1.51000e+02
662	1.50290e+02	6.62000e+02	6.09079e+00	1.52000e+02
663	1.51311e+02	6.63000e+02	6.09036e+00	1.53000e+02
664	1.52328e+02	6.64000e+02	6.08983e+00	1.54000e+02
665	1.53348e+02	6.65000e+02	6.08930e+00	1.55000e+02
666	1.54365e+02	6.66000e+02	6.08876e+00	1.56000e+02
667	1.55377e+02	6.67000e+02	6.08820e+00	1.57000e+02
668	1.56399e+02	6.68000e+02	6.08754e+00	1.58000e+02
669	1.57413e+02	6.69000e+02	6.08689e+00	1.59000e+02
670	1.58432e+02	6.70000e+02	6.08624e+00	1.60000e+02
671	1.59442e+02	6.71000e+02	6.08557e+00	1.61000e+02
672	1.60455e+02	6.72000e+02	6.08482e+00	1.62000e+02
673	1.61473e+02	6.73000e+02	6.08408e+00	1.63000e+02
674	1.62492e+02	6.74000e+02	6.08332e+00	1.64000e+02
675	1.63494e+02	6.75000e+02	6.08254e+00	1.65000e+02
676	1.64501e+02	6.76000e+02	6.08168e+00	1.66000e+02
677	1.65522e+02	6.77000e+02	6.08083e+00	1.67000e+02
678	1.66542e+02	6.78000e+02	6.07995e+00	1.68000e+02
679	1.67554e+02	6.79000e+02	6.07905e+00	1.69000e+02
680	1.68557e+02	6.80000e+02	6.07803e+00	1.70000e+02
681	1.69569e+02	6.81000e+02	6.07702e+00	1.71000e+02
682	1.70591e+02	6.82000e+02	6.07598e+00	1.72000e+02
683	1.71601e+02	6.83000e+02	6.07490e+00	1.73000e+02
684	1.72599e+02	6.84000e+02	6.07367e+00	1.74000e+02
685	1.73605e+02	6.85000e+02	6.07244e+00	1.75000e+02
686	1.74628e+02	6.86000e+02	6.07116e+00	1.76000e+02
687	1.75639e+02	6.87000e+02	6.06983e+00	1.77000e+02
688	1.76646e+02	6.88000e+02	6.06825e+00	1.78000e+02
689	1.77668e+02	6.89000e+02	6.06668e+00	1.79000e+02
690	1.78680e+02	6.90000e+02	6.06502e+00	1.80000e+02
691	1.79684e+02	6.91000e+02	6.06330e+00	1.81000e+02
692	1.80698e+02	6.92000e+02	6.06122e+00	1.82000e+02
693	1.81704e+02	6.93000e+02	6.05915e+00	1.83000e+02
694	1.82720e+02	6.94000e+02	6.05699e+00	1.84000e+02
695	1.83714e+02	6.95000e+02	6.05472e+00	1.85000e+02
696	1.84728e+02	6.96000e+02	6.05199e+00	1.86000e+02
697	1.85739e+02	6.97000e+02	6.04927e+00	1.87000e+02
698	1.86736e+02	6.98000e+02	6.04642e+00	1.88000e+02
699	1.87764e+02	6.99000e+02	6.04345e+00	1.89000e+02
700	1.88754e+02	7.00000e+02	6.03987e+00	1.90000e+02
701	1.89769e+02	7.01000e+02	6.03635e+00	1.91000e+02
702	1.90769e+02	7.02000e+02	6.03269e+00	1.92000e+02
703	1.91768e+02	7.03000e+02	6.02889e+00	1.93000e+02
704	1.92765e+02	7.04000e+02	6.02443e+00	1.94000e+02
705	1.93779e+02	7.05000e+02	6.02005e+00	1.95000e+02
706	1.94775e+02	7.06000e+02	6.01555e+00	1.96000e+02
707	1.95782e+02	7.07000e+02	6.01091e+00	1.97000e+02
708	1.96786e+02	7.08000e+02	6.00565e+00	1.98000e+02
709	1.97780e+02	7.09000e+02	6.00049e+00	1.99000e+02
710	1.98804e+02	7.10000e+02	5.99524e+00	2.00000e+02
711	1.99800e+02	7.11000e+02	5.98989e+00	2.01000e+02
712	2.00803e+02	7.12000e+02	5.98404e+00	2.02000e+02
713	2.01833e+02	7.13000e+02	5.97832e+00	2.03000e+02
714	2.02812e+02	7.14000e+02	5.97256e+00	2.04000e+02
715	2.03803e+02	7.15000e+02	5.96675e+00	2.05000e+02
716	2.04819e+02	7.16000e+02	5.96070e+00	2.06000e+02
717	2.05895e+02	7.17000e+02	5.95477e+00	2.07000e+02
718	2.06937e+02	7.18000e+02	5.94887e+00	2.08000e+02
719	2.07996e+02	7.19000e+02	5.94300e+00	2.09000e+02
720	2.08996e+02	7.20000e+02	5.93721e+00	2.10000e+02
721	2.10018e+02	7.21000e+02	5.93151e+00	2.11000e+02
722	2.11027e+02	7.22000e+02	5.92592e+00	2.12000e+02
723	2.12066e+02	7.23000e+02	5.92043e+00	2.13000e+02
724	2.13056e+02	7.24000e+02	5.91538e+00	2.14000e+02
725	2.14062e+02	7.25000e+02	5.91037e+00	2.15000e+02
726	2.15082e+02	7.26000e+02	5.90552e+00	2.16000e+02
727	2.16093e+02	7.27000e+02	5.90082e+00	2.17000e+02
728	2.17108e+02	7.28000e+02	5.89683e+00	2.18000e+02
729	2.18113e+02	7.29000e+02	5.89278e+00	2.19000e+02
730	2.19137e+02	7.30000e+02	5.88891e+00	2.20000e+02
731	2.20150e+02	7.31000e+02	5.88519e+00	2.21000e+02
732	2.21170e+02	7.32000e+02	5.88226e+00	2.22000e+02
733	2.22181e+02	7.33000e+02	5.87919e+00	2.23000e+02
734	2.23205e+02	7.34000e+02	5.87626e+00	2.24000e+02
735	2.24226e+02	7.35000e+02	5.87346e+00	2.25000e+02
736	2.25227e+02	7.36000e+02	5.87132e+00	2.26000e+02
737	2.26234e+02	7.37000e+02	5.86903e+00	2.27000e+02
738	2.27253e+02	7.38000e+02	5.86682e+00	2.28000e+02
739	2.28282e+02	7.39000e+02	5.86468e+00	2.29000e+02
740	2.29284e+02	7.40000e+02	5.86298e+00	2.30000e+02
741	2.30301e+02	7.41000e+02	5.86116e+00	2.31000e+02
742	2.31315e+02	7.42000e+02	5.85938e+00	2.32000e+02
743	2.32328e+02	7.43000e+02	5.85764e+00	2.33000e+02
744	2.33333e+02	7.44000e+02	5.85612e+00	2.34000e+02
745	2.34356e+02	7.45000e+02	5.85454e+00	2.35000e+02
746	2.35393e+02	7.46000e+02	5.85296e+00	2.36000e+02
747	2.36445e+02	7.47000e+02	5.85140e+00	2.37000e+02
748	2.37494e+02	7.48000e+02	5.84994e+00	2.38000e+02
749	2.38510e+02	7.49000e+02	5.84844e+00	2.39000e+02
750	2.39502e+02	7.50000e+02	5.84694e+00	2.40000e+02
751	2.40489e+02	7.51000e+02	5.84544e+00	2.41000e+02
752	2.41497e+02	7.52000e+02	5.84395e+00	2.42000e+02
753	2.42511e+02	7.53000e+02	5.84246e+00	2.43000e+02
754	2.43546e+02	7.54000e+02	5.84095e+00	2.44000e+02
755	2.44598e+02	7.55000e+02	5.83945e+00	2.45000e+02
756	2.45620e+02	7.56000e+02	5.83792e+00	2.46000e+02
757	2.46638e+02	7.57000e+02	5.83640e+00	2.47000e+02
758	2.47651e+02	7.58000e+02	5.83488e+00	2.48000e+02
759	2.48685e+02	7.59000e+02	5.83336e+00	2.49000e+02
760	2.49699e+02	7.60000e+02	5.83182e+00	2.50000e+02
761	2.50700e+02	7.61000e+02	5.83030e+00	2.51000e+02
762	2.51745e+02	7.62000e+02	5.82878e+00	2.52000e+02
763	2.52770e+02	7.63000e+02	5.82727e+00	2.53000e+02
764	2.53847e+02	7.64000e+02	5.82578e+00	2.54000e+02
765	2.54897e+02	7.65000e+02	5.82429e+00	2.55000e+02
766	2.55895e+02	7.66000e+02	5.82281e+00	2.56000e+02
767	2.56938e+02	7.67000e+02	5.82134e+00	2.57000e+02
768	2.57958e+02	7.68000e+02	5.81992e+00	2.58000e+02
769	2.59005e+02	7.69000e+02	5.81849e+00	2.59000e+02
770	2.60039e+02	7.70000e+02	5.81708e+00	2.60000e+02
771	2.61116e+02	7.71000e+02	5.81568e+00	2.61000e+02
772	2.62194e+02	7.72000e+02	5.81434e+00	2.62000e+02
773	2.63241e+02	7.73000e+02	5.81298e+00	2.63000e+02
774	2.64270e+02	7.74000e+02	5.81164e+00	2.64000e+02
775	2.65275e+02	7.75000e+02	5.81030e+00	2.65000e+02
776	2.66274e+02	7.76000e+02	5.80900e+00	2.66000e+02
777	2.67295e+02	7.77000e+02	5.80769e+00	2.67000e+02
778	2.68308e+02	7.78000e+02	5.80638e+00	2.68000e+02
779	2.69308e+02	7.79000e+02	5.80508e+00	2.69000e+02
780	2.70319e+02	7.80000e+02	5.80379e+00	2.70000e+02
781	2.71320e+02	7.81000e+02	5.80249e+00	2.71000e+02
782	2.72330e+02	7.82000e+02	5.80118e+00	2.72000e+02
783	2.73317e+02	7.83000e+02	5.79987e+00	2.73000e+02
784	2.74327e+02	7.84000e+02	5.79854e+00	2.74000e+02
785	2.75339e+02	7.85000e+02	5.79720e+00	2.75000e+02
786	2.76340e+02	7.86000e+02	5.79584e+00	2.76000e+02
787	2.77359e+02	7.87000e+02	5.79448e+00	2.77000e+02
788	2.78359e+02	7.88000e+02	5.79304e+00	2.78000e+02
789	2.79380e+02	7.89000e+02	5.79160e+00	2.79000e+02
790	2.80401e+02	7.90000e+02	5.79013e+00	2.80000e+02
791	2.81436e+02	7.91000e+02	5.78864e+00	2.81000e+02
792	2.82467e+02	7.92000e+02	5.78703e+00	2.82000e+02
793	2.83510e+02	7.93000e+02	5.78542e+00	2.83000e+02
794	2.84531e+02	7.94000e+02	5.78375e+00	2.84000e+02
795	2.85614e+02	7.95000e+02	5.78206e+00	2.85000e+02
796	2.86646e+02	7.96000e+02	5.78016e+00	2.86000e+02
797	2.87692e+02	7.97000e+02	5.77825e+00	2.87000e+02
798	2.88706e+02	7.98000e+02	5.77628e+00	2.88000e+02
799	2.89750e+02	7.99000e+02	5.77424e+00	2.89000e+02
800	2.90740e+02	8.00000e+02	5.77188e+00	2.90000e+02
801	2.91751e+02	8.01000e+02	5.76954e+00	2.91000e+02
802	2.92733e+02	8.02000e+02	5.76710e+00	2.92000e+02
803	2.93709e+02	8.03000e+02	5.76458e+00	2.93000e+02
804	2.94724e+02	8.04000e+02	5.76163e+00	2.94000e+02
805	2.95746e+02	8.05000e+02	5.75871e+00	2.95000e+02
806	2.96768e+02	8.06000e+02	5.75568e+00	2.96000e+02
807	2.97780e+02	8.07000e+02	5.75253e+00	2.97000e+02
808	2.98788e+02	8.08000e+02	5.74886e+00	2.98000e+02
809	2.99807e+02	8.09000e+02	5.74523e+00	2.99000e+02
810	3.00826e+02	8.10000e+02	5.74145e+00	3.00000e+02
811	3.01813e+02	8.11000e+02	5.73754e+00	3.01000e+02
812	3.02782e+02	8.12000e+02	5.73299e+00	3.02000e+02
813	3.03798e+02	8.13000e+02	5.72850e+00	3.03000e+02
814	3.04804e+02	8.14000e+02	5.72386e+00	3.04000e+02
815	3.05815e+02	8.15000e+02	5.71909e+00	3.05000e+02
816	3.06798e+02	8.16000e+02	5.71359e+00	3.06000e+02
817	3.07800e+02	8.17000e+02	5.70819e+00	3.07000e+02
818	3.08778e+02	8.18000e+02	5.70263e+00	3.08000e+02
819	3.09817e+02	8.19000e+02	5.69693e+00	3.09000e+02
820	3.10800e+02	8.20000e+02	5.69050e+00	3.10000e+02
821	3.11820e+02	8.21000e+02	5.68418e+00	3.11000e+02
822	3.12854e+02	8.22000e+02	5.67772e+00	3.12000e+02
823	3.13862e+02	8.23000e+02	5.67113e+00	3.13000e+02
824	3.14913e+02	8.24000e+02	5.66387e+00	3.14000e+02
825	3.15921e+02	8.25000e+02	5.65671e+00	3.15000e+02
826	3.16960e+02	8.26000e+02	5.64945e+00	3.16000e+02
827	3.18003e+02	8.27000e+02	5.64208e+00	3.17000e+02
828	3.19043e+02	8.28000e+02	5.63414e+00	3.18000e+02
829	3.20072e+02	8.29000e+02	5.62633e+00	3.19000e+02
830	3.21079e+02	8.30000e+02	5.61843e+00	3.20000e+02
831	3.22089e+02	8.31000e+02	5.61046e+00	3.21000e+02
832	3.23126e+02	8.32000e+02	5.60207e+00	3.22000e+02
833	3.24135e+02	8.33000e+02	5.59376e+00	3.23000e+02
834	3.25190e+02	8.34000e+02	5.58537e+00	3.24000e+02
835	3.26205e+02	8.35000e+02	5.57691e+00	3.25000e+02
836	3.27205e+02	8.36000e+02	5.56810e+00	3.26000e+02
837	3.28201e+02	8.37000e+02	5.55933e+00	3.27000e+02
838	3.29195e+02	8.38000e+02	5.55047e+00	3.28000e+02
839	3.30226e+02	8.39000e+02	5.54153e+00	3.29000e+02
840	3.31249e+02	8.40000e+02	5.53218e+00	3.30000e+02
841	3.32238e+02	8.41000e+02	5.52282e+00	3.31000e+02
842	3.33201e+02	8.42000e+02	5.51329e+00	3.32000e+02
843	3.34171e+02	8.43000e+02	5.50363e+00	3.33000e+02
844	3.35197e+02	8.44000e+02	5.49327e+00	3.34000e+02
845	3.36208e+02	8.45000e+02	5.48289e+00	3.35000e+02
846	3.37233e+02	8.46000e+02	5.47223e+00	3.36000e+02
847	3.38265e+02	8.47000e+02	5.46134e+00	3.37000e+02
848	3.39283e+02	8.48000e+02	5.44927e+00	3.38000e+02
849	3.40314e+02	8.49000e+02	5.43719e+00	3.39000e+02
850	3.41369e+02	8.50000e+02	5.42467e+00	3.40000e+02
851	3.42399e+02	8.51000e+02	5.41180e+00	3.41000e+02
852	3.43537e+02	8.52000e+02	5.39710e+00	3.42000e+02
853	3.44517e+02	8.53000e+02	5.38279e+00	3.43000e+02
854	3.45574e+02	8.54000e+02	5.36836e+00	3.44000e+02
855	3.46572e+02	8.55000e+02	5.35300e+00	3.45000e+02
856	3.47540e+02	8.56000e+02	5.33504e+00	3.46000e+02
857	3.48622e+02	8.57000e+02	5.31715e+00	3.47000e+02
858	3.49607e+02	8.58000e+02	5.29843e+00	3.48000e+02
859	3.50598e+02	8.59000e+02	5.27903e+00	3.49000e+02
860	3.51616e+02	8.60000e+02	5.25693e+00	3.50000e+02
861	3.52605e+02	8.61000e+02	5.23473e+00	3.51000e+02
862	3.53613e+02	8.62000e+02	5.21157e+00	3.52000e+02
863	3.54546e+02	8.63000e+02	5.18763e+00	3.53000e+02
864	3.55468e+02	8.64000e+02	5.16095e+00	3.54000e+02
865	3.56371e+02	8.65000e+02	5.13431e+00	3.55000e+02
866	3.57310e+02	8.66000e+02	5.10544e+00	3.56000e+02
867	3.58266e+02	8.67000e+02	5.07615e+00	3.57000e+02
868	3.59221e+02	8.68000e+02	5.04412e+00	3.58000e+02
869	3.60173e+02	8.69000e+02	5.01245e+00	3.59000e+02
870	3.61133e+02	8.70000e+02	4.97842e+00	3.60000e+02
871	3.62082e+02	8.71000e+02	4.94229e+00	3.61000e+02
872	3.63007e+02	8.72000e+02	4.90433e+00	3.62000e+02
873	3.63971e+02	8.73000e+02	4.86663e+00	3.63000e+02
874	3.64938e+02	8.74000e+02	4.82658e+00	3.64000e+02
875	3.65904e+02	8.75000e+02	4.78438e+00	3.65000e+02
876	3.66867e+02	8.76000e+02	4.74035e+00	3.66000e+02
877	3.67818e+02	8.77000e+02	4.69655e+00	3.67000e+02
878	3.68765e+02	8.78000e+02	4.65034e+00	3.68000e+02
879	3.69711e+02	8.79000e+02	4.60193e+00	3.69000e+02
880	3.70667e+02	8.80000e+02	4.55171e+00	3.70000e+02
881	3.71600e+02	8.81000e+02	4.50177e+00	3.71000e+02
882	3.72536e+02	8.82000e+02	4.44960e+00	3.72000e+02
883	3.73481e+02	8.83000e+02	4.39544e+00	3.73000e+02
884	3.74401e+02	8.84000e+02	4.33926e+00	3.74000e+02
885	3.75355e+02	8.85000e+02	4.28283e+00	3.75000e+02
886	3.76335e+02	8.86000e+02	4.22533e+00	3.76000e+02
887	3.77278e+02	8.87000e+02	4.16705e+00	3.77000e+02
888	3.78211e+02	8.88000e+02	4.10563e+00	3.78000e+02
889	3.79162e+02	8.89000e+02	4.04432e+00	3.79000e+02
890	3.80125e+02	8.90000e+02	3.98215e+00	3.80000e+02
891	3.81119e+02	8.91000e+02	3.91927e+00	3.81000e+02
892	3.82115e+02	8.92000e+02	3.85362e+00	3.82000e+02
893	3.83107e+02	8.93000e+02	3.78804e+00	3.83000e+02
894	3.84117e+02	8.94000e+02	3.72157e+00	3.84000e+02
895	3.85100e+02	8.95000e+02	3.65437e+00	3.85000e+02
896	3.86044e+02	8.96000e+02	3.58439e+00	3.86000e+02
897	3.86995e+02	8.97000e+02	3.51442e+00	3.87000e+02
898	3.87936e+02	8.98000e+02	3.44360e+00	3.88000e+02
899	3.88900e+02	8.99000e+02	3.37210e+00	3.89000e+02
900	3.89865e+02	9.00000e+02	3.29802e+00	3.90000e+02
901	3.90837e+02	9.01000e+02	3.22388e+00	3.91000e+02
902	3.91815e+02	9.02000e+02	3.14887e+00	3.92000e+02
903	3.92836e+02	9.03000e+02	3.07388e+00	3.93000e+02
904	3.93825e+02	9.04000e+02	2.99734e+00	3.94000e+02
905	3.94749e+02	9.05000e+02	2.92118e+00	3.95000e+02
906	3.95715e+02	9.06000e+02	2.84486e+00	3.96000e+02
907	3.96645e+02	9.07000e+02	2.76840e+00	3.97000e+02
908	3.97863e+02	9.08000e+02	2.69110e+00	3.98000e+02
909	3.98810e+02	9.09000e+02	2.61411e+00	3.99000e+02
910	3.99830e+02	9.10000e+02	2.53707e+00	4.00000e+02
911	4.00731e+02	9.11000e+02	2.45993e+00	4.01000e+02
912	4.01661e+02	9.12000e+02	2.38245e+00	4.02000e+02
913	4.02596e+02	9.13000e+02	2.30497e+00	4.03000e+02
914	4.03558e+02	9.14000e+02	2.22737e+00	4.04000e+02
915	4.04581e+02	9.15000e+02	2.14966e+00	4.05000e+02
916	4.05641e+02	9.16000e+02	2.07138e+00	4.06000e+02
917	4.06586e+02	9.17000e+02	1.99313e+00	4.07000e+02
918	4.07531e+02	9.18000e+02	1.91472e+00	4.08000e+02
919	4.08480e+02	9.19000e+02	1.83617e+00	4.09000e+02
920	4.09460e+02	9.20000e+02	1.75701e+00	4.10000e+02
921	4.10436e+02	9.21000e+02	1.67812e+00	4.11000e+02
922	4.11488e+02	9.22000e+02	1.59938e+00	4.12000e+02
923	4.12576e+02	9.23000e+02	1.52078e+00	4.13000e+02
924	4.13562e+02	9.24000e+02	1.44266e+00	4.14000e+02
925	4.14586e+02	9.25000e+02	1.36478e+00	4.15000e+02
926	4.15545e+02	9.26000e+02	1.28715e+00	4.16000e+02
927	4.16581e+02	9.27000e+02	1.21050e+00	4.17000e+02
928	4.17717e+02	9.28000e+02	1.13568e+00	4.18000e+02
929	4.18731e+02	9.29000e+02	1.06217e+00	4.19000e+02
930	4.19787e+02	9.30000e+02	9.90756e-01	4.20000e+02
931	4.20830e+02	9.31000e+02	9.21123e-01	4.21000e+02
932	4.21821e+02	9.32000e+02	8.54726e-01	4.22000e+02
933	4.22812e+02	9.33000e+02	7.91063e-01	4.23000e+02
934	4.23874e+02	9.34000e+02	7.31008e-01	4.24000e+02
935	4.24896e+02	9.35000e+02	6.73268e-01	4.25000e+02
936	4.25888e+02	9.36000e+02	6.21128e-01	4.26000e+02
937	4.26908e+02	9.37000e+02	5.71363e-01	4.27000e+02
938	4.27980e+02	9.38000e+02	5.25390e-01	4.28000e+02
939	4.29034e+02	9.39000e+02	4.82625e-01	4.29000e+02
940	4.30025e+02	9.40000e+02	4.43237e-01	4.30000e+02
941	4.31035e+02	9.41000e+02	4.05112e-01	4.31000e+02
942	4.32095e+02	9.42000e+02	3.71425e-01	4.32000e+02
943	4.33104e+02	9.43000e+02	3.39102e-01	4.33000e+02
944	4.34115e+02	9.44000e+02	3.11442e-01	4.34000e+02
945	4.35165e+02	9.45000e+02	2.84732e-01	4.35000e+02
946	4.36269e+02	9.46000e+02	2.60193e-01	4.36000e+02
947	4.37318e+02	9.47000e+02	2.37345e-01	4.37000e+02
948	4.38341e+02	9.48000e+02	2.18443e-01	4.38000e+02
949	4.39332e+02	9.49000e+02	2.00201e-01	4.39000e+02
950	4.40326e+02	9.50000e+02	1.84035e-01	4.40000e+02
951	4.41360e+02	9.51000e+02	1.69940e-01	4.41000e+02
952	4.42363e+02	9.52000e+02	1.57549e-01	4.42000e+02
953	4.43424e+02	9.53000e+02	1.45279e-01	4.43000e+02
954	4.44576e+02	9.54000e+02	1.35087e-01	4.44000e+02
955	4.45707e+02	9.55000e+02	1.25189e-01	4.45000e+02
956	4.46850e+02	9.56000e+02	1.17918e-01	4.46000e+02
957	4.47937e+02	9.57000e+02	1.10536e-01	4.47000e+02
958	4.48978e+02	9.58000e+02	1.04062e-01	4.48000e+02
959	4.50122e+02	9.59000e+02	9.86905e-02	4.49000e+02
960	4.51159e+02	9.60000e+02	9.43686e-02	4.50000e+02
961	4.52357e+02	9.61000e+02	8.98459e-02	4.51000e+02
962	4.53409e+02	9.62000e+02	8.56902e-02	4.52000e+02
963	4.54379e+02	9.63000e+02	8.18415e-02	4.53000e+02
964	4.55301e+02	9.64000e+02	7.94406e-02	4.54000e+02
965	4.56252e+02	9.65000e+02	7.67117e-02	4.55000e+02
966	4.57280e+02	9.66000e+02	7.41692e-02	4.56000e+02
967	4.58287e+02	9.67000e+02	7.18201e-02	4.57000e+02
968	4.59348e+02	9.68000e+02	7.04715e-02	4.58000e+02
969	4.60355e+02	9.69000e+02	6.88793e-02	4.59000e+02
970	4.61329e+02	9.70000e+02	6.73924e-02	4.60000e+02
971	4.62339e+02	9.71000e+02	6.60242e-02	4.61000e+02
972	4.63336e+02	9.72000e+02	6.52726e-02	4.62000e+02
973	4.64297e+02	9.73000e+02	6.43613e-02	4.63000e+02
974	4.65284e+02	9.74000e+02	6.35072e-02	4.64000e+02
975	4.66273e+02	9.75000e+02	6.27216e-02	4.65000e+02
976	4.67354e+02	9.76000e+02	6.22902e-02	4.66000e+02
977	4.68289e+02	9.77000e+02	6.17662e-02	4.67000e+02
978	4.69342e+02	9.78000e+02	6.12760e-02	4.68000e+02
979	4.70311e+02	9.79000e+02	6.08266e-02	4.69000e+02
980	4.71271e+02	9.80000e+02	6.05797e-02	4.70000e+02
981	4.72370e+02	9.81000e+02	6.02822e-02	4.71000e+02
982	4.73344e+02	9.82000e+02	6.00065e-02	4.72000e+02
983	4.74258e+02	9.83000e+02	5.97553e-02	4.73000e+02
984	4.75251e+02	9.84000e+02	5.96290e-02	4.74000e+02
985	4.76215e+02	9.85000e+02	5.94724e-02	4.75000e+02
986	4.77318e+02	9.86000e+02	5.93277e-02	4.76000e+02
987	4.78410e+02	9.87000e+02	5.91972e-02	4.77000e+02
988	4.79549e+02	9.88000e+02	5.91421e-02	4.78000e+02
989	4.80602e+02	9.89000e+02	5.90640e-02	4.79000e+02
990	4.81685e+02	9.90000e+02	5.89887e-02	4.80000e+02
991	4.82715e+02	9.91000e+02	5.89185e-02	4.81000e+02
992	4.83817e+02	9.92000e+02	5.88765e-02	4.82000e+02
993	4.84794e+02	9.93000e+02	5.88217e-02	4.83000e+02
994	4.85844e+02	9.94000e+02	5.87663e-02	4.84000e+02
995	4.86707e+02	9.95000e+02	5.87127e-02	4.85000e+02
996	4.87614e+02	9.96000e+02	5.86646e-02	4.86000e+02
997	4.88480e+02	9.97000e+02	5.86173e-02	4.87000e+02
998	4.89341e+02	9.98000e+02	5.85715e-02	4.88000e+02
999	4.90326e+02	9.99000e+02	5.85267e-02	4.89000e+02
1000	4.91232e+02	1.00000e+03	5.84896e-02	4.90000e+02
1001	4.92149e+02	1.00100e+03	5.84506e-02	4.91000e+02
1002	4.93084e+02	1.00200e+03	5.84136e-02	4.92000e+02
1003	4.94039e+02	1.00300e+03	5.83791e-02	4.93000e+02
1004	4.95021e+02	1.00400e+03	5.83527e-02	4.94000e+02
1005	4.96037e+02	1.00500e+03	5.83275e-02	4.95000e+02
1006	4.97028e+02	1.00600e+03	5.83055e-02	4.96000e+02
1007	4.97914e+02	1.00700e+03	5.82857e-02	4.97000e+02
1008	4.98898e+02	1.00800e+03	5.82750e-02	4.98000e+02
1009	4.99910e+02	1.00900e+03	5.82573e-02	4.99000e+02
1010	5.00859e+02	1.01000e+03	5.82370e-02	5.00000e+02
1011	5.01787e+02	1.01100e+03	5.82160e-02	5.01000e+02
1012	5.02724e+02	1.01200e+03	5.81920e-02	5.02000e+02
1013	5.03643e+02	1.01300e+03	5.81690e-02	5.03000e+02
1014	5.04615e+02	1.01400e+03	5.81469e-02	5.04000e+02
1015	5.05533e+02	1.01500e+03	5.81256e-02	5.05000e+02
1016	5.06528e+02	1.01600e+03	5.81063e-02	5.06000e+02
1017	5.07471e+02	1.01700e+03	5.80889e-02	5.07000e+02
1018	5.08473e+02	1.01800e+03	5.80734e-02	5.08000e+02
1019	5.09466e+02	1.01900e+03	5.80595e-02	5.09000e+02
1020	5.10445e+02	1.02000e+03	5.80547e-02	5.10000e+02
1021	5.11462e+02	1.02100e+03	5.80478e-02	5.11000e+02
1022	5.12504e+02	1.02200e+03	5.80425e-02	5.12000e+02
1023	5.13501e+02	1.02300e+03	5.80385e-02	5.13000e+02
1024	5.14469e+02	1.02400e+03	5.80376e-02	5.14000e+02
1025	5.15480e+02	1.02500e+03	5.80326e-02	5.15000e+02
1026	5.16445e+02	1.02600e+03	5.80238e-02	5.16000e+02
1027	5.17430e+02	1.02700e+03	5.80117e-02	5.17000e+02
1028	5.18519e+02	1.02800e+03	5.79877e-02	5.18000e+02
1029	5.19568e+02	1.02900e+03	5.79631e-02	5.19000e+02
1030	5.20496e+02	1.03000e+03	5.79374e-02	5.20000e+02
1031	5.21408e+02	1.03100e+03	5.79114e-02	5.21000e+02
1032	5.22434e+02	1.03200e+03	5.78781e-02	5.22000e+02
1033	5.23468e+02	1.03300e+03	5.78552e-02	5.23000e+02
1034	5.24376e+02	1.03400e+03	5.78369e-02	5.24000e+02
1035	5.25442e+02	1.03500e+03	5.78202e-02	5.25000e+02
1036	5.26586e+02	1.03600e+03	5.78162e-02	5.26000e+02
1037	5.27640e+02	1.03700e+03	5.78062e-02	5.27000e+02
1038	5.28633e+02	1.03800e+03	5.77943e-02	5.28000e+02
1039	5.29610e+02	1.03900e+03	5.77813e-02	5.29000e+02
1040	5.30558e+02	1.04000e+03	5.77668e-02	5.30000e+02
1041	5.31538e+02	1.04100e+03	5.77524e-02	5.31000e+02
1042	5.32536e+02	1.04200e+03	5.77380e-02	5.32000e+02
1043	5.33497e+02	1.04300e+03	5.77234e-02	5.33000e+02
1044	5.34431e+02	1.04400e+03	5.77071e-02	5.34000e+02
1045	5.35374e+02	1.04500e+03	5.76927e-02	5.35000e+02
1046	5.36311e+02	1.04600e+03	5.76789e-02	5.36000e+02
1047	5.37272e+02	1.04700e+03	5.76652e-02	5.37000e+02
1048	5.38236e+02	1.04800e+03	5.76523e-02	5.38000e+02
1049	5.39245e+02	1.04900e+03	5.76388e-02	5.39000e+02
1050	5.40237e+02	1.05000e+03	5.76261e-02	5.40000e+02
1051	5.41221e+02	1.05100e+03	5.76137e-02	5.41000e+02
1052	5.42192e+02	1.05200e+03	5.75990e-02	5.42000e+02
1053	5.43144e+02	1.05300e+03	5.75839e-02	5.43000e+02
1054	5.44122e+02	1.05400e+03	5.75670e-02	5.44000e+02
1055	5.45098e+02	1.05500e+03	5.75484e-02	5.45000e+02
1056	5.46120e+02	1.05600e+03	5.75273e-02	5.46000e+02
1057	5.47089e+02	1.05700e+03	5.75090e-02	5.47000e+02
1058	5.48077e+02	1.05800e+03	5.74942e-02	5.48000e+02
1059	5.49048e+02	1.05900e+03	5.74825e-02	5.49000e+02
1060	5.50050e+02	1.06000e+03	5.74836e-02	5.50000e+02
1061	5.51056e+02	1.06100e+03	5.74905e-02	5.51000e+02
1062	5.52087e+02	1.06200e+03	5.75030e-02	5.52000e+02
1063	5.53036e+02	1.06300e+03	5.75189e-02	5.53000e+02
1064	5.54023e+02	1.06400e+03	5.75604e-02	5.54000e+02
1065	5.54971e+02	1.06500e+03	5.75911e-02	5.55000e+02
1066	5.55896e+02	1.06600e+03	5.76201e-02	5.56000e+02
1067	5.56814e+02	1.06700e+03	5.76484e-02	5.57000e+02
1068	5.57776e+02	1.06800e+03	5.76727e-02	5.58000e+02
1069	5.58708e+02	1.06900e+03	5.76918e-02	5.59000e+02
1070	5.59683e+02	1.07000e+03	5.77064e-02	5.60000e+02
1071	5.60619e+02	1.07100e+03	5.77176e-02	5.61000e+02
1072	5.61561e+02	1.07200e+03	5.77112e-02	5.62000e+02
1073	5.62513e+02	1.07300e+03	5.77111e-02	5.63000e+02
1074	5.63443e+02	1.07400e+03	5.77119e-02	5.64000e+02
1075	5.64398e+02	1.07500e+03	5.77129e-02	5.65000e+02
1076	5.65371e+02	1.07600e+03	5.77100e-02	5.66000e+02
1077	5.66337e+02	1.07700e+03	5.77094e-02	5.67000e+02
1078	5.67365e+02	1.07800e+03	5.77075e-02	5.68000e+02
1079	5.68377e+02	1.07900e+03	5.77039e-02	5.69000e+02
1080	5.69395e+02	1.08000e+03	5.76965e-02	5.70000e+02
1081	5.70386e+02	1.08100e+03	5.76846e-02	5.71000e+02
1082	5.71401e+02	1.08200e+03	5.76695e-02	5.72000e+02
1083	5.72414e+02	1.08300e+03	5.76526e-02	5.73000e+02
1084	5.73443e+02	1.08400e+03	5.76234e-02	5.74000e+02
1085	5.74479e+02	1.08500e+03	5.76009e-02	5.75000e+02
1086	5.75543e+02	1.08600e+03	5.75801e-02	5.76000e+02
1087	5.76586e+02	1.08700e+03	5.75599e-02	5.77000e+02
1088	5.77607e+02	1.08800e+03	5.75400e-02	5.78000e+02
1089	5.78626e+02	1.08900e+03	5.75196e-02	5.79000e+02
1090	5.79606e+02	1.09000e+03	5.74999e-02	5.80000e+02
1091	5.80588e+02	1.09100e+03	5.74813e-02	5.81000e+02
1092	5.81530e+02	1.09200e+03	5.74678e-02	5.82000e+02
1093	5.82503e+02	1.09300e+03	5.74566e-02	5.83000e+02
1094	5.83504e+02	1.09400e+03	5.74490e-02	5.84000e+02
1095	5.84532e+02	1.09500e+03	5.74441e-02	5.85000e+02
1096	5.85625e+02	1.09600e+03	5.74525e-02	5.86000e+02
1097	5.86671e+02	1.09700e+03	5.74581e-02	5.87000e+02
1098	5.87733e+02	1.09800e+03	5.74642e-02	5.88000e+02
1099	5.88733e+02	1.09900e+03	5.74707e-02	5.89000e+02
1100	5.89708e+02	1.10000e+03	5.74802e-02	5.90000e+02
1101	5.90619e+02	1.10100e+03	5.74843e-02	5.91000e+02
1102	5.91484e+02	1.10200e+03	5.74864e-02	5.92000e+02
1103	5.92338e+02	1.10300e+03	5.74876e-02	5.93000e+02
1104	5.93252e+02	1.10400e+03	5.74797e-02	5.94000e+02
1105	5.94179e+02	1.10500e+03	5.74760e-02	5.95000e+02
1106	5.95127e+02	1.10600e+03	5.74731e-02	5.96000e+02
1107	5.96083e+02	1.10700e+03	5.74701e-02	5.97000e+02
1108	5.97016e+02	1.10800e+03	5.74652e-02	5.98000e+02
1109	5.97959e+02	1.10900e+03	5.74600e-02	5.99000e+02
1110	5.98934e+02	1.11000e+03	5.74535e-02	6.00000e+02
1111	5.99907e+02	1.11100e+03	5.74457e-02	6.01000e+02
1112	6.00844e+02	1.11200e+03	5.74340e-02	6.02000e+02
1113	6.01798e+02	1.11300e+03	5.74228e-02	6.03000e+02
1114	6.02757e+02	1.11400e+03	5.74125e-02	6.04000e+02
1115	6.03718e+02	1.11500e+03	5.74028e-02	6.05000e+02
1116	6.04683e+02	1.11600e+03	5.73928e-02	6.06000e+02
1117	6.05642e+02	1.11700e+03	5.73861e-02	6.07000e+02
1118	6.06610e+02	1.11800e+03	5.73808e-02	6.08000e+02
1119	6.07598e+02	1.11900e+03	5.73758e-02	6.09000e+02
1120	6.08596e+02	1.12000e+03	5.73742e-02	6.10000e+02
1121	6.09590e+02	1.12100e+03	5.73682e-02	6.11000e+02
1122	6.10591e+02	1.12200e+03	5.73607e-02	6.12000e+02
1123	6.11590e+02	1.12300e+03	5.73534e-02	6.13000e+02
1124	6.12556e+02	1.12400e+03	5.73435e-02	6.14000e+02
1125	6.13533e+02	1.12500e+03	5.73365e-02	6.15000e+02
1126	6.14495e+02	1.12600e+03	5.73309e-02	6.16000e+02
1127	6.15450e+02	1.12700e+03	5.73256e-02	6.17000e+02
1128	6.16430e+02	1.12800e+03	5.73232e-02	6.18000e+02
1129	6.17385e+02	1.12900e+03	5.73200e-02	6.19000e+02
1130	6.18363e+02	1.13000e+03	5.73176e-02	6.20000e+02
1131	6.19343e+02	1.13100e+03	5.73161e-02	6.21000e+02
1132	6.20324e+02	1.13200e+03	5.73173e-02	6.22000e+02
1133	6.21396e+02	1.13300e+03	5.73205e-02	6.23000e+02
1134	6.22592e+02	1.13400e+03	5.73270e-02	6.24000e+02
1135	6.23850e+02	1.13500e+03	5.73358e-02	6.25000e+02
1136	6.25722e+02	1.13600e+03	5.73559e-02	6.26000e+02
1137	6.27729e+02	1.13700e+03	5.73752e-02	6.27000e+02
1138	6.28418e+02	1.13800e+03	5.73944e-02	6.28000e+02
1139	6.29280e+02	1.13900e+03	5.74125e-02	6.29000e+02
1140	6.30148e+02	1.14000e+03	5.74309e-02	6.30000e+02
1141	6.31015e+02	1.14100e+03	5.74406e-02	6.31000e+02
1142	6.31940e+02	1.14200e+03	5.74444e-02	6.32000e+02
1143	6.32838e+02	1.14300e+03	5.74447e-02	6.33000e+02
1144	6.33776e+02	1.14400e+03	5.74262e-02	6.34000e+02
1145	6.34721e+02	1.14500e+03	5.74145e-02	6.35000e+02
1146	6.35671e+02	1.14600e+03	5.74022e-02	6.36000e+02
1147	6.36613e+02	1.14700e+03	5.73886e-02	6.37000e+02
1148	6.37578e+02	1.14800e+03	5.73694e-02	6.38000e+02
1149	6.38537e+02	1.14900e+03	5.73540e-02	6.39000e+02
1150	6.39496e+02	1.15000e+03	5.73393e-02	6.40000e+02
1151	6.40466e+02	1.15100e+03	5.73246e-02	6.41000e+02
1152	6.41440e+02	1.15200e+03	5.73127e-02	6.42000e+02
1153	6.42412e+02	1.15300e+03	5.73014e-02	6.43000e+02
1154	6.43384e+02	1.15400e+03	5.72910e-02	6.44000e+02
1155	6.44361e+02	1.15500e+03	5.72812e-02	6.45000e+02
1156	6.45346e+02	1.15600e+03	5.72758e-02	6.46000e+02
1157	6.46305e+02	1.15700e+03	5.72687e-02	6.47000e+02
1158	6.47264e+02	1.15800e+03	5.72618e-02	6.48000e+02
1159	6.48247e+02	1.15900e+03	5.72552e-02	6.49000e+02
1160	6.49208e+02	1.16000e+03	5.72518e-02	6.50000e+02
1161	6.50169e+02	1.16100e+03	5.72485e-02	6.51000e+02
1162	6.51120e+02	1.16200e+03	5.72448e-02	6.52000e+02
1163	6.52082e+02	1.16300e+03	5.72409e-02	6.53000e+02
1164	6.53060e+02	1.16400e+03	5.72390e-02	6.54000e+02
1165	6.54034e+02	1.16500e+03	5.72356e-02	6.55000e+02
1166	6.55001e+02	1.16600e+03	5.72332e-02	6.56000e+02
1167	6.55981e+02	1.16700e+03	5.72327e-02	6.57000e+02
1168	6.56944e+02	1.16800e+03	5.72355e-02	6.58000e+02
1169	6.57927e+02	1.16900e+03	5.72406e-02	6.59000e+02
1170	6.58903e+02	1.17000e+03	5.72478e-02	6.60000e+02
1171	6.59890e+02	1.17100e+03	5.72563e-02	6.61000e+02
1172	6.60862e+02	1.17200e+03	5.72740e-02	6.62000e+02
1173	6.61847e+02	1.17300e+03	5.72876e-02	6.63000e+02
1174	6.62824e+02	1.17400e+03	5.72999e-02	6.64000e+02
1175	6.63814e+02	1.17500e+03	5.73122e-02	6.65000e+02
1176	6.64782e+02	1.17600e+03	5.73248e-02	6.66000e+02
1177	6.65773e+02	1.17700e+03	5.73348e-02	6.67000e+02
1178	6.66746e+02	1.17800e+03	5.73420e-02	6.68000e+02
1179	6.67726e+02	1.17900e+03	5.73468e-02	6.69000e+02
1180	6.68707e+02	1.18000e+03	5.73421e-02	6.70000e+02
1181	6.69682e+02	1.18100e+03	5.73365e-02	6.71000e+02
1182	6.70668e+02	1.18200e+03	5.73284e-02	6.72000e+02
1183	6.71638e+02	1.18300e+03	5.73187e-02	6.73000e+02
1184	6.72608e+02	1.18400e+03	5.73035e-02	6.74000e+02
1185	6.72963e+02	1.18500e+03	5.73004e-02	6.75000e+02
1186	6.73298e+02	1.18600e+03	5.73081e-02	6.76000e+02
1187	6.73877e+02	1.18700e+03	5.73232e-02	6.77000e+02
1188	6.74569e+02	1.18800e+03	5.73750e-02	6.78000e+02
1189	6.75278e+02	1.18900e+03	5.74214e-02	6.79000e+02
1190	6.75967e+02	1.19000e+03	5.74620e-02	6.80000e+02
1191	6.76630e+02	1.19100e+03	5.74962e-02	6.81000e+02
1192	6.77275e+02	1.19200e+03	5.75469e-02	6.82000e+02
1193	6.77898e+02	1.19300e+03	5.75714e-02	6.83000e+02
1194	6.78509e+02	1.19400e+03	5.75810e-02	6.84000e+02
1195	6.79098e+02	1.19500e+03	5.75832e-02	6.85000e+02
1196	6.79675e+02	1.19600e+03	5.75486e-02	6.86000e+02
1197	6.80199e+02	1.19700e+03	5.75330e-02	6.87000e+02
1198	6.80711e+02	1.19800e+03	5.75208e-02	6.88000e+02
1199	6.81220e+02	1.19900e+03	5.75093e-02	6.89000e+02
1200	6.81723e+02	1.20000e+03	5.74990e-02	6.90000e+02
1201	6.82220e+02	1.20100e+03	5.74900e-02	6.91000e+02
1202	6.82696e+02	1.20200e+03	5.74820e-02	6.92000e+02
1203	6.83159e+02	1.20300e+03	5.74747e-02	6.93000e+02
1204	6.83597e+02	1.20400e+03	5.74704e-02	6.94000e+02
1205	6.84036e+02	1.20500e+03	5.74638e-02	6.95000e+02
1206	6.84466e+02	1.20600e+03	5.74581e-02	6.96000e+02
1207	6.84882e+02	1.20700e+03	5.74539e-02	6.97000e+02
1208	6.85281e+02	1.20800e+03	5.74530e-02	6.98000e+02
1209	6.85688e+02	1.20900e+03	5.74572e-02	6.99000e+02
1210	6.86071e+02	1.21000e+03	5.74661e-02	7.00000e+02