File: Experiments/TGA/TUBS/tga_nonisotherm/tga_dynamic_n2_dyn5_powder_3mg_r1.txt
index	ts	t	weight	tr
[#]	[°C]	[s]	[mg]	[°C]
1083	1.31115e+02	1.08300e+03	2.97223e+00	1.30250e+02
1091	1.31788e+02	1.09100e+03	2.97235e+00	1.30917e+02
1099	1.32472e+02	1.09900e+03	2.97211e+00	1.31583e+02
1107	1.33159e+02	1.10700e+03	2.97141e+00	1.32250e+02
1115	1.33807e+02	1.11500e+03	2.97145e+00	1.32917e+02
1123	1.34482e+02	1.12300e+03	2.97143e+00	1.33583e+02
1131	1.35142e+02	1.13100e+03	2.97102e+00	1.34250e+02
1139	1.35829e+02	1.13900e+03	2.97095e+00	1.34917e+02
1147	1.36504e+02	1.14700e+03	2.97082e+00	1.35583e+02
1155	1.37183e+02	1.15500e+03	2.97033e+00	1.36250e+02
1163	1.37859e+02	1.16300e+03	2.97000e+00	1.36917e+02
1171	1.38534e+02	1.17100e+03	2.96982e+00	1.37583e+02
1179	1.39214e+02	1.17900e+03	2.96951e+00	1.38250e+02
1187	1.39876e+02	1.18700e+03	2.96921e+00	1.38917e+02
1195	1.40573e+02	1.19500e+03	2.96890e+00	1.39583e+02
1203	1.41235e+02	1.20300e+03	2.96860e+00	1.40250e+02
1211	1.41895e+02	1.21100e+03	2.96835e+00	1.40917e+02
1219	1.42580e+02	1.21900e+03	2.96804e+00	1.41583e+02
1227	1.43248e+02	1.22700e+03	2.96762e+00	1.42250e+02
1235	1.43927e+02	1.23500e+03	2.96710e+00	1.42917e+02
1243	1.44596e+02	1.24300e+03	2.96672e+00	1.43583e+02
1251	1.45258e+02	1.25100e+03	2.96646e+00	1.44250e+02
1259	1.45945e+02	1.25900e+03	2.96606e+00	1.44917e+02
1267	1.46619e+02	1.26700e+03	2.96560e+00	1.45583e+02
1275	1.47289e+02	1.27500e+03	2.96518e+00	1.46250e+02
1283	1.47966e+02	1.28300e+03	2.96468e+00	1.46917e+02
1291	1.48644e+02	1.29100e+03	2.96426e+00	1.47583e+02
1299	1.49316e+02	1.29900e+03	2.96386e+00	1.48250e+02
1307	1.49987e+02	1.30700e+03	2.96324e+00	1.48917e+02
1315	1.50670e+02	1.31500e+03	2.96294e+00	1.49583e+02
1323	1.51354e+02	1.32300e+03	2.96247e+00	1.50250e+02
1331	1.52032e+02	1.33100e+03	2.96175e+00	1.50917e+02
1339	1.52705e+02	1.33900e+03	2.96131e+00	1.51583e+02
1347	1.53383e+02	1.34700e+03	2.96093e+00	1.52250e+02
1355	1.54046e+02	1.35500e+03	2.96033e+00	1.52917e+02
1363	1.54723e+02	1.36300e+03	2.95984e+00	1.53583e+02
1371	1.55409e+02	1.37100e+03	2.95943e+00	1.54250e+02
1379	1.56077e+02	1.37900e+03	2.95861e+00	1.54917e+02
1387	1.56752e+02	1.38700e+03	2.95796e+00	1.55583e+02
1395	1.57427e+02	1.39500e+03	2.95740e+00	1.56250e+02
1403	1.58101e+02	1.40300e+03	2.95681e+00	1.56917e+02
1411	1.58774e+02	1.41100e+03	2.95600e+00	1.57583e+02
1419	1.59451e+02	1.41900e+03	2.95524e+00	1.58250e+02
1427	1.60114e+02	1.42700e+03	2.95437e+00	1.58917e+02
1435	1.60788e+02	1.43500e+03	2.95344e+00	1.59583e+02
1443	1.61472e+02	1.44300e+03	2.95247e+00	1.60250e+02
1451	1.62142e+02	1.45100e+03	2.95150e+00	1.60917e+02
1459	1.62812e+02	1.45900e+03	2.95035e+00	1.61583e+02
1467	1.63500e+02	1.46700e+03	2.94916e+00	1.62250e+02
1475	1.64156e+02	1.47500e+03	2.94776e+00	1.62917e+02
1483	1.64839e+02	1.48300e+03	2.94646e+00	1.63583e+02
1491	1.65517e+02	1.49100e+03	2.94495e+00	1.64250e+02
1499	1.66182e+02	1.49900e+03	2.94345e+00	1.64917e+02
1507	1.66864e+02	1.50700e+03	2.94174e+00	1.65583e+02
1515	1.67540e+02	1.51500e+03	2.93994e+00	1.66250e+02
1523	1.68202e+02	1.52300e+03	2.93806e+00	1.66917e+02
1531	1.68873e+02	1.53100e+03	2.93605e+00	1.67583e+02
1539	1.69555e+02	1.53900e+03	2.93404e+00	1.68250e+02
1547	1.70242e+02	1.54700e+03	2.93175e+00	1.68917e+02
1555	1.70901e+02	1.55500e+03	2.92941e+00	1.69583e+02
1563	1.71575e+02	1.56300e+03	2.92692e+00	1.70250e+02
1571	1.72248e+02	1.57100e+03	2.92446e+00	1.70917e+02
1579	1.72920e+02	1.57900e+03	2.92193e+00	1.71583e+02
1587	1.73603e+02	1.58700e+03	2.91927e+00	1.72250e+02
1595	1.74283e+02	1.59500e+03	2.91636e+00	1.72917e+02
1603	1.74942e+02	1.60300e+03	2.91366e+00	1.73583e+02
1611	1.75627e+02	1.61100e+03	2.91103e+00	1.74250e+02
1619	1.76301e+02	1.61900e+03	2.90818e+00	1.74917e+02
1627	1.76964e+02	1.62700e+03	2.90539e+00	1.75583e+02
1635	1.77635e+02	1.63500e+03	2.90263e+00	1.76250e+02
1643	1.78314e+02	1.64300e+03	2.89994e+00	1.76917e+02
1651	1.78986e+02	1.65100e+03	2.89732e+00	1.77583e+02
1659	1.79667e+02	1.65900e+03	2.89477e+00	1.78250e+02
1667	1.80334e+02	1.66700e+03	2.89210e+00	1.78917e+02
1675	1.81008e+02	1.67500e+03	2.88958e+00	1.79583e+02
1683	1.81691e+02	1.68300e+03	2.88715e+00	1.80250e+02
1691	1.82367e+02	1.69100e+03	2.88492e+00	1.80917e+02
1699	1.83046e+02	1.69900e+03	2.88264e+00	1.81583e+02
1707	1.83705e+02	1.70700e+03	2.88060e+00	1.82250e+02
1715	1.84384e+02	1.71500e+03	2.87861e+00	1.82917e+02
1723	1.85052e+02	1.72300e+03	2.87665e+00	1.83583e+02
1731	1.85720e+02	1.73100e+03	2.87485e+00	1.84250e+02
1739	1.86392e+02	1.73900e+03	2.87308e+00	1.84917e+02
1747	1.87072e+02	1.74700e+03	2.87145e+00	1.85583e+02
1755	1.87743e+02	1.75500e+03	2.87008e+00	1.86250e+02
1763	1.88418e+02	1.76300e+03	2.86875e+00	1.86917e+02
1771	1.89080e+02	1.77100e+03	2.86759e+00	1.87583e+02
1779	1.89759e+02	1.77900e+03	2.86660e+00	1.88250e+02
1787	1.90422e+02	1.78700e+03	2.86548e+00	1.88917e+02
1795	1.91104e+02	1.79500e+03	2.86458e+00	1.89583e+02
1803	1.91777e+02	1.80300e+03	2.86389e+00	1.90250e+02
1811	1.92450e+02	1.81100e+03	2.86313e+00	1.90917e+02
1819	1.93137e+02	1.81900e+03	2.86230e+00	1.91583e+02
1827	1.93808e+02	1.82700e+03	2.86160e+00	1.92250e+02
1835	1.94473e+02	1.83500e+03	2.86098e+00	1.92917e+02
1843	1.95149e+02	1.84300e+03	2.86050e+00	1.93583e+02
1851	1.95816e+02	1.85100e+03	2.85990e+00	1.94250e+02
1859	1.96488e+02	1.85900e+03	2.85932e+00	1.94917e+02
1867	1.97156e+02	1.86700e+03	2.85885e+00	1.95583e+02
1875	1.97822e+02	1.87500e+03	2.85817e+00	1.96250e+02
1883	1.98505e+02	1.88300e+03	2.85763e+00	1.96917e+02
1891	1.99169e+02	1.89100e+03	2.85731e+00	1.97583e+02
1899	1.99833e+02	1.89900e+03	2.85656e+00	1.98250e+02
1907	2.00514e+02	1.90700e+03	2.85605e+00	1.98917e+02
1915	2.01176e+02	1.91500e+03	2.85574e+00	1.99583e+02
1923	2.01859e+02	1.92300e+03	2.85531e+00	2.00250e+02
1931	2.02520e+02	1.93100e+03	2.85509e+00	2.00917e+02
1939	2.03187e+02	1.93900e+03	2.85483e+00	2.01583e+02
1947	2.03872e+02	1.94700e+03	2.85405e+00	2.02250e+02
1955	2.04528e+02	1.95500e+03	2.85358e+00	2.02917e+02
1963	2.05206e+02	1.96300e+03	2.85324e+00	2.03583e+02
1971	2.05881e+02	1.97100e+03	2.85297e+00	2.04250e+02
1979	2.06555e+02	1.97900e+03	2.85257e+00	2.04917e+02
1987	2.07226e+02	1.98700e+03	2.85206e+00	2.05583e+02
1995	2.07891e+02	1.99500e+03	2.85145e+00	2.06250e+02
2003	2.08568e+02	2.00300e+03	2.85097e+00	2.06917e+02
2011	2.09237e+02	2.01100e+03	2.85066e+00	2.07583e+02
2019	2.09914e+02	2.01900e+03	2.85037e+00	2.08250e+02
2027	2.10576e+02	2.02700e+03	2.84998e+00	2.08917e+02
2035	2.11251e+02	2.03500e+03	2.84965e+00	2.09583e+02
2043	2.11924e+02	2.04300e+03	2.84930e+00	2.10250e+02
2051	2.12590e+02	2.05100e+03	2.84876e+00	2.10917e+02
2059	2.13263e+02	2.05900e+03	2.84848e+00	2.11583e+02
2067	2.13917e+02	2.06700e+03	2.84813e+00	2.12250e+02
2075	2.14582e+02	2.07500e+03	2.84773e+00	2.12917e+02
2083	2.15260e+02	2.08300e+03	2.84765e+00	2.13583e+02
2091	2.15924e+02	2.09100e+03	2.84738e+00	2.14250e+02
2099	2.16584e+02	2.09900e+03	2.84688e+00	2.14917e+02
2107	2.17256e+02	2.10700e+03	2.84668e+00	2.15583e+02
2115	2.17935e+02	2.11500e+03	2.84658e+00	2.16250e+02
2123	2.18596e+02	2.12300e+03	2.84634e+00	2.16917e+02
2131	2.19259e+02	2.13100e+03	2.84595e+00	2.17583e+02
2139	2.19920e+02	2.13900e+03	2.84566e+00	2.18250e+02
2147	2.20595e+02	2.14700e+03	2.84542e+00	2.18917e+02
2155	2.21266e+02	2.15500e+03	2.84524e+00	2.19583e+02
2163	2.21931e+02	2.16300e+03	2.84506e+00	2.20250e+02
2171	2.22602e+02	2.17100e+03	2.84483e+00	2.20917e+02
2179	2.23278e+02	2.17900e+03	2.84470e+00	2.21583e+02
2187	2.23933e+02	2.18700e+03	2.84444e+00	2.22250e+02
2195	2.24604e+02	2.19500e+03	2.84411e+00	2.22917e+02
2203	2.25267e+02	2.20300e+03	2.84405e+00	2.23583e+02
2211	2.25941e+02	2.21100e+03	2.84393e+00	2.24250e+02
2219	2.26601e+02	2.21900e+03	2.84374e+00	2.24917e+02
2227	2.27274e+02	2.22700e+03	2.84357e+00	2.25583e+02
2235	2.27936e+02	2.23500e+03	2.84341e+00	2.26250e+02
2243	2.28609e+02	2.24300e+03	2.84321e+00	2.26917e+02
2251	2.29262e+02	2.25100e+03	2.84296e+00	2.27583e+02
2259	2.29933e+02	2.25900e+03	2.84280e+00	2.28250e+02
2267	2.30608e+02	2.26700e+03	2.84255e+00	2.28917e+02
2275	2.31277e+02	2.27500e+03	2.84238e+00	2.29583e+02
2283	2.31943e+02	2.28300e+03	2.84224e+00	2.30250e+02
2291	2.32624e+02	2.29100e+03	2.84212e+00	2.30917e+02
2299	2.33285e+02	2.29900e+03	2.84192e+00	2.31583e+02
2307	2.33953e+02	2.30700e+03	2.84174e+00	2.32250e+02
2315	2.34620e+02	2.31500e+03	2.84148e+00	2.32917e+02
2323	2.35283e+02	2.32300e+03	2.84140e+00	2.33583e+02
2331	2.35957e+02	2.33100e+03	2.84128e+00	2.34250e+02
2339	2.36631e+02	2.33900e+03	2.84109e+00	2.34917e+02
2347	2.37307e+02	2.34700e+03	2.84091e+00	2.35583e+02
2355	2.37972e+02	2.35500e+03	2.84072e+00	2.36250e+02
2363	2.38622e+02	2.36300e+03	2.84041e+00	2.36917e+02
2371	2.39295e+02	2.37100e+03	2.84017e+00	2.37583e+02
2379	2.39969e+02	2.37900e+03	2.83994e+00	2.38250e+02
2387	2.40616e+02	2.38700e+03	2.83977e+00	2.38917e+02
2395	2.41281e+02	2.39500e+03	2.83964e+00	2.39583e+02
2403	2.41950e+02	2.40300e+03	2.83948e+00	2.40250e+02
2411	2.42612e+02	2.41100e+03	2.83931e+00	2.40917e+02
2419	2.43271e+02	2.41900e+03	2.83899e+00	2.41583e+02
2427	2.43941e+02	2.42700e+03	2.83886e+00	2.42250e+02
2435	2.44591e+02	2.43500e+03	2.83873e+00	2.42917e+02
2443	2.45253e+02	2.44300e+03	2.83832e+00	2.43583e+02
2451	2.45937e+02	2.45100e+03	2.83778e+00	2.44250e+02
2459	2.46591e+02	2.45900e+03	2.83758e+00	2.44917e+02
2467	2.47256e+02	2.46700e+03	2.83757e+00	2.45583e+02
2475	2.47913e+02	2.47500e+03	2.83714e+00	2.46250e+02
2483	2.48578e+02	2.48300e+03	2.83672e+00	2.46917e+02
2491	2.49251e+02	2.49100e+03	2.83638e+00	2.47583e+02
2499	2.49913e+02	2.49900e+03	2.83587e+00	2.48250e+02
2507	2.50557e+02	2.50700e+03	2.83561e+00	2.48917e+02
2515	2.51235e+02	2.51500e+03	2.83536e+00	2.49583e+02
2523	2.51894e+02	2.52300e+03	2.83504e+00	2.50250e+02
2531	2.52548e+02	2.53100e+03	2.83474e+00	2.50917e+02
2539	2.53213e+02	2.53900e+03	2.83440e+00	2.51583e+02
2547	2.53889e+02	2.54700e+03	2.83393e+00	2.52250e+02
2555	2.54554e+02	2.55500e+03	2.83350e+00	2.52917e+02
2563	2.55211e+02	2.56300e+03	2.83305e+00	2.53583e+02
2571	2.55885e+02	2.57100e+03	2.83253e+00	2.54250e+02
2579	2.56547e+02	2.57900e+03	2.83214e+00	2.54917e+02
2587	2.57200e+02	2.58700e+03	2.83178e+00	2.55583e+02
2595	2.57872e+02	2.59500e+03	2.83140e+00	2.56250e+02
2603	2.58538e+02	2.60300e+03	2.83098e+00	2.56917e+02
2611	2.59190e+02	2.61100e+03	2.83041e+00	2.57583e+02
2619	2.59846e+02	2.61900e+03	2.82970e+00	2.58250e+02
2627	2.60530e+02	2.62700e+03	2.82916e+00	2.58917e+02
2635	2.61199e+02	2.63500e+03	2.82867e+00	2.59583e+02
2643	2.61864e+02	2.64300e+03	2.82805e+00	2.60250e+02
2651	2.62525e+02	2.65100e+03	2.82737e+00	2.60917e+02
2659	2.63187e+02	2.65900e+03	2.82670e+00	2.61583e+02
2667	2.63842e+02	2.66700e+03	2.82598e+00	2.62250e+02
2675	2.64515e+02	2.67500e+03	2.82541e+00	2.62917e+02
2683	2.65187e+02	2.68300e+03	2.82464e+00	2.63583e+02
2691	2.65851e+02	2.69100e+03	2.82396e+00	2.64250e+02
2699	2.66538e+02	2.69900e+03	2.82311e+00	2.64917e+02
2707	2.67197e+02	2.70700e+03	2.82222e+00	2.65583e+02
2715	2.67860e+02	2.71500e+03	2.82134e+00	2.66250e+02
2723	2.68533e+02	2.72300e+03	2.82005e+00	2.66917e+02
2731	2.69199e+02	2.73100e+03	2.81897e+00	2.67583e+02
2739	2.69860e+02	2.73900e+03	2.81790e+00	2.68250e+02
2747	2.70546e+02	2.74700e+03	2.81672e+00	2.68917e+02
2755	2.71207e+02	2.75500e+03	2.81594e+00	2.69583e+02
2763	2.71875e+02	2.76300e+03	2.81475e+00	2.70250e+02
2771	2.72543e+02	2.77100e+03	2.81326e+00	2.70917e+02
2779	2.73206e+02	2.77900e+03	2.81162e+00	2.71583e+02
2787	2.73880e+02	2.78700e+03	2.81048e+00	2.72250e+02
2795	2.74549e+02	2.79500e+03	2.80936e+00	2.72917e+02
2803	2.75212e+02	2.80300e+03	2.80786e+00	2.73583e+02
2811	2.75882e+02	2.81100e+03	2.80611e+00	2.74250e+02
2819	2.76556e+02	2.81900e+03	2.80431e+00	2.74917e+02
2827	2.77232e+02	2.82700e+03	2.80267e+00	2.75583e+02
2835	2.77902e+02	2.83500e+03	2.80084e+00	2.76250e+02
2843	2.78577e+02	2.84300e+03	2.79899e+00	2.76917e+02
2851	2.79258e+02	2.85100e+03	2.79710e+00	2.77583e+02
2859	2.79929e+02	2.85900e+03	2.79512e+00	2.78250e+02
2867	2.80609e+02	2.86700e+03	2.79279e+00	2.78917e+02
2875	2.81282e+02	2.87500e+03	2.79068e+00	2.79583e+02
2883	2.81960e+02	2.88300e+03	2.78870e+00	2.80250e+02
2891	2.82651e+02	2.89100e+03	2.78645e+00	2.80917e+02
2899	2.83321e+02	2.89900e+03	2.78410e+00	2.81583e+02
2907	2.83984e+02	2.90700e+03	2.78179e+00	2.82250e+02
2915	2.84656e+02	2.91500e+03	2.77922e+00	2.82917e+02
2923	2.85328e+02	2.92300e+03	2.77666e+00	2.83583e+02
2931	2.86006e+02	2.93100e+03	2.77376e+00	2.84250e+02
2939	2.86674e+02	2.93900e+03	2.77110e+00	2.84917e+02
2947	2.87354e+02	2.94700e+03	2.76862e+00	2.85583e+02
2955	2.88007e+02	2.95500e+03	2.76583e+00	2.86250e+02
2963	2.88668e+02	2.96300e+03	2.76289e+00	2.86917e+02
2971	2.89344e+02	2.97100e+03	2.75969e+00	2.87583e+02
2979	2.90002e+02	2.97900e+03	2.75645e+00	2.88250e+02
2987	2.90664e+02	2.98700e+03	2.75356e+00	2.88917e+02
2995	2.91344e+02	2.99500e+03	2.75054e+00	2.89583e+02
3003	2.92021e+02	3.00300e+03	2.74732e+00	2.90250e+02
3011	2.92688e+02	3.01100e+03	2.74406e+00	2.90917e+02
3019	2.93351e+02	3.01900e+03	2.74091e+00	2.91583e+02
3027	2.94018e+02	3.02700e+03	2.73764e+00	2.92250e+02
3035	2.94684e+02	3.03500e+03	2.73426e+00	2.92917e+02
3043	2.95356e+02	3.04300e+03	2.73085e+00	2.93583e+02
3051	2.96016e+02	3.05100e+03	2.72752e+00	2.94250e+02
3059	2.96695e+02	3.05900e+03	2.72426e+00	2.94917e+02
3067	2.97361e+02	3.06700e+03	2.72093e+00	2.95583e+02
3075	2.98027e+02	3.07500e+03	2.71759e+00	2.96250e+02
3083	2.98700e+02	3.08300e+03	2.71414e+00	2.96917e+02
3091	2.99363e+02	3.09100e+03	2.71071e+00	2.97583e+02
3099	3.00044e+02	3.09900e+03	2.70727e+00	2.98250e+02
3107	3.00702e+02	3.10700e+03	2.70367e+00	2.98917e+02
3115	3.01376e+02	3.11500e+03	2.70029e+00	2.99583e+02
3123	3.02039e+02	3.12300e+03	2.69683e+00	3.00250e+02
3131	3.02702e+02	3.13100e+03	2.69325e+00	3.00917e+02
3139	3.03385e+02	3.13900e+03	2.68959e+00	3.01583e+02
3147	3.04053e+02	3.14700e+03	2.68617e+00	3.02250e+02
3155	3.04723e+02	3.15500e+03	2.68255e+00	3.02917e+02
3163	3.05390e+02	3.16300e+03	2.67874e+00	3.03583e+02
3171	3.06055e+02	3.17100e+03	2.67493e+00	3.04250e+02
3179	3.06715e+02	3.17900e+03	2.67111e+00	3.04917e+02
3187	3.07386e+02	3.18700e+03	2.66733e+00	3.05583e+02
3195	3.08052e+02	3.19500e+03	2.66343e+00	3.06250e+02
3203	3.08725e+02	3.20300e+03	2.65952e+00	3.06917e+02
3211	3.09384e+02	3.21100e+03	2.65539e+00	3.07583e+02
3219	3.10047e+02	3.21900e+03	2.65126e+00	3.08250e+02
3227	3.10713e+02	3.22700e+03	2.64679e+00	3.08917e+02
3235	3.11386e+02	3.23500e+03	2.64225e+00	3.09583e+02
3243	3.12057e+02	3.24300e+03	2.63776e+00	3.10250e+02
3251	3.12721e+02	3.25100e+03	2.63297e+00	3.10917e+02
3259	3.13385e+02	3.25900e+03	2.62813e+00	3.11583e+02
3267	3.14046e+02	3.26700e+03	2.62309e+00	3.12250e+02
3275	3.14715e+02	3.27500e+03	2.61760e+00	3.12917e+02
3283	3.15374e+02	3.28300e+03	2.61179e+00	3.13583e+02
3291	3.16042e+02	3.29100e+03	2.60594e+00	3.14250e+02
3299	3.16689e+02	3.29900e+03	2.60019e+00	3.14917e+02
3307	3.17361e+02	3.30700e+03	2.59401e+00	3.15583e+02
3315	3.18029e+02	3.31500e+03	2.58715e+00	3.16250e+02
3323	3.18689e+02	3.32300e+03	2.58043e+00	3.16917e+02
3331	3.19346e+02	3.33100e+03	2.57328e+00	3.17583e+02
3339	3.20004e+02	3.33900e+03	2.56571e+00	3.18250e+02
3347	3.20676e+02	3.34700e+03	2.55788e+00	3.18917e+02
3355	3.21332e+02	3.35500e+03	2.54972e+00	3.19583e+02
3363	3.21987e+02	3.36300e+03	2.54114e+00	3.20250e+02
3371	3.22656e+02	3.37100e+03	2.53209e+00	3.20917e+02
3379	3.23321e+02	3.37900e+03	2.52257e+00	3.21583e+02
3387	3.23972e+02	3.38700e+03	2.51272e+00	3.22250e+02
3395	3.24642e+02	3.39500e+03	2.50269e+00	3.22917e+02
3403	3.25300e+02	3.40300e+03	2.49200e+00	3.23583e+02
3411	3.25968e+02	3.41100e+03	2.48066e+00	3.24250e+02
3419	3.26636e+02	3.41900e+03	2.46915e+00	3.24917e+02
3427	3.27290e+02	3.42700e+03	2.45707e+00	3.25583e+02
3435	3.27953e+02	3.43500e+03	2.44437e+00	3.26250e+02
3443	3.28615e+02	3.44300e+03	2.43108e+00	3.26917e+02
3451	3.29283e+02	3.45100e+03	2.41701e+00	3.27583e+02
3459	3.29945e+02	3.45900e+03	2.40260e+00	3.28250e+02
3467	3.30596e+02	3.46700e+03	2.38753e+00	3.28917e+02
3475	3.31265e+02	3.47500e+03	2.37190e+00	3.29583e+02
3483	3.31937e+02	3.48300e+03	2.35564e+00	3.30250e+02
3491	3.32591e+02	3.49100e+03	2.33880e+00	3.30917e+02
3499	3.33251e+02	3.49900e+03	2.32132e+00	3.31583e+02
3507	3.33919e+02	3.50700e+03	2.30334e+00	3.32250e+02
3515	3.34582e+02	3.51500e+03	2.28441e+00	3.32917e+02
3523	3.35239e+02	3.52300e+03	2.26467e+00	3.33583e+02
3531	3.35649e+02	3.53100e+03	2.24443e+00	3.34250e+02
3539	3.36296e+02	3.53900e+03	2.22379e+00	3.34917e+02
3547	3.36947e+02	3.54700e+03	2.20245e+00	3.35583e+02
3555	3.37611e+02	3.55500e+03	2.18035e+00	3.36250e+02
3563	3.38267e+02	3.56300e+03	2.15730e+00	3.36917e+02
3571	3.38929e+02	3.57100e+03	2.13364e+00	3.37583e+02
3579	3.39589e+02	3.57900e+03	2.10961e+00	3.38250e+02
3587	3.40256e+02	3.58700e+03	2.08488e+00	3.38917e+02
3595	3.40914e+02	3.59500e+03	2.05950e+00	3.39583e+02
3603	3.41564e+02	3.60300e+03	2.03351e+00	3.40250e+02
3611	3.42237e+02	3.61100e+03	2.00683e+00	3.40917e+02
3619	3.42906e+02	3.61900e+03	1.97962e+00	3.41583e+02
3627	3.43566e+02	3.62700e+03	1.95191e+00	3.42250e+02
3635	3.44224e+02	3.63500e+03	1.92378e+00	3.42917e+02
3643	3.44881e+02	3.64300e+03	1.89488e+00	3.43583e+02
3651	3.45536e+02	3.65100e+03	1.86534e+00	3.44250e+02
3659	3.46211e+02	3.65900e+03	1.83548e+00	3.44917e+02
3667	3.46879e+02	3.66700e+03	1.80514e+00	3.45583e+02
3675	3.47544e+02	3.67500e+03	1.77417e+00	3.46250e+02
3683	3.48214e+02	3.68300e+03	1.74265e+00	3.46917e+02
3691	3.48886e+02	3.69100e+03	1.71071e+00	3.47583e+02
3699	3.49545e+02	3.69900e+03	1.67832e+00	3.48250e+02
3707	3.50232e+02	3.70700e+03	1.64551e+00	3.48917e+02
3715	3.50919e+02	3.71500e+03	1.61230e+00	3.49583e+02
3723	3.51591e+02	3.72300e+03	1.57911e+00	3.50250e+02
3731	3.52294e+02	3.73100e+03	1.54561e+00	3.50917e+02
3739	3.53008e+02	3.73900e+03	1.51186e+00	3.51583e+02
3747	3.53730e+02	3.74700e+03	1.47821e+00	3.52250e+02
3755	3.54461e+02	3.75500e+03	1.44451e+00	3.52917e+02
3763	3.55191e+02	3.76300e+03	1.41044e+00	3.53583e+02
3771	3.55881e+02	3.77100e+03	1.37608e+00	3.54250e+02
3779	3.56579e+02	3.77900e+03	1.34128e+00	3.54917e+02
3787	3.57282e+02	3.78700e+03	1.30699e+00	3.55583e+02
3795	3.57963e+02	3.79500e+03	1.27245e+00	3.56250e+02
3803	3.58651e+02	3.80300e+03	1.23805e+00	3.56917e+02
3811	3.59328e+02	3.81100e+03	1.20301e+00	3.57583e+02
3819	3.60012e+02	3.81900e+03	1.16761e+00	3.58250e+02
3827	3.60688e+02	3.82700e+03	1.13309e+00	3.58917e+02
3835	3.61359e+02	3.83500e+03	1.09664e+00	3.59583e+02
3843	3.62008e+02	3.84300e+03	1.06272e+00	3.60250e+02
3851	3.62708e+02	3.85100e+03	1.02860e+00	3.60917e+02
3859	3.63386e+02	3.85900e+03	9.92704e-01	3.61583e+02
3867	3.64078e+02	3.86700e+03	9.57950e-01	3.62250e+02
3875	3.64744e+02	3.87500e+03	9.24146e-01	3.62917e+02
3883	3.65410e+02	3.88300e+03	8.90642e-01	3.63583e+02
3891	3.66097e+02	3.89100e+03	8.57591e-01	3.64250e+02
3899	3.66792e+02	3.89900e+03	8.25160e-01	3.64917e+02
3907	3.67485e+02	3.90700e+03	7.93231e-01	3.65583e+02
3915	3.68159e+02	3.91500e+03	7.61749e-01	3.66250e+02
3923	3.68815e+02	3.92300e+03	7.31089e-01	3.66917e+02
3931	3.69482e+02	3.93100e+03	7.01000e-01	3.67583e+02
3939	3.70155e+02	3.93900e+03	6.71714e-01	3.68250e+02
3947	3.70823e+02	3.94700e+03	6.43088e-01	3.68917e+02
3955	3.71489e+02	3.95500e+03	6.15250e-01	3.69583e+02
3963	3.72145e+02	3.96300e+03	5.88213e-01	3.70250e+02
3971	3.72802e+02	3.97100e+03	5.61947e-01	3.70917e+02
3979	3.73478e+02	3.97900e+03	5.36342e-01	3.71583e+02
3987	3.74130e+02	3.98700e+03	5.11392e-01	3.72250e+02
3995	3.74798e+02	3.99500e+03	4.87417e-01	3.72917e+02
4003	3.75457e+02	4.00300e+03	4.64260e-01	3.73583e+02
4011	3.76120e+02	4.01100e+03	4.41795e-01	3.74250e+02
4019	3.76794e+02	4.01900e+03	4.20074e-01	3.74917e+02
4027	3.77448e+02	4.02700e+03	3.99111e-01	3.75583e+02
4035	3.78112e+02	4.03500e+03	3.79009e-01	3.76250e+02
4043	3.78780e+02	4.04300e+03	3.59681e-01	3.76917e+02
4051	3.79445e+02	4.05100e+03	3.41218e-01	3.77583e+02
4059	3.80110e+02	4.05900e+03	3.23330e-01	3.78250e+02
4067	3.80788e+02	4.06700e+03	3.06051e-01	3.78917e+02
4075	3.81466e+02	4.07500e+03	2.89748e-01	3.79583e+02
4083	3.82135e+02	4.08300e+03	2.74115e-01	3.80250e+02
4091	3.82807e+02	4.09100e+03	2.59206e-01	3.80917e+02
4099	3.83479e+02	4.09900e+03	2.45079e-01	3.81583e+02
4107	3.84148e+02	4.10700e+03	2.31436e-01	3.82250e+02
4115	3.84825e+02	4.11500e+03	2.18346e-01	3.82917e+02
4123	3.85489e+02	4.12300e+03	2.06002e-01	3.83583e+02
4131	3.86148e+02	4.13100e+03	1.94261e-01	3.84250e+02
4139	3.86844e+02	4.13900e+03	1.82958e-01	3.84917e+02
4147	3.87515e+02	4.14700e+03	1.72331e-01	3.85583e+02
4155	3.88198e+02	4.15500e+03	1.62516e-01	3.86250e+02
4163	3.88852e+02	4.16300e+03	1.53224e-01	3.86917e+02
4171	3.89551e+02	4.17100e+03	1.44493e-01	3.87583e+02
4179	3.90215e+02	4.17900e+03	1.36193e-01	3.88250e+02
4187	3.90893e+02	4.18700e+03	1.28234e-01	3.88917e+02
4195	3.91569e+02	4.19500e+03	1.20930e-01	3.89583e+02
4203	3.92235e+02	4.20300e+03	1.14150e-01	3.90250e+02
4211	3.92913e+02	4.21100e+03	1.07614e-01	3.90917e+02
4219	3.93605e+02	4.21900e+03	1.01554e-01	3.91583e+02
4227	3.94281e+02	4.22700e+03	9.57995e-02	3.92250e+02
4235	3.94959e+02	4.23500e+03	9.07179e-02	3.92917e+02
4243	3.95628e+02	4.24300e+03	8.60205e-02	3.93583e+02
4251	3.96301e+02	4.25100e+03	8.14683e-02	3.94250e+02
4259	3.96982e+02	4.25900e+03	7.74150e-02	3.94917e+02
4267	3.97658e+02	4.26700e+03	7.36192e-02	3.95583e+02
4275	3.98337e+02	4.27500e+03	6.99185e-02	3.96250e+02
4283	3.99023e+02	4.28300e+03	6.66410e-02	3.96917e+02
4291	3.99697e+02	4.29100e+03	6.35843e-02	3.97583e+02
4299	4.00390e+02	4.29900e+03	6.07739e-02	3.98250e+02
4307	4.01061e+02	4.30700e+03	5.82095e-02	3.98917e+02
4315	4.01734e+02	4.31500e+03	5.57924e-02	3.99583e+02
4323	4.02414e+02	4.32300e+03	5.36355e-02	4.00250e+02
4331	4.03073e+02	4.33100e+03	5.13766e-02	4.00917e+02
4339	4.03745e+02	4.33900e+03	4.94119e-02	4.01583e+02
4347	4.04428e+02	4.34700e+03	4.77670e-02	4.02250e+02
4355	4.05096e+02	4.35500e+03	4.61799e-02	4.02917e+02
4363	4.05759e+02	4.36300e+03	4.47106e-02	4.03583e+02
4371	4.06419e+02	4.37100e+03	4.33066e-02	4.04250e+02
4379	4.07085e+02	4.37900e+03	4.18918e-02	4.04917e+02
4387	4.07754e+02	4.38700e+03	4.07650e-02	4.05583e+02
4395	4.08469e+02	4.39500e+03	3.95879e-02	4.06250e+02
4403	4.09153e+02	4.40300e+03	3.86163e-02	4.06917e+02
4411	4.09820e+02	4.41100e+03	3.78675e-02	4.07583e+02
4419	4.10481e+02	4.41900e+03	3.68578e-02	4.08250e+02
4427	4.11147e+02	4.42700e+03	3.60021e-02	4.08917e+02
4435	4.11824e+02	4.43500e+03	3.53995e-02	4.09583e+02
4443	4.12509e+02	4.44300e+03	3.47477e-02	4.10250e+02
4451	4.13171e+02	4.45100e+03	3.40963e-02	4.10917e+02
4459	4.13829e+02	4.45900e+03	3.32839e-02	4.11583e+02
4467	4.14487e+02	4.46700e+03	3.27554e-02	4.12250e+02
4475	4.15138e+02	4.47500e+03	3.25144e-02	4.12917e+02
4483	4.15759e+02	4.48300e+03	3.20856e-02	4.13583e+02
4491	4.16400e+02	4.49100e+03	3.16912e-02	4.14250e+02
4499	4.17060e+02	4.49900e+03	3.14686e-02	4.14917e+02
4507	4.17702e+02	4.50700e+03	3.12155e-02	4.15583e+02
4515	4.18366e+02	4.51500e+03	3.08363e-02	4.16250e+02
4523	4.19032e+02	4.52300e+03	3.05432e-02	4.16917e+02
4531	4.19695e+02	4.53100e+03	3.03437e-02	4.17583e+02
4539	4.20314e+02	4.53900e+03	3.01627e-02	4.18250e+02
4547	4.20883e+02	4.54700e+03	2.98110e-02	4.18917e+02
4555	4.21491e+02	4.55500e+03	2.96749e-02	4.19583e+02
4563	4.22122e+02	4.56300e+03	2.94075e-02	4.20250e+02
4571	4.22767e+02	4.57100e+03	2.90676e-02	4.20917e+02
4579	4.23414e+02	4.57900e+03	2.88170e-02	4.21583e+02
4587	4.24054e+02	4.58700e+03	2.88536e-02	4.22250e+02
4595	4.24708e+02	4.59500e+03	2.86686e-02	4.22917e+02
4603	4.25354e+02	4.60300e+03	2.84507e-02	4.23583e+02
4611	4.26021e+02	4.61100e+03	2.85073e-02	4.24250e+02
4619	4.26670e+02	4.61900e+03	2.83395e-02	4.24917e+02
4627	4.27325e+02	4.62700e+03	2.82525e-02	4.25583e+02
4635	4.27990e+02	4.63500e+03	2.82780e-02	4.26250e+02
4643	4.28649e+02	4.64300e+03	2.82258e-02	4.26917e+02
4651	4.29301e+02	4.65100e+03	2.77175e-02	4.27583e+02
4659	4.29960e+02	4.65900e+03	2.77262e-02	4.28250e+02
4667	4.30614e+02	4.66700e+03	2.85633e-02	4.28917e+02
4675	4.31285e+02	4.67500e+03	2.82635e-02	4.29583e+02
4683	4.31944e+02	4.68300e+03	2.83296e-02	4.30250e+02
4691	4.32606e+02	4.69100e+03	2.82790e-02	4.30917e+02
4699	4.33264e+02	4.69900e+03	2.78881e-02	4.31583e+02
4707	4.33931e+02	4.70700e+03	2.79383e-02	4.32250e+02
4715	4.34599e+02	4.71500e+03	2.78771e-02	4.32917e+02
4723	4.35259e+02	4.72300e+03	2.72905e-02	4.33583e+02
4731	4.35927e+02	4.73100e+03	2.78661e-02	4.34250e+02
4739	4.36585e+02	4.73900e+03	2.82052e-02	4.34917e+02
4747	4.37243e+02	4.74700e+03	2.77724e-02	4.35583e+02
4755	4.37891e+02	4.75500e+03	2.75948e-02	4.36250e+02
4763	4.38557e+02	4.76300e+03	2.75863e-02	4.36917e+02
4771	4.39221e+02	4.77100e+03	2.78384e-02	4.37583e+02
4779	4.39878e+02	4.77900e+03	2.79539e-02	4.38250e+02
4787	4.40534e+02	4.78700e+03	2.76104e-02	4.38917e+02
4795	4.41210e+02	4.79500e+03	2.74017e-02	4.39583e+02
4803	4.41872e+02	4.80300e+03	2.75251e-02	4.40250e+02
4811	4.42538e+02	4.81100e+03	2.74878e-02	4.40917e+02
4819	4.43200e+02	4.81900e+03	2.68864e-02	4.41583e+02
4827	4.43857e+02	4.82700e+03	2.68704e-02	4.42250e+02
4835	4.44519e+02	4.83500e+03	2.72224e-02	4.42917e+02
4843	4.45190e+02	4.84300e+03	2.75234e-02	4.43583e+02
4851	4.45844e+02	4.85100e+03	2.77473e-02	4.44250e+02
4859	4.46503e+02	4.85900e+03	2.74423e-02	4.44917e+02
4867	4.47173e+02	4.86700e+03	2.73630e-02	4.45583e+02
4875	4.47836e+02	4.87500e+03	2.74669e-02	4.46250e+02
4883	4.48500e+02	4.88300e+03	2.74006e-02	4.46917e+02
4891	4.49170e+02	4.89100e+03	2.72892e-02	4.47583e+02
4899	4.49824e+02	4.89900e+03	2.71306e-02	4.48250e+02
4907	4.50478e+02	4.90700e+03	2.70810e-02	4.48917e+02
4915	4.51131e+02	4.91500e+03	2.70468e-02	4.49583e+02
4923	4.51797e+02	4.92300e+03	2.70258e-02	4.50250e+02
4931	4.52462e+02	4.93100e+03	2.71011e-02	4.50917e+02
4939	4.53128e+02	4.93900e+03	2.70338e-02	4.51583e+02
4947	4.53790e+02	4.94700e+03	2.69562e-02	4.52250e+02
4955	4.54437e+02	4.95500e+03	2.68734e-02	4.52917e+02
4963	4.55121e+02	4.96300e+03	2.69632e-02	4.53583e+02
4971	4.55768e+02	4.97100e+03	2.71061e-02	4.54250e+02
4979	4.56424e+02	4.97900e+03	2.69050e-02	4.54917e+02
4987	4.57084e+02	4.98700e+03	2.69457e-02	4.55583e+02
4995	4.57740e+02	4.99500e+03	2.68504e-02	4.56250e+02
5003	4.58412e+02	5.00300e+03	2.67027e-02	4.56917e+02
5011	4.59073e+02	5.01100e+03	2.67898e-02	4.57583e+02
5019	4.59737e+02	5.01900e+03	2.67510e-02	4.58250e+02
5027	4.60392e+02	5.02700e+03	2.67546e-02	4.58917e+02
5035	4.61070e+02	5.03500e+03	2.67348e-02	4.59583e+02
5043	4.61731e+02	5.04300e+03	2.67371e-02	4.60250e+02
5051	4.62386e+02	5.05100e+03	2.67097e-02	4.60917e+02
5059	4.63058e+02	5.05900e+03	2.67629e-02	4.61583e+02
5067	4.63709e+02	5.06700e+03	2.68620e-02	4.62250e+02
5075	4.64366e+02	5.07500e+03	2.67929e-02	4.62917e+02
5083	4.65040e+02	5.08300e+03	2.67312e-02	4.63583e+02
5091	4.65703e+02	5.09100e+03	2.67624e-02	4.64250e+02
5099	4.66374e+02	5.09900e+03	2.66849e-02	4.64917e+02
5107	4.67022e+02	5.10700e+03	2.67627e-02	4.65583e+02
5115	4.67682e+02	5.11500e+03	2.68805e-02	4.66250e+02
5123	4.68335e+02	5.12300e+03	2.67759e-02	4.66917e+02
5131	4.68998e+02	5.13100e+03	2.68060e-02	4.67583e+02
5139	4.69666e+02	5.13900e+03	2.68884e-02	4.68250e+02
5147	4.70328e+02	5.14700e+03	2.68988e-02	4.68917e+02
5155	4.70998e+02	5.15500e+03	2.67804e-02	4.69583e+02
5163	4.71669e+02	5.16300e+03	2.66796e-02	4.70250e+02
5171	4.72341e+02	5.17100e+03	2.65005e-02	4.70917e+02
5179	4.73004e+02	5.17900e+03	2.64163e-02	4.71583e+02
5187	4.73674e+02	5.18700e+03	2.64560e-02	4.72250e+02
5195	4.74322e+02	5.19500e+03	2.65253e-02	4.72917e+02
5203	4.74984e+02	5.20300e+03	2.65122e-02	4.73583e+02
5211	4.75636e+02	5.21100e+03	2.64553e-02	4.74250e+02
5219	4.76298e+02	5.21900e+03	2.64109e-02	4.74917e+02
5227	4.76958e+02	5.22700e+03	2.65288e-02	4.75583e+02
5235	4.77628e+02	5.23500e+03	2.64425e-02	4.76250e+02
5243	4.78272e+02	5.24300e+03	2.65654e-02	4.76917e+02
5251	4.78950e+02	5.25100e+03	2.65576e-02	4.77583e+02
5259	4.79614e+02	5.25900e+03	2.63525e-02	4.78250e+02
5267	4.80270e+02	5.26700e+03	2.63167e-02	4.78917e+02
5275	4.80930e+02	5.27500e+03	2.63887e-02	4.79583e+02
5283	4.81621e+02	5.28300e+03	2.63856e-02	4.80250e+02
5291	4.82283e+02	5.29100e+03	2.63465e-02	4.80917e+02
5299	4.82955e+02	5.29900e+03	2.62633e-02	4.81583e+02
5307	4.83616e+02	5.30700e+03	2.63439e-02	4.82250e+02
5315	4.84288e+02	5.31500e+03	2.63910e-02	4.82917e+02
5323	4.84956e+02	5.32300e+03	2.63508e-02	4.83583e+02
5331	4.85624e+02	5.33100e+03	2.63539e-02	4.84250e+02
5339	4.86288e+02	5.33900e+03	2.63172e-02	4.84917e+02
5347	4.86935e+02	5.34700e+03	2.64176e-02	4.85583e+02
5355	4.87592e+02	5.35500e+03	2.63875e-02	4.86250e+02
5363	4.88253e+02	5.36300e+03	2.62385e-02	4.86917e+02
5371	4.88894e+02	5.37100e+03	2.62048e-02	4.87583e+02
5379	4.89554e+02	5.37900e+03	2.62950e-02	4.88250e+02
5387	4.90219e+02	5.38700e+03	2.63151e-02	4.88917e+02
5395	4.90885e+02	5.39500e+03	2.63918e-02	4.89583e+02
5403	4.91545e+02	5.40300e+03	2.62909e-02	4.90250e+02
5411	4.92204e+02	5.41100e+03	2.61703e-02	4.90917e+02
5419	4.92871e+02	5.41900e+03	2.61776e-02	4.91583e+02
5427	4.93528e+02	5.42700e+03	2.62705e-02	4.92250e+02
5435	4.94182e+02	5.43500e+03	2.61619e-02	4.92917e+02
5443	4.94843e+02	5.44300e+03	2.60591e-02	4.93583e+02
5451	4.95507e+02	5.45100e+03	2.61819e-02	4.94250e+02
5459	4.96160e+02	5.45900e+03	2.61457e-02	4.94917e+02
5467	4.96823e+02	5.46700e+03	2.61456e-02	4.95583e+02
5475	4.97484e+02	5.47500e+03	2.61603e-02	4.96250e+02
5483	4.98130e+02	5.48300e+03	2.60511e-02	4.96917e+02
5491	4.98779e+02	5.49100e+03	2.60160e-02	4.97583e+02
5499	4.99438e+02	5.49900e+03	2.62112e-02	4.98250e+02
5507	5.00090e+02	5.50700e+03	2.63538e-02	4.98917e+02
5515	5.00738e+02	5.51500e+03	2.61093e-02	4.99583e+02
5523	5.01391e+02	5.52300e+03	2.59837e-02	5.00250e+02
5531	5.02065e+02	5.53100e+03	2.60369e-02	5.00917e+02
5539	5.02716e+02	5.53900e+03	2.62339e-02	5.01583e+02
5547	5.03377e+02	5.54700e+03	2.61440e-02	5.02250e+02
5555	5.04044e+02	5.55500e+03	2.61744e-02	5.02917e+02
5563	5.04689e+02	5.56300e+03	2.61498e-02	5.03583e+02
5571	5.05359e+02	5.57100e+03	2.61887e-02	5.04250e+02
5579	5.06016e+02	5.57900e+03	2.62200e-02	5.04917e+02
5587	5.06674e+02	5.58700e+03	2.60343e-02	5.05583e+02
5595	5.07336e+02	5.59500e+03	2.60213e-02	5.06250e+02
5603	5.08001e+02	5.60300e+03	2.60047e-02	5.06917e+02
5611	5.08645e+02	5.61100e+03	2.60017e-02	5.07583e+02
5619	5.09306e+02	5.61900e+03	2.61332e-02	5.08250e+02
5627	5.09968e+02	5.62700e+03	2.61699e-02	5.08917e+02
5635	5.10625e+02	5.63500e+03	2.60695e-02	5.09583e+02
5643	5.11271e+02	5.64300e+03	2.60128e-02	5.10250e+02
5651	5.11945e+02	5.65100e+03	2.60467e-02	5.10917e+02
5659	5.12607e+02	5.65900e+03	2.60274e-02	5.11583e+02
5667	5.13252e+02	5.66700e+03	2.59476e-02	5.12250e+02
5675	5.13925e+02	5.67500e+03	2.58792e-02	5.12917e+02
5683	5.14588e+02	5.68300e+03	2.59047e-02	5.13583e+02
5691	5.15255e+02	5.69100e+03	2.60326e-02	5.14250e+02
5699	5.15921e+02	5.69900e+03	2.58847e-02	5.14917e+02
5707	5.16578e+02	5.70700e+03	2.60288e-02	5.15583e+02
5715	5.17242e+02	5.71500e+03	2.61118e-02	5.16250e+02
5723	5.17909e+02	5.72300e+03	2.61955e-02	5.16917e+02
5731	5.18577e+02	5.73100e+03	2.61464e-02	5.17583e+02
5739	5.19240e+02	5.73900e+03	2.60543e-02	5.18250e+02
5747	5.19896e+02	5.74700e+03	2.60827e-02	5.18917e+02
5755	5.20553e+02	5.75500e+03	2.59084e-02	5.19583e+02
5763	5.21223e+02	5.76300e+03	2.59009e-02	5.20250e+02
5771	5.21882e+02	5.77100e+03	2.59372e-02	5.20917e+02
5779	5.22536e+02	5.77900e+03	2.58664e-02	5.21583e+02
5787	5.23196e+02	5.78700e+03	2.58235e-02	5.22250e+02
5795	5.23855e+02	5.79500e+03	2.58691e-02	5.22917e+02
5803	5.24506e+02	5.80300e+03	2.58173e-02	5.23583e+02
5811	5.25153e+02	5.81100e+03	2.57725e-02	5.24250e+02
5819	5.25801e+02	5.81900e+03	2.59239e-02	5.24917e+02
5827	5.26443e+02	5.82700e+03	2.59664e-02	5.25583e+02
5835	5.27102e+02	5.83500e+03	2.59387e-02	5.26250e+02
5843	5.27747e+02	5.84300e+03	2.58857e-02	5.26917e+02
5851	5.28411e+02	5.85100e+03	2.58141e-02	5.27583e+02
5859	5.29070e+02	5.85900e+03	2.58446e-02	5.28250e+02
5867	5.29729e+02	5.86700e+03	2.58964e-02	5.28917e+02
5875	5.30386e+02	5.87500e+03	2.58157e-02	5.29583e+02
5883	5.31037e+02	5.88300e+03	2.57959e-02	5.30250e+02
5891	5.31701e+02	5.89100e+03	2.60032e-02	5.30917e+02
5899	5.32361e+02	5.89900e+03	2.62162e-02	5.31583e+02
5907	5.33017e+02	5.90700e+03	2.61095e-02	5.32250e+02
5915	5.33664e+02	5.91500e+03	2.60751e-02	5.32917e+02
5923	5.34330e+02	5.92300e+03	2.60424e-02	5.33583e+02
5931	5.34984e+02	5.93100e+03	2.59906e-02	5.34250e+02
5939	5.35636e+02	5.93900e+03	2.58947e-02	5.34917e+02
5947	5.36292e+02	5.94700e+03	2.58900e-02	5.35583e+02
5955	5.36956e+02	5.95500e+03	2.58869e-02	5.36250e+02
5963	5.37623e+02	5.96300e+03	2.59399e-02	5.36917e+02
5971	5.38275e+02	5.97100e+03	2.59611e-02	5.37583e+02
5979	5.38923e+02	5.97900e+03	2.58753e-02	5.38250e+02
5987	5.39589e+02	5.98700e+03	2.59406e-02	5.38917e+02
5995	5.40256e+02	5.99500e+03	2.59661e-02	5.39583e+02
6003	5.40904e+02	6.00300e+03	2.59223e-02	5.40250e+02
6011	5.41565e+02	6.01100e+03	2.58182e-02	5.40917e+02
6019	5.42229e+02	6.01900e+03	2.58008e-02	5.41583e+02
6027	5.42897e+02	6.02700e+03	2.58121e-02	5.42250e+02
6035	5.43557e+02	6.03500e+03	2.58585e-02	5.42917e+02
6043	5.44209e+02	6.04300e+03	2.57764e-02	5.43583e+02
6051	5.44869e+02	6.05100e+03	2.57494e-02	5.44250e+02
6059	5.45527e+02	6.05900e+03	2.56686e-02	5.44917e+02
6067	5.46200e+02	6.06700e+03	2.58018e-02	5.45583e+02
6075	5.46873e+02	6.07500e+03	2.58976e-02	5.46250e+02
6083	5.47555e+02	6.08300e+03	2.58974e-02	5.46917e+02
6091	5.48221e+02	6.09100e+03	2.59232e-02	5.47583e+02
6099	5.48891e+02	6.09900e+03	2.59675e-02	5.48250e+02
6107	5.49563e+02	6.10700e+03	2.58813e-02	5.48917e+02
6115	5.50247e+02	6.11500e+03	2.58167e-02	5.49583e+02
6123	5.50910e+02	6.12300e+03	2.58969e-02	5.50250e+02
6131	5.51578e+02	6.13100e+03	2.57738e-02	5.50917e+02
6139	5.52265e+02	6.13900e+03	2.57698e-02	5.51583e+02
6147	5.52931e+02	6.14700e+03	2.57396e-02	5.52250e+02
6155	5.53595e+02	6.15500e+03	2.57093e-02	5.52917e+02
6163	5.54264e+02	6.16300e+03	2.58684e-02	5.53583e+02
6171	5.54921e+02	6.17100e+03	2.58075e-02	5.54250e+02
6179	5.55564e+02	6.17900e+03	2.57312e-02	5.54917e+02
6187	5.56226e+02	6.18700e+03	2.58326e-02	5.55583e+02
6195	5.56882e+02	6.19500e+03	2.57963e-02	5.56250e+02
6203	5.57546e+02	6.20300e+03	2.57376e-02	5.56917e+02
6211	5.58213e+02	6.21100e+03	2.57905e-02	5.57583e+02
6219	5.58851e+02	6.21900e+03	2.57983e-02	5.58250e+02
6227	5.59496e+02	6.22700e+03	2.58269e-02	5.58917e+02
6235	5.60164e+02	6.23500e+03	2.57224e-02	5.59583e+02
6243	5.60828e+02	6.24300e+03	2.57075e-02	5.60250e+02
6251	5.61492e+02	6.25100e+03	2.56661e-02	5.60917e+02
6259	5.62153e+02	6.25900e+03	2.56544e-02	5.61583e+02
6267	5.62819e+02	6.26700e+03	2.56310e-02	5.62250e+02
6275	5.63489e+02	6.27500e+03	2.57398e-02	5.62917e+02
6283	5.64143e+02	6.28300e+03	2.56192e-02	5.63583e+02
6291	5.64802e+02	6.29100e+03	2.54774e-02	5.64250e+02
6299	5.65460e+02	6.29900e+03	2.55104e-02	5.64917e+02
6307	5.66100e+02	6.30700e+03	2.54801e-02	5.65583e+02
6315	5.66755e+02	6.31500e+03	2.55225e-02	5.66250e+02
6323	5.67402e+02	6.32300e+03	2.55706e-02	5.66917e+02
6331	5.68058e+02	6.33100e+03	2.54429e-02	5.67583e+02
6339	5.68704e+02	6.33900e+03	2.55135e-02	5.68250e+02
6347	5.69361e+02	6.34700e+03	2.55852e-02	5.68917e+02
6355	5.70024e+02	6.35500e+03	2.55974e-02	5.69583e+02
6363	5.70694e+02	6.36300e+03	2.55997e-02	5.70250e+02
6371	5.71361e+02	6.37100e+03	2.54606e-02	5.70917e+02
6379	5.72047e+02	6.37900e+03	2.54381e-02	5.71583e+02
6387	5.72741e+02	6.38700e+03	2.55410e-02	5.72250e+02
6395	5.73502e+02	6.39500e+03	2.55601e-02	5.72917e+02
6403	5.74260e+02	6.40300e+03	2.55799e-02	5.73583e+02
6411	5.75060e+02	6.41100e+03	2.55252e-02	5.74250e+02
6419	5.75793e+02	6.41900e+03	2.55742e-02	5.74917e+02
6427	5.76508e+02	6.42700e+03	2.55838e-02	5.75583e+02
6435	5.77182e+02	6.43500e+03	2.55035e-02	5.76250e+02
6443	5.77849e+02	6.44300e+03	2.54278e-02	5.76917e+02
6451	5.78507e+02	6.45100e+03	2.54827e-02	5.77583e+02
6459	5.79150e+02	6.45900e+03	2.54148e-02	5.78250e+02
6467	5.79777e+02	6.46700e+03	2.55305e-02	5.78917e+02
6475	5.80402e+02	6.47500e+03	2.54832e-02	5.79583e+02
6483	5.81005e+02	6.48300e+03	2.54042e-02	5.80250e+02
6491	5.81650e+02	6.49100e+03	2.54547e-02	5.80917e+02
6499	5.82291e+02	6.49900e+03	2.54989e-02	5.81583e+02
6507	5.82923e+02	6.50700e+03	2.55025e-02	5.82250e+02
6515	5.83567e+02	6.51500e+03	2.54815e-02	5.82917e+02
6523	5.84199e+02	6.52300e+03	2.54771e-02	5.83583e+02
6531	5.84860e+02	6.53100e+03	2.54885e-02	5.84250e+02
6539	5.85564e+02	6.53900e+03	2.55439e-02	5.84917e+02
6547	5.86270e+02	6.54700e+03	2.56361e-02	5.85583e+02
6555	5.86936e+02	6.55500e+03	2.56101e-02	5.86250e+02
6563	5.87602e+02	6.56300e+03	2.55116e-02	5.86917e+02
6571	5.88395e+02	6.57100e+03	2.54538e-02	5.87583e+02
6579	5.89471e+02	6.57900e+03	2.53770e-02	5.88250e+02
6587	5.89882e+02	6.58700e+03	2.53788e-02	5.88917e+02
6595	5.90380e+02	6.59500e+03	2.53755e-02	5.89583e+02
6603	5.90984e+02	6.60300e+03	2.54640e-02	5.90250e+02
6611	5.91614e+02	6.61100e+03	2.53118e-02	5.90917e+02
6619	5.92266e+02	6.61900e+03	2.53241e-02	5.91583e+02
6627	5.92909e+02	6.62700e+03	2.53180e-02	5.92250e+02
6635	5.93553e+02	6.63500e+03	2.53836e-02	5.92917e+02
6643	5.94205e+02	6.64300e+03	2.53545e-02	5.93583e+02
6651	5.94851e+02	6.65100e+03	2.53178e-02	5.94250e+02
6659	5.95493e+02	6.65900e+03	2.53939e-02	5.94917e+02
6667	5.96144e+02	6.66700e+03	2.54757e-02	5.95583e+02
6675	5.96807e+02	6.67500e+03	2.53606e-02	5.96250e+02
6683	5.97441e+02	6.68300e+03	2.53486e-02	5.96917e+02
6691	5.98106e+02	6.69100e+03	2.53882e-02	5.97583e+02
6699	5.98760e+02	6.69900e+03	2.53990e-02	5.98250e+02
6707	5.99409e+02	6.70700e+03	2.54275e-02	5.98917e+02
6715	6.00066e+02	6.71500e+03	2.53740e-02	5.99583e+02
6723	6.00723e+02	6.72300e+03	2.53540e-02	6.00250e+02
6731	6.01381e+02	6.73100e+03	2.54140e-02	6.00917e+02
6739	6.02028e+02	6.73900e+03	2.53656e-02	6.01583e+02
6747	6.02675e+02	6.74700e+03	2.53242e-02	6.02250e+02
6755	6.03319e+02	6.75500e+03	2.52759e-02	6.02917e+02
6763	6.03973e+02	6.76300e+03	2.52015e-02	6.03583e+02
6771	6.04633e+02	6.77100e+03	2.52534e-02	6.04250e+02
6779	6.05287e+02	6.77900e+03	2.51625e-02	6.04917e+02
6787	6.05950e+02	6.78700e+03	2.51917e-02	6.05583e+02
6795	6.06596e+02	6.79500e+03	2.51679e-02	6.06250e+02
6803	6.07260e+02	6.80300e+03	2.50734e-02	6.06917e+02
6811	6.07909e+02	6.81100e+03	2.51212e-02	6.07583e+02
6819	6.08577e+02	6.81900e+03	2.51050e-02	6.08250e+02
6827	6.09234e+02	6.82700e+03	2.52128e-02	6.08917e+02
6835	6.09897e+02	6.83500e+03	2.52269e-02	6.09583e+02
6843	6.10558e+02	6.84300e+03	2.51995e-02	6.10250e+02
6851	6.11212e+02	6.85100e+03	2.51343e-02	6.10917e+02
6859	6.11868e+02	6.85900e+03	2.51407e-02	6.11583e+02
6867	6.12527e+02	6.86700e+03	2.51219e-02	6.12250e+02
6875	6.13187e+02	6.87500e+03	2.51987e-02	6.12917e+02
6883	6.13853e+02	6.88300e+03	2.51700e-02	6.13583e+02
6891	6.14508e+02	6.89100e+03	2.50951e-02	6.14250e+02
6899	6.15161e+02	6.89900e+03	2.51014e-02	6.14917e+02
6907	6.15828e+02	6.90700e+03	2.50540e-02	6.15583e+02
6915	6.16489e+02	6.91500e+03	2.49440e-02	6.16250e+02
6923	6.17140e+02	6.92300e+03	2.49736e-02	6.16917e+02
6931	6.17799e+02	6.93100e+03	2.50767e-02	6.17583e+02
6939	6.18449e+02	6.93900e+03	2.51569e-02	6.18250e+02
6947	6.19125e+02	6.94700e+03	2.50647e-02	6.18917e+02
6955	6.19778e+02	6.95500e+03	2.50052e-02	6.19583e+02
6963	6.20436e+02	6.96300e+03	2.50464e-02	6.20250e+02
6971	6.21105e+02	6.97100e+03	2.49824e-02	6.20917e+02
6979	6.21761e+02	6.97900e+03	2.49786e-02	6.21583e+02
6987	6.22427e+02	6.98700e+03	2.49557e-02	6.22250e+02
6995	6.23094e+02	6.99500e+03	2.49943e-02	6.22917e+02
7003	6.23754e+02	7.00300e+03	2.50060e-02	6.23583e+02
7011	6.24414e+02	7.01100e+03	2.49013e-02	6.24250e+02
7019	6.25067e+02	7.01900e+03	2.50626e-02	6.24917e+02
7027	6.25742e+02	7.02700e+03	2.51538e-02	6.25583e+02
7035	6.26394e+02	7.03500e+03	2.50258e-02	6.26250e+02
7043	6.27064e+02	7.04300e+03	2.49883e-02	6.26917e+02
7051	6.27722e+02	7.05100e+03	2.50359e-02	6.27583e+02
7059	6.28382e+02	7.05900e+03	2.49770e-02	6.28250e+02
7067	6.29036e+02	7.06700e+03	2.49440e-02	6.28917e+02
7075	6.29698e+02	7.07500e+03	2.49831e-02	6.29583e+02
7083	6.30360e+02	7.08300e+03	2.50249e-02	6.30250e+02
7091	6.31021e+02	7.09100e+03	2.49916e-02	6.30917e+02
7099	6.31678e+02	7.09900e+03	2.49069e-02	6.31583e+02
7107	6.32339e+02	7.10700e+03	2.48324e-02	6.32250e+02
7115	6.32995e+02	7.11500e+03	2.49469e-02	6.32917e+02
7123	6.33651e+02	7.12300e+03	2.49768e-02	6.33583e+02
7131	6.34308e+02	7.13100e+03	2.49860e-02	6.34250e+02
7139	6.34972e+02	7.13900e+03	2.49949e-02	6.34917e+02
7147	6.35631e+02	7.14700e+03	2.50389e-02	6.35583e+02
7155	6.36288e+02	7.15500e+03	2.48234e-02	6.36250e+02
7163	6.36945e+02	7.16300e+03	2.45674e-02	6.36917e+02
7171	6.37609e+02	7.17100e+03	2.46692e-02	6.37583e+02
7179	6.38269e+02	7.17900e+03	2.47452e-02	6.38250e+02
7187	6.38935e+02	7.18700e+03	2.48058e-02	6.38917e+02
7195	6.39585e+02	7.19500e+03	2.47353e-02	6.39583e+02
7203	6.40254e+02	7.20300e+03	2.46958e-02	6.40250e+02
7211	6.40922e+02	7.21100e+03	2.46855e-02	6.40917e+02
7219	6.41580e+02	7.21900e+03	2.47339e-02	6.41583e+02
7227	6.42239e+02	7.22700e+03	2.47516e-02	6.42250e+02
7235	6.42906e+02	7.23500e+03	2.46562e-02	6.42917e+02
7243	6.43551e+02	7.24300e+03	2.46836e-02	6.43583e+02
7251	6.44221e+02	7.25100e+03	2.46962e-02	6.44250e+02
7259	6.44877e+02	7.25900e+03	2.46489e-02	6.44917e+02
7267	6.45545e+02	7.26700e+03	2.45608e-02	6.45583e+02
7275	6.46198e+02	7.27500e+03	2.46273e-02	6.46250e+02
7283	6.46861e+02	7.28300e+03	2.46116e-02	6.46917e+02
7291	6.47529e+02	7.29100e+03	2.46409e-02	6.47583e+02
7299	6.48182e+02	7.29900e+03	2.46427e-02	6.48250e+02
7307	6.48849e+02	7.30700e+03	2.45219e-02	6.48917e+02
7315	6.49513e+02	7.31500e+03	2.45641e-02	6.49583e+02
7323	6.50174e+02	7.32300e+03	2.46380e-02	6.50250e+02
7331	6.50817e+02	7.33100e+03	2.46374e-02	6.50917e+02
7339	6.51491e+02	7.33900e+03	2.45770e-02	6.51583e+02
7347	6.52149e+02	7.34700e+03	2.44802e-02	6.52250e+02
7355	6.52814e+02	7.35500e+03	2.45879e-02	6.52917e+02
7363	6.53469e+02	7.36300e+03	2.45457e-02	6.53583e+02
7371	6.54134e+02	7.37100e+03	2.44651e-02	6.54250e+02
7379	6.54782e+02	7.37900e+03	2.44529e-02	6.54917e+02
7387	6.55448e+02	7.38700e+03	2.43280e-02	6.55583e+02
7395	6.56111e+02	7.39500e+03	2.43307e-02	6.56250e+02
7403	6.56770e+02	7.40300e+03	2.44425e-02	6.56917e+02
7411	6.57435e+02	7.41100e+03	2.45097e-02	6.57583e+02
7419	6.58095e+02	7.41900e+03	2.45728e-02	6.58250e+02
7427	6.58758e+02	7.42700e+03	2.44273e-02	6.58917e+02
7435	6.59418e+02	7.43500e+03	2.43442e-02	6.59583e+02
7443	6.60073e+02	7.44300e+03	2.42995e-02	6.60250e+02
7451	6.60739e+02	7.45100e+03	2.42096e-02	6.60917e+02
7459	6.61400e+02	7.45900e+03	2.42583e-02	6.61583e+02
7467	6.62055e+02	7.46700e+03	2.42020e-02	6.62250e+02
7475	6.62729e+02	7.47500e+03	2.42451e-02	6.62917e+02
7483	6.63381e+02	7.48300e+03	2.41793e-02	6.63583e+02
7491	6.64040e+02	7.49100e+03	2.42285e-02	6.64250e+02
7499	6.64695e+02	7.49900e+03	2.43953e-02	6.64917e+02
7507	6.65364e+02	7.50700e+03	2.43272e-02	6.65583e+02
7515	6.66027e+02	7.51500e+03	2.43499e-02	6.66250e+02
7523	6.66705e+02	7.52300e+03	2.43382e-02	6.66917e+02
7531	6.67365e+02	7.53100e+03	2.42921e-02	6.67583e+02
7539	6.68028e+02	7.53900e+03	2.43045e-02	6.68250e+02
7547	6.68687e+02	7.54700e+03	2.43170e-02	6.68917e+02
7555	6.69344e+02	7.55500e+03	2.43959e-02	6.69583e+02
7563	6.70008e+02	7.56300e+03	2.43056e-02	6.70250e+02
7571	6.70672e+02	7.57100e+03	2.42974e-02	6.70917e+02
7579	6.71340e+02	7.57900e+03	2.43211e-02	6.71583e+02
7587	6.72000e+02	7.58700e+03	2.43162e-02	6.72250e+02
7595	6.72664e+02	7.59500e+03	2.43092e-02	6.72917e+02
7603	6.73338e+02	7.60300e+03	2.44310e-02	6.73583e+02
7611	6.73995e+02	7.61100e+03	2.44300e-02	6.74250e+02
7619	6.74656e+02	7.61900e+03	2.43086e-02	6.74917e+02
7627	6.75331e+02	7.62700e+03	2.43394e-02	6.75583e+02
7635	6.75990e+02	7.63500e+03	2.42268e-02	6.76250e+02
7643	6.76669e+02	7.64300e+03	2.41703e-02	6.76917e+02
7651	6.77334e+02	7.65100e+03	2.43041e-02	6.77583e+02
7659	6.77987e+02	7.65900e+03	2.42292e-02	6.78250e+02
7667	6.78657e+02	7.66700e+03	2.42021e-02	6.78917e+02
7675	6.79323e+02	7.67500e+03	2.43515e-02	6.79583e+02
7683	6.79991e+02	7.68300e+03	2.41969e-02	6.80250e+02
7691	6.80646e+02	7.69100e+03	2.42287e-02	6.80917e+02
7699	6.81320e+02	7.69900e+03	2.42935e-02	6.81583e+02
7707	6.81977e+02	7.70700e+03	2.42746e-02	6.82250e+02
7715	6.82653e+02	7.71500e+03	2.41447e-02	6.82917e+02
7723	6.83308e+02	7.72300e+03	2.40767e-02	6.83583e+02
7731	6.83978e+02	7.73100e+03	2.41251e-02	6.84250e+02
7739	6.84645e+02	7.73900e+03	2.41622e-02	6.84917e+02
7747	6.85311e+02	7.74700e+03	2.42095e-02	6.85583e+02
7755	6.85985e+02	7.75500e+03	2.42392e-02	6.86250e+02
7763	6.86648e+02	7.76300e+03	2.41790e-02	6.86917e+02
7771	6.87310e+02	7.77100e+03	2.41649e-02	6.87583e+02
7779	6.87979e+02	7.77900e+03	2.41791e-02	6.88250e+02
7787	6.88646e+02	7.78700e+03	2.42097e-02	6.88917e+02
7795	6.89320e+02	7.79500e+03	2.41985e-02	6.89583e+02
7803	6.89976e+02	7.80300e+03	2.42258e-02	6.90250e+02
7811	6.90649e+02	7.81100e+03	2.42465e-02	6.90917e+02
7819	6.91304e+02	7.81900e+03	2.40762e-02	6.91583e+02
7827	6.91983e+02	7.82700e+03	2.41391e-02	6.92250e+02
7835	6.92643e+02	7.83500e+03	2.40917e-02	6.92917e+02
7843	6.93298e+02	7.84300e+03	2.41170e-02	6.93583e+02
7851	6.93965e+02	7.85100e+03	2.40676e-02	6.94250e+02
7859	6.94636e+02	7.85900e+03	2.39829e-02	6.94917e+02
7867	6.95301e+02	7.86700e+03	2.38346e-02	6.95583e+02
7875	6.95965e+02	7.87500e+03	2.39180e-02	6.96250e+02
7883	6.96633e+02	7.88300e+03	2.39732e-02	6.96917e+02
7891	6.97310e+02	7.89100e+03	2.40067e-02	6.97583e+02
7899	6.97830e+02	7.89900e+03	2.42159e-02	6.98250e+02
7907	6.98283e+02	7.90700e+03	2.42163e-02	6.98917e+02
7915	6.98634e+02	7.91500e+03	2.40266e-02	6.99583e+02
7920	6.98818e+02	7.92000e+03	2.40040e-02	7.00000e+02