File: Experiments/TGA/TUBS/tga_nonisotherm/tga_dynamic_n2_dyn20_powder_2mg_r1.txt
index	ts	t	weight	tr
[#]	[°C]	[s]	[mg]	[°C]
723	1.31133e+02	7.23000e+02	2.02239e+00	1.31000e+02
725	1.31810e+02	7.25000e+02	2.02238e+00	1.31667e+02
727	1.32467e+02	7.27000e+02	2.02235e+00	1.32333e+02
729	1.33159e+02	7.29000e+02	2.02232e+00	1.33000e+02
731	1.33823e+02	7.31000e+02	2.02230e+00	1.33667e+02
733	1.34479e+02	7.33000e+02	2.02227e+00	1.34333e+02
735	1.35173e+02	7.35000e+02	2.02223e+00	1.35000e+02
737	1.35833e+02	7.37000e+02	2.02216e+00	1.35667e+02
739	1.36517e+02	7.39000e+02	2.02209e+00	1.36333e+02
741	1.37182e+02	7.41000e+02	2.02200e+00	1.37000e+02
743	1.37854e+02	7.43000e+02	2.02192e+00	1.37667e+02
745	1.38526e+02	7.45000e+02	2.02183e+00	1.38333e+02
747	1.39188e+02	7.47000e+02	2.02173e+00	1.39000e+02
749	1.39878e+02	7.49000e+02	2.02161e+00	1.39667e+02
751	1.40550e+02	7.51000e+02	2.02150e+00	1.40333e+02
753	1.41231e+02	7.53000e+02	2.02140e+00	1.41000e+02
755	1.41892e+02	7.55000e+02	2.02131e+00	1.41667e+02
757	1.42573e+02	7.57000e+02	2.02124e+00	1.42333e+02
759	1.43264e+02	7.59000e+02	2.02115e+00	1.43000e+02
761	1.43917e+02	7.61000e+02	2.02104e+00	1.43667e+02
763	1.44586e+02	7.63000e+02	2.02092e+00	1.44333e+02
765	1.45270e+02	7.65000e+02	2.02077e+00	1.45000e+02
767	1.45939e+02	7.67000e+02	2.02062e+00	1.45667e+02
769	1.46621e+02	7.69000e+02	2.02047e+00	1.46333e+02
771	1.47293e+02	7.71000e+02	2.02031e+00	1.47000e+02
773	1.47966e+02	7.73000e+02	2.02016e+00	1.47667e+02
775	1.48652e+02	7.75000e+02	2.01999e+00	1.48333e+02
777	1.49321e+02	7.77000e+02	2.01980e+00	1.49000e+02
779	1.50007e+02	7.79000e+02	2.01961e+00	1.49667e+02
781	1.50672e+02	7.81000e+02	2.01941e+00	1.50333e+02
783	1.51331e+02	7.83000e+02	2.01921e+00	1.51000e+02
785	1.52026e+02	7.85000e+02	2.01899e+00	1.51667e+02
787	1.52697e+02	7.87000e+02	2.01876e+00	1.52333e+02
789	1.53372e+02	7.89000e+02	2.01852e+00	1.53000e+02
791	1.54052e+02	7.91000e+02	2.01828e+00	1.53667e+02
793	1.54734e+02	7.93000e+02	2.01805e+00	1.54333e+02
795	1.55408e+02	7.95000e+02	2.01782e+00	1.55000e+02
797	1.56075e+02	7.97000e+02	2.01760e+00	1.55667e+02
799	1.56747e+02	7.99000e+02	2.01738e+00	1.56333e+02
801	1.57428e+02	8.01000e+02	2.01716e+00	1.57000e+02
803	1.58110e+02	8.03000e+02	2.01692e+00	1.57667e+02
805	1.58781e+02	8.05000e+02	2.01664e+00	1.58333e+02
807	1.59456e+02	8.07000e+02	2.01636e+00	1.59000e+02
809	1.60133e+02	8.09000e+02	2.01605e+00	1.59667e+02
811	1.60809e+02	8.11000e+02	2.01577e+00	1.60333e+02
813	1.61490e+02	8.13000e+02	2.01552e+00	1.61000e+02
815	1.62160e+02	8.15000e+02	2.01526e+00	1.61667e+02
817	1.62848e+02	8.17000e+02	2.01499e+00	1.62333e+02
819	1.63519e+02	8.19000e+02	2.01472e+00	1.63000e+02
821	1.64194e+02	8.21000e+02	2.01444e+00	1.63667e+02
823	1.64883e+02	8.23000e+02	2.01416e+00	1.64333e+02
825	1.65552e+02	8.25000e+02	2.01387e+00	1.65000e+02
827	1.66239e+02	8.27000e+02	2.01359e+00	1.65667e+02
829	1.66906e+02	8.29000e+02	2.01328e+00	1.66333e+02
831	1.67584e+02	8.31000e+02	2.01296e+00	1.67000e+02
833	1.68252e+02	8.33000e+02	2.01259e+00	1.67667e+02
835	1.68936e+02	8.35000e+02	2.01221e+00	1.68333e+02
837	1.69612e+02	8.37000e+02	2.01180e+00	1.69000e+02
839	1.70301e+02	8.39000e+02	2.01139e+00	1.69667e+02
841	1.70964e+02	8.41000e+02	2.01095e+00	1.70333e+02
843	1.71646e+02	8.43000e+02	2.01049e+00	1.71000e+02
845	1.72318e+02	8.45000e+02	2.00997e+00	1.71667e+02
847	1.73001e+02	8.47000e+02	2.00942e+00	1.72333e+02
849	1.73677e+02	8.49000e+02	2.00880e+00	1.73000e+02
851	1.74354e+02	8.51000e+02	2.00817e+00	1.73667e+02
853	1.75039e+02	8.53000e+02	2.00748e+00	1.74333e+02
855	1.75720e+02	8.55000e+02	2.00678e+00	1.75000e+02
857	1.76387e+02	8.57000e+02	2.00603e+00	1.75667e+02
859	1.77068e+02	8.59000e+02	2.00526e+00	1.76333e+02
861	1.77739e+02	8.61000e+02	2.00441e+00	1.77000e+02
863	1.78415e+02	8.63000e+02	2.00352e+00	1.77667e+02
865	1.79094e+02	8.65000e+02	2.00254e+00	1.78333e+02
867	1.79785e+02	8.67000e+02	2.00155e+00	1.79000e+02
869	1.80469e+02	8.69000e+02	2.00050e+00	1.79667e+02
871	1.81148e+02	8.71000e+02	1.99944e+00	1.80333e+02
873	1.81817e+02	8.73000e+02	1.99832e+00	1.81000e+02
875	1.82497e+02	8.75000e+02	1.99717e+00	1.81667e+02
877	1.83171e+02	8.77000e+02	1.99596e+00	1.82333e+02
879	1.83854e+02	8.79000e+02	1.99472e+00	1.83000e+02
881	1.84543e+02	8.81000e+02	1.99342e+00	1.83667e+02
883	1.85221e+02	8.83000e+02	1.99211e+00	1.84333e+02
885	1.85896e+02	8.85000e+02	1.99073e+00	1.85000e+02
887	1.86574e+02	8.87000e+02	1.98934e+00	1.85667e+02
889	1.87256e+02	8.89000e+02	1.98789e+00	1.86333e+02
891	1.87931e+02	8.91000e+02	1.98641e+00	1.87000e+02
893	1.88613e+02	8.93000e+02	1.98489e+00	1.87667e+02
895	1.89283e+02	8.95000e+02	1.98339e+00	1.88333e+02
897	1.89969e+02	8.97000e+02	1.98191e+00	1.89000e+02
899	1.90657e+02	8.99000e+02	1.98045e+00	1.89667e+02
901	1.91341e+02	9.01000e+02	1.97902e+00	1.90333e+02
903	1.91994e+02	9.03000e+02	1.97757e+00	1.91000e+02
905	1.92676e+02	9.05000e+02	1.97612e+00	1.91667e+02
907	1.93362e+02	9.07000e+02	1.97465e+00	1.92333e+02
909	1.94052e+02	9.09000e+02	1.97317e+00	1.93000e+02
911	1.94719e+02	9.11000e+02	1.97171e+00	1.93667e+02
913	1.95406e+02	9.13000e+02	1.97028e+00	1.94333e+02
915	1.96071e+02	9.15000e+02	1.96888e+00	1.95000e+02
917	1.96755e+02	9.17000e+02	1.96755e+00	1.95667e+02
919	1.97437e+02	9.19000e+02	1.96623e+00	1.96333e+02
921	1.98109e+02	9.21000e+02	1.96499e+00	1.97000e+02
923	1.98791e+02	9.23000e+02	1.96376e+00	1.97667e+02
925	1.99468e+02	9.25000e+02	1.96261e+00	1.98333e+02
927	2.00161e+02	9.27000e+02	1.96147e+00	1.99000e+02
929	2.00837e+02	9.29000e+02	1.96043e+00	1.99667e+02
931	2.01503e+02	9.31000e+02	1.95944e+00	2.00333e+02
933	2.02184e+02	9.33000e+02	1.95859e+00	2.01000e+02
935	2.02861e+02	9.35000e+02	1.95776e+00	2.01667e+02
937	2.03532e+02	9.37000e+02	1.95703e+00	2.02333e+02
939	2.04214e+02	9.39000e+02	1.95630e+00	2.03000e+02
941	2.04895e+02	9.41000e+02	1.95561e+00	2.03667e+02
943	2.05575e+02	9.43000e+02	1.95494e+00	2.04333e+02
945	2.06245e+02	9.45000e+02	1.95433e+00	2.05000e+02
947	2.06935e+02	9.47000e+02	1.95376e+00	2.05667e+02
949	2.07614e+02	9.49000e+02	1.95327e+00	2.06333e+02
951	2.08319e+02	9.51000e+02	1.95279e+00	2.07000e+02
953	2.08990e+02	9.53000e+02	1.95236e+00	2.07667e+02
955	2.09663e+02	9.55000e+02	1.95193e+00	2.08333e+02
957	2.10349e+02	9.57000e+02	1.95153e+00	2.09000e+02
959	2.11026e+02	9.59000e+02	1.95115e+00	2.09667e+02
961	2.11713e+02	9.61000e+02	1.95080e+00	2.10333e+02
963	2.12379e+02	9.63000e+02	1.95045e+00	2.11000e+02
965	2.13055e+02	9.65000e+02	1.95013e+00	2.11667e+02
967	2.13728e+02	9.67000e+02	1.94981e+00	2.12333e+02
969	2.14411e+02	9.69000e+02	1.94950e+00	2.13000e+02
971	2.15089e+02	9.71000e+02	1.94919e+00	2.13667e+02
973	2.15771e+02	9.73000e+02	1.94887e+00	2.14333e+02
975	2.16452e+02	9.75000e+02	1.94855e+00	2.15000e+02
977	2.17123e+02	9.77000e+02	1.94823e+00	2.15667e+02
979	2.17794e+02	9.79000e+02	1.94790e+00	2.16333e+02
981	2.18482e+02	9.81000e+02	1.94757e+00	2.17000e+02
983	2.19166e+02	9.83000e+02	1.94724e+00	2.17667e+02
985	2.19839e+02	9.85000e+02	1.94690e+00	2.18333e+02
987	2.20515e+02	9.87000e+02	1.94657e+00	2.19000e+02
989	2.21183e+02	9.89000e+02	1.94624e+00	2.19667e+02
991	2.21875e+02	9.91000e+02	1.94593e+00	2.20333e+02
993	2.22543e+02	9.93000e+02	1.94566e+00	2.21000e+02
995	2.23228e+02	9.95000e+02	1.94539e+00	2.21667e+02
997	2.23899e+02	9.97000e+02	1.94513e+00	2.22333e+02
999	2.24582e+02	9.99000e+02	1.94483e+00	2.23000e+02
1001	2.25258e+02	1.00100e+03	1.94448e+00	2.23667e+02
1003	2.25944e+02	1.00300e+03	1.94411e+00	2.24333e+02
1005	2.26626e+02	1.00500e+03	1.94369e+00	2.25000e+02
1007	2.27309e+02	1.00700e+03	1.94329e+00	2.25667e+02
1009	2.27992e+02	1.00900e+03	1.94290e+00	2.26333e+02
1011	2.28683e+02	1.01100e+03	1.94252e+00	2.27000e+02
1013	2.29368e+02	1.01300e+03	1.94219e+00	2.27667e+02
1015	2.30073e+02	1.01500e+03	1.94187e+00	2.28333e+02
1017	2.30756e+02	1.01700e+03	1.94158e+00	2.29000e+02
1019	2.31443e+02	1.01900e+03	1.94127e+00	2.29667e+02
1021	2.32126e+02	1.02100e+03	1.94096e+00	2.30333e+02
1023	2.32809e+02	1.02300e+03	1.94065e+00	2.31000e+02
1025	2.33492e+02	1.02500e+03	1.94035e+00	2.31667e+02
1027	2.34166e+02	1.02700e+03	1.94005e+00	2.32333e+02
1029	2.34826e+02	1.02900e+03	1.93977e+00	2.33000e+02
1031	2.35518e+02	1.03100e+03	1.93949e+00	2.33667e+02
1033	2.36215e+02	1.03300e+03	1.93922e+00	2.34333e+02
1035	2.36894e+02	1.03500e+03	1.93895e+00	2.35000e+02
1037	2.37577e+02	1.03700e+03	1.93871e+00	2.35667e+02
1039	2.38253e+02	1.03900e+03	1.93846e+00	2.36333e+02
1041	2.38950e+02	1.04100e+03	1.93824e+00	2.37000e+02
1043	2.39611e+02	1.04300e+03	1.93802e+00	2.37667e+02
1045	2.40279e+02	1.04500e+03	1.93784e+00	2.38333e+02
1047	2.40972e+02	1.04700e+03	1.93767e+00	2.39000e+02
1049	2.41635e+02	1.04900e+03	1.93749e+00	2.39667e+02
1051	2.42296e+02	1.05100e+03	1.93729e+00	2.40333e+02
1053	2.42954e+02	1.05300e+03	1.93706e+00	2.41000e+02
1055	2.43604e+02	1.05500e+03	1.93683e+00	2.41667e+02
1057	2.44266e+02	1.05700e+03	1.93662e+00	2.42333e+02
1059	2.44934e+02	1.05900e+03	1.93640e+00	2.43000e+02
1061	2.45603e+02	1.06100e+03	1.93621e+00	2.43667e+02
1063	2.46270e+02	1.06300e+03	1.93603e+00	2.44333e+02
1065	2.46936e+02	1.06500e+03	1.93586e+00	2.45000e+02
1067	2.47600e+02	1.06700e+03	1.93568e+00	2.45667e+02
1069	2.48290e+02	1.06900e+03	1.93549e+00	2.46333e+02
1071	2.48958e+02	1.07100e+03	1.93527e+00	2.47000e+02
1073	2.49641e+02	1.07300e+03	1.93506e+00	2.47667e+02
1075	2.50315e+02	1.07500e+03	1.93485e+00	2.48333e+02
1077	2.50985e+02	1.07700e+03	1.93469e+00	2.49000e+02
1079	2.51663e+02	1.07900e+03	1.93454e+00	2.49667e+02
1081	2.52357e+02	1.08100e+03	1.93442e+00	2.50333e+02
1083	2.53045e+02	1.08300e+03	1.93431e+00	2.51000e+02
1085	2.53718e+02	1.08500e+03	1.93417e+00	2.51667e+02
1087	2.54401e+02	1.08700e+03	1.93402e+00	2.52333e+02
1089	2.55077e+02	1.08900e+03	1.93383e+00	2.53000e+02
1091	2.55755e+02	1.09100e+03	1.93364e+00	2.53667e+02
1093	2.56437e+02	1.09300e+03	1.93345e+00	2.54333e+02
1095	2.57117e+02	1.09500e+03	1.93328e+00	2.55000e+02
1097	2.57792e+02	1.09700e+03	1.93311e+00	2.55667e+02
1099	2.58458e+02	1.09900e+03	1.93295e+00	2.56333e+02
1101	2.59122e+02	1.10100e+03	1.93278e+00	2.57000e+02
1103	2.59796e+02	1.10300e+03	1.93260e+00	2.57667e+02
1105	2.60473e+02	1.10500e+03	1.93243e+00	2.58333e+02
1107	2.61144e+02	1.10700e+03	1.93226e+00	2.59000e+02
1109	2.61818e+02	1.10900e+03	1.93209e+00	2.59667e+02
1111	2.62476e+02	1.11100e+03	1.93192e+00	2.60333e+02
1113	2.63150e+02	1.11300e+03	1.93173e+00	2.61000e+02
1115	2.63823e+02	1.11500e+03	1.93155e+00	2.61667e+02
1117	2.64489e+02	1.11700e+03	1.93136e+00	2.62333e+02
1119	2.65161e+02	1.11900e+03	1.93118e+00	2.63000e+02
1121	2.65843e+02	1.12100e+03	1.93100e+00	2.63667e+02
1123	2.66522e+02	1.12300e+03	1.93081e+00	2.64333e+02
1125	2.67191e+02	1.12500e+03	1.93061e+00	2.65000e+02
1127	2.67864e+02	1.12700e+03	1.93042e+00	2.65667e+02
1129	2.68526e+02	1.12900e+03	1.93022e+00	2.66333e+02
1131	2.69196e+02	1.13100e+03	1.92999e+00	2.67000e+02
1133	2.69870e+02	1.13300e+03	1.92973e+00	2.67667e+02
1135	2.70548e+02	1.13500e+03	1.92945e+00	2.68333e+02
1137	2.71209e+02	1.13700e+03	1.92915e+00	2.69000e+02
1139	2.71889e+02	1.13900e+03	1.92887e+00	2.69667e+02
1141	2.72564e+02	1.14100e+03	1.92860e+00	2.70333e+02
1143	2.73228e+02	1.14300e+03	1.92833e+00	2.71000e+02
1145	2.73897e+02	1.14500e+03	1.92804e+00	2.71667e+02
1147	2.74569e+02	1.14700e+03	1.92773e+00	2.72333e+02
1149	2.75236e+02	1.14900e+03	1.92737e+00	2.73000e+02
1151	2.75909e+02	1.15100e+03	1.92702e+00	2.73667e+02
1153	2.76583e+02	1.15300e+03	1.92663e+00	2.74333e+02
1155	2.77247e+02	1.15500e+03	1.92624e+00	2.75000e+02
1157	2.77914e+02	1.15700e+03	1.92583e+00	2.75667e+02
1159	2.78588e+02	1.15900e+03	1.92542e+00	2.76333e+02
1161	2.79252e+02	1.16100e+03	1.92497e+00	2.77000e+02
1163	2.79939e+02	1.16300e+03	1.92451e+00	2.77667e+02
1165	2.80608e+02	1.16500e+03	1.92402e+00	2.78333e+02
1167	2.81284e+02	1.16700e+03	1.92352e+00	2.79000e+02
1169	2.81962e+02	1.16900e+03	1.92298e+00	2.79667e+02
1171	2.82625e+02	1.17100e+03	1.92244e+00	2.80333e+02
1173	2.83301e+02	1.17300e+03	1.92186e+00	2.81000e+02
1175	2.83966e+02	1.17500e+03	1.92127e+00	2.81667e+02
1177	2.84642e+02	1.17700e+03	1.92065e+00	2.82333e+02
1179	2.85314e+02	1.17900e+03	1.92004e+00	2.83000e+02
1181	2.85991e+02	1.18100e+03	1.91938e+00	2.83667e+02
1183	2.86655e+02	1.18300e+03	1.91872e+00	2.84333e+02
1185	2.87330e+02	1.18500e+03	1.91799e+00	2.85000e+02
1187	2.88006e+02	1.18700e+03	1.91725e+00	2.85667e+02
1189	2.88668e+02	1.18900e+03	1.91645e+00	2.86333e+02
1191	2.89343e+02	1.19100e+03	1.91562e+00	2.87000e+02
1193	2.90006e+02	1.19300e+03	1.91473e+00	2.87667e+02
1195	2.90676e+02	1.19500e+03	1.91382e+00	2.88333e+02
1197	2.91345e+02	1.19700e+03	1.91285e+00	2.89000e+02
1199	2.92021e+02	1.19900e+03	1.91186e+00	2.89667e+02
1201	2.92684e+02	1.20100e+03	1.91079e+00	2.90333e+02
1203	2.93358e+02	1.20300e+03	1.90972e+00	2.91000e+02
1205	2.94026e+02	1.20500e+03	1.90856e+00	2.91667e+02
1207	2.94702e+02	1.20700e+03	1.90739e+00	2.92333e+02
1209	2.95349e+02	1.20900e+03	1.90612e+00	2.93000e+02
1211	2.96028e+02	1.21100e+03	1.90484e+00	2.93667e+02
1213	2.96687e+02	1.21300e+03	1.90348e+00	2.94333e+02
1215	2.97353e+02	1.21500e+03	1.90211e+00	2.95000e+02
1217	2.98013e+02	1.21700e+03	1.90069e+00	2.95667e+02
1219	2.98693e+02	1.21900e+03	1.89925e+00	2.96333e+02
1221	2.99354e+02	1.22100e+03	1.89775e+00	2.97000e+02
1223	3.00036e+02	1.22300e+03	1.89625e+00	2.97667e+02
1225	3.00688e+02	1.22500e+03	1.89469e+00	2.98333e+02
1227	3.01363e+02	1.22700e+03	1.89312e+00	2.99000e+02
1229	3.02011e+02	1.22900e+03	1.89151e+00	2.99667e+02
1231	3.02680e+02	1.23100e+03	1.88988e+00	3.00333e+02
1233	3.03363e+02	1.23300e+03	1.88818e+00	3.01000e+02
1235	3.04020e+02	1.23500e+03	1.88645e+00	3.01667e+02
1237	3.04723e+02	1.23700e+03	1.88465e+00	3.02333e+02
1239	3.05377e+02	1.23900e+03	1.88285e+00	3.03000e+02
1241	3.06051e+02	1.24100e+03	1.88100e+00	3.03667e+02
1243	3.06732e+02	1.24300e+03	1.87914e+00	3.04333e+02
1245	3.07412e+02	1.24500e+03	1.87722e+00	3.05000e+02
1247	3.08068e+02	1.24700e+03	1.87529e+00	3.05667e+02
1249	3.08733e+02	1.24900e+03	1.87330e+00	3.06333e+02
1251	3.09406e+02	1.25100e+03	1.87131e+00	3.07000e+02
1253	3.10075e+02	1.25300e+03	1.86930e+00	3.07667e+02
1255	3.10773e+02	1.25500e+03	1.86728e+00	3.08333e+02
1257	3.11458e+02	1.25700e+03	1.86525e+00	3.09000e+02
1259	3.12137e+02	1.25900e+03	1.86323e+00	3.09667e+02
1261	3.12814e+02	1.26100e+03	1.86122e+00	3.10333e+02
1263	3.13518e+02	1.26300e+03	1.85919e+00	3.11000e+02
1265	3.14249e+02	1.26500e+03	1.85716e+00	3.11667e+02
1267	3.14913e+02	1.26700e+03	1.85512e+00	3.12333e+02
1269	3.15613e+02	1.26900e+03	1.85306e+00	3.13000e+02
1271	3.16286e+02	1.27100e+03	1.85099e+00	3.13667e+02
1273	3.16965e+02	1.27300e+03	1.84893e+00	3.14333e+02
1275	3.17631e+02	1.27500e+03	1.84686e+00	3.15000e+02
1277	3.18311e+02	1.27700e+03	1.84478e+00	3.15667e+02
1279	3.18983e+02	1.27900e+03	1.84270e+00	3.16333e+02
1281	3.19656e+02	1.28100e+03	1.84058e+00	3.17000e+02
1283	3.20376e+02	1.28300e+03	1.83846e+00	3.17667e+02
1285	3.21053e+02	1.28500e+03	1.83629e+00	3.18333e+02
1287	3.21749e+02	1.28700e+03	1.83411e+00	3.19000e+02
1289	3.22455e+02	1.28900e+03	1.83188e+00	3.19667e+02
1291	3.23188e+02	1.29100e+03	1.82964e+00	3.20333e+02
1293	3.23857e+02	1.29300e+03	1.82734e+00	3.21000e+02
1295	3.24539e+02	1.29500e+03	1.82502e+00	3.21667e+02
1297	3.25204e+02	1.29700e+03	1.82260e+00	3.22333e+02
1299	3.25891e+02	1.29900e+03	1.82014e+00	3.23000e+02
1301	3.26587e+02	1.30100e+03	1.81756e+00	3.23667e+02
1303	3.27259e+02	1.30300e+03	1.81493e+00	3.24333e+02
1305	3.27942e+02	1.30500e+03	1.81216e+00	3.25000e+02
1307	3.28613e+02	1.30700e+03	1.80934e+00	3.25667e+02
1309	3.29275e+02	1.30900e+03	1.80634e+00	3.26333e+02
1311	3.29951e+02	1.31100e+03	1.80328e+00	3.27000e+02
1313	3.30636e+02	1.31300e+03	1.80003e+00	3.27667e+02
1315	3.31314e+02	1.31500e+03	1.79672e+00	3.28333e+02
1317	3.31998e+02	1.31700e+03	1.79322e+00	3.29000e+02
1319	3.32657e+02	1.31900e+03	1.78967e+00	3.29667e+02
1321	3.33340e+02	1.32100e+03	1.78589e+00	3.30333e+02
1323	3.34046e+02	1.32300e+03	1.78204e+00	3.31000e+02
1325	3.34738e+02	1.32500e+03	1.77790e+00	3.31667e+02
1327	3.35400e+02	1.32700e+03	1.77370e+00	3.32333e+02
1329	3.36066e+02	1.32900e+03	1.76919e+00	3.33000e+02
1331	3.36750e+02	1.33100e+03	1.76461e+00	3.33667e+02
1333	3.37433e+02	1.33300e+03	1.75970e+00	3.34333e+02
1335	3.38108e+02	1.33500e+03	1.75471e+00	3.35000e+02
1337	3.38796e+02	1.33700e+03	1.74937e+00	3.35667e+02
1339	3.39539e+02	1.33900e+03	1.74393e+00	3.36333e+02
1341	3.40285e+02	1.34100e+03	1.73814e+00	3.37000e+02
1343	3.40958e+02	1.34300e+03	1.73224e+00	3.37667e+02
1345	3.41643e+02	1.34500e+03	1.72594e+00	3.38333e+02
1347	3.42301e+02	1.34700e+03	1.71952e+00	3.39000e+02
1349	3.42969e+02	1.34900e+03	1.71265e+00	3.39667e+02
1351	3.43628e+02	1.35100e+03	1.70565e+00	3.40333e+02
1353	3.44297e+02	1.35300e+03	1.69817e+00	3.41000e+02
1355	3.44980e+02	1.35500e+03	1.69060e+00	3.41667e+02
1357	3.45647e+02	1.35700e+03	1.68255e+00	3.42333e+02
1359	3.46309e+02	1.35900e+03	1.67438e+00	3.43000e+02
1361	3.46980e+02	1.36100e+03	1.66571e+00	3.43667e+02
1363	3.47646e+02	1.36300e+03	1.65688e+00	3.44333e+02
1365	3.48322e+02	1.36500e+03	1.64748e+00	3.45000e+02
1367	3.48989e+02	1.36700e+03	1.63792e+00	3.45667e+02
1369	3.49645e+02	1.36900e+03	1.62775e+00	3.46333e+02
1371	3.50314e+02	1.37100e+03	1.61747e+00	3.47000e+02
1373	3.50959e+02	1.37300e+03	1.60664e+00	3.47667e+02
1375	3.51633e+02	1.37500e+03	1.59569e+00	3.48333e+02
1377	3.52294e+02	1.37700e+03	1.58418e+00	3.49000e+02
1379	3.52999e+02	1.37900e+03	1.57251e+00	3.49667e+02
1381	3.53653e+02	1.38100e+03	1.56023e+00	3.50333e+02
1383	3.54318e+02	1.38300e+03	1.54782e+00	3.51000e+02
1385	3.54975e+02	1.38500e+03	1.53479e+00	3.51667e+02
1387	3.55622e+02	1.38700e+03	1.52161e+00	3.52333e+02
1389	3.56292e+02	1.38900e+03	1.50779e+00	3.53000e+02
1391	3.56928e+02	1.39100e+03	1.49384e+00	3.53667e+02
1393	3.57580e+02	1.39300e+03	1.47927e+00	3.54333e+02
1395	3.58221e+02	1.39500e+03	1.46456e+00	3.55000e+02
1397	3.58878e+02	1.39700e+03	1.44925e+00	3.55667e+02
1399	3.59525e+02	1.39900e+03	1.43382e+00	3.56333e+02
1401	3.60187e+02	1.40100e+03	1.41780e+00	3.57000e+02
1403	3.60845e+02	1.40300e+03	1.40166e+00	3.57667e+02
1405	3.61510e+02	1.40500e+03	1.38497e+00	3.58333e+02
1407	3.62188e+02	1.40700e+03	1.36817e+00	3.59000e+02
1409	3.62882e+02	1.40900e+03	1.35085e+00	3.59667e+02
1411	3.63550e+02	1.41100e+03	1.33340e+00	3.60333e+02
1413	3.64223e+02	1.41300e+03	1.31544e+00	3.61000e+02
1415	3.64882e+02	1.41500e+03	1.29737e+00	3.61667e+02
1417	3.65553e+02	1.41700e+03	1.27880e+00	3.62333e+02
1419	3.66223e+02	1.41900e+03	1.26010e+00	3.63000e+02
1421	3.66909e+02	1.42100e+03	1.24089e+00	3.63667e+02
1423	3.67577e+02	1.42300e+03	1.22158e+00	3.64333e+02
1425	3.68252e+02	1.42500e+03	1.20180e+00	3.65000e+02
1427	3.68922e+02	1.42700e+03	1.18195e+00	3.65667e+02
1429	3.69575e+02	1.42900e+03	1.16168e+00	3.66333e+02
1431	3.70222e+02	1.43100e+03	1.14132e+00	3.67000e+02
1433	3.70877e+02	1.43300e+03	1.12059e+00	3.67667e+02
1435	3.71552e+02	1.43500e+03	1.09982e+00	3.68333e+02
1437	3.72250e+02	1.43700e+03	1.07878e+00	3.69000e+02
1439	3.72898e+02	1.43900e+03	1.05773e+00	3.69667e+02
1441	3.73577e+02	1.44100e+03	1.03653e+00	3.70333e+02
1443	3.74263e+02	1.44300e+03	1.01532e+00	3.71000e+02
1445	3.74955e+02	1.44500e+03	9.93903e-01	3.71667e+02
1447	3.75621e+02	1.44700e+03	9.72333e-01	3.72333e+02
1449	3.76306e+02	1.44900e+03	9.50458e-01	3.73000e+02
1451	3.76976e+02	1.45100e+03	9.28608e-01	3.73667e+02
1453	3.77648e+02	1.45300e+03	9.06646e-01	3.74333e+02
1455	3.78334e+02	1.45500e+03	8.84681e-01	3.75000e+02
1457	3.79044e+02	1.45700e+03	8.62516e-01	3.75667e+02
1459	3.79734e+02	1.45900e+03	8.40147e-01	3.76333e+02
1461	3.80425e+02	1.46100e+03	8.17418e-01	3.77000e+02
1463	3.81137e+02	1.46300e+03	7.94758e-01	3.77667e+02
1465	3.81811e+02	1.46500e+03	7.72130e-01	3.78333e+02
1467	3.82469e+02	1.46700e+03	7.49737e-01	3.79000e+02
1469	3.83158e+02	1.46900e+03	7.27750e-01	3.79667e+02
1471	3.83825e+02	1.47100e+03	7.05853e-01	3.80333e+02
1473	3.84500e+02	1.47300e+03	6.84341e-01	3.81000e+02
1475	3.85204e+02	1.47500e+03	6.62907e-01	3.81667e+02
1477	3.85895e+02	1.47700e+03	6.41852e-01	3.82333e+02
1479	3.86578e+02	1.47900e+03	6.20925e-01	3.83000e+02
1481	3.87263e+02	1.48100e+03	6.00446e-01	3.83667e+02
1483	3.87941e+02	1.48300e+03	5.80106e-01	3.84333e+02
1485	3.88655e+02	1.48500e+03	5.60291e-01	3.85000e+02
1487	3.89355e+02	1.48700e+03	5.40638e-01	3.85667e+02
1489	3.90055e+02	1.48900e+03	5.21562e-01	3.86333e+02
1491	3.90762e+02	1.49100e+03	5.02636e-01	3.87000e+02
1493	3.91457e+02	1.49300e+03	4.84335e-01	3.87667e+02
1495	3.92205e+02	1.49500e+03	4.66227e-01	3.88333e+02
1497	3.92913e+02	1.49700e+03	4.48805e-01	3.89000e+02
1499	3.93624e+02	1.49900e+03	4.31549e-01	3.89667e+02
1501	3.94311e+02	1.50100e+03	4.15006e-01	3.90333e+02
1503	3.94997e+02	1.50300e+03	3.98650e-01	3.91000e+02
1505	3.95699e+02	1.50500e+03	3.83034e-01	3.91667e+02
1507	3.96405e+02	1.50700e+03	3.67575e-01	3.92333e+02
1509	3.97086e+02	1.50900e+03	3.52853e-01	3.93000e+02
1511	3.97774e+02	1.51100e+03	3.38315e-01	3.93667e+02
1513	3.98464e+02	1.51300e+03	3.24526e-01	3.94333e+02
1515	3.99121e+02	1.51500e+03	3.10912e-01	3.95000e+02
1517	3.99807e+02	1.51700e+03	2.98064e-01	3.95667e+02
1519	4.00459e+02	1.51900e+03	2.85400e-01	3.96333e+02
1521	4.01103e+02	1.52100e+03	2.73496e-01	3.97000e+02
1523	4.01778e+02	1.52300e+03	2.61754e-01	3.97667e+02
1525	4.02449e+02	1.52500e+03	2.50741e-01	3.98333e+02
1527	4.03122e+02	1.52700e+03	2.39890e-01	3.99000e+02
1529	4.03804e+02	1.52900e+03	2.29758e-01	3.99667e+02
1531	4.04482e+02	1.53100e+03	2.19795e-01	4.00333e+02
1533	4.05177e+02	1.53300e+03	2.10532e-01	4.01000e+02
1535	4.05817e+02	1.53500e+03	2.01410e-01	4.01667e+02
1537	4.06482e+02	1.53700e+03	1.92965e-01	4.02333e+02
1539	4.07113e+02	1.53900e+03	1.84678e-01	4.03000e+02
1541	4.07752e+02	1.54100e+03	1.77040e-01	4.03667e+02
1543	4.08406e+02	1.54300e+03	1.69528e-01	4.04333e+02
1545	4.09061e+02	1.54500e+03	1.62611e-01	4.05000e+02
1547	4.09727e+02	1.54700e+03	1.55813e-01	4.05667e+02
1549	4.10387e+02	1.54900e+03	1.49563e-01	4.06333e+02
1551	4.11073e+02	1.55100e+03	1.43420e-01	4.07000e+02
1553	4.11725e+02	1.55300e+03	1.37790e-01	4.07667e+02
1555	4.12414e+02	1.55500e+03	1.32270e-01	4.08333e+02
1557	4.13098e+02	1.55700e+03	1.27237e-01	4.09000e+02
1559	4.13781e+02	1.55900e+03	1.22297e-01	4.09667e+02
1561	4.14464e+02	1.56100e+03	1.17826e-01	4.10333e+02
1563	4.15287e+02	1.56300e+03	1.13468e-01	4.11000e+02
1565	4.15984e+02	1.56500e+03	1.09560e-01	4.11667e+02
1567	4.16703e+02	1.56700e+03	1.05736e-01	4.12333e+02
1569	4.17388e+02	1.56900e+03	1.02317e-01	4.13000e+02
1571	4.18095e+02	1.57100e+03	9.89620e-02	4.13667e+02
1573	4.18807e+02	1.57300e+03	9.59328e-02	4.14333e+02
1575	4.19611e+02	1.57500e+03	9.29501e-02	4.15000e+02
1577	4.20316e+02	1.57700e+03	9.02364e-02	4.15667e+02
1579	4.20996e+02	1.57900e+03	8.75945e-02	4.16333e+02
1581	4.21663e+02	1.58100e+03	8.52441e-02	4.17000e+02
1583	4.22320e+02	1.58300e+03	8.29736e-02	4.17667e+02
1585	4.22956e+02	1.58500e+03	8.09974e-02	4.18333e+02
1587	4.23688e+02	1.58700e+03	7.90690e-02	4.19000e+02
1589	4.24284e+02	1.58900e+03	7.73878e-02	4.19667e+02
1591	4.24809e+02	1.59100e+03	7.57462e-02	4.20333e+02
1593	4.25455e+02	1.59300e+03	7.43046e-02	4.21000e+02
1595	4.25995e+02	1.59500e+03	7.28848e-02	4.21667e+02
1597	4.26588e+02	1.59700e+03	7.16248e-02	4.22333e+02
1599	4.27216e+02	1.59900e+03	7.03965e-02	4.23000e+02
1601	4.27828e+02	1.60100e+03	6.93114e-02	4.23667e+02
1603	4.28475e+02	1.60300e+03	6.82485e-02	4.24333e+02
1605	4.29109e+02	1.60500e+03	6.72948e-02	4.25000e+02
1607	4.29727e+02	1.60700e+03	6.63539e-02	4.25667e+02
1609	4.30346e+02	1.60900e+03	6.55141e-02	4.26333e+02
1611	4.30961e+02	1.61100e+03	6.47106e-02	4.27000e+02
1613	4.31567e+02	1.61300e+03	6.40241e-02	4.27667e+02
1615	4.32216e+02	1.61500e+03	6.33489e-02	4.28333e+02
1617	4.32849e+02	1.61700e+03	6.27671e-02	4.29000e+02
1619	4.33587e+02	1.61900e+03	6.22043e-02	4.29667e+02
1621	4.34247e+02	1.62100e+03	6.17258e-02	4.30333e+02
1623	4.34823e+02	1.62300e+03	6.12597e-02	4.31000e+02
1625	4.35435e+02	1.62500e+03	6.08741e-02	4.31667e+02
1627	4.36029e+02	1.62700e+03	6.04976e-02	4.32333e+02
1629	4.36669e+02	1.62900e+03	6.01880e-02	4.33000e+02
1631	4.37279e+02	1.63100e+03	5.98778e-02	4.33667e+02
1633	4.37931e+02	1.63300e+03	5.95921e-02	4.34333e+02
1635	4.38624e+02	1.63500e+03	5.92956e-02	4.35000e+02
1637	4.39344e+02	1.63700e+03	5.90086e-02	4.35667e+02
1639	4.39983e+02	1.63900e+03	5.87402e-02	4.36333e+02
1641	4.40650e+02	1.64100e+03	5.85178e-02	4.37000e+02
1643	4.41372e+02	1.64300e+03	5.83073e-02	4.37667e+02
1645	4.42083e+02	1.64500e+03	5.81430e-02	4.38333e+02
1647	4.42753e+02	1.64700e+03	5.79823e-02	4.39000e+02
1649	4.43407e+02	1.64900e+03	5.78574e-02	4.39667e+02
1651	4.44038e+02	1.65100e+03	5.77361e-02	4.40333e+02
1653	4.44687e+02	1.65300e+03	5.76447e-02	4.41000e+02
1655	4.45323e+02	1.65500e+03	5.75650e-02	4.41667e+02
1657	4.46014e+02	1.65700e+03	5.75098e-02	4.42333e+02
1659	4.46652e+02	1.65900e+03	5.74385e-02	4.43000e+02
1661	4.47303e+02	1.66100e+03	5.73648e-02	4.43667e+02
1663	4.47940e+02	1.66300e+03	5.72837e-02	4.44333e+02
1665	4.48575e+02	1.66500e+03	5.71882e-02	4.45000e+02
1667	4.49227e+02	1.66700e+03	5.71053e-02	4.45667e+02
1669	4.49872e+02	1.66900e+03	5.70473e-02	4.46333e+02
1671	4.50585e+02	1.67100e+03	5.70052e-02	4.47000e+02
1673	4.51285e+02	1.67300e+03	5.69963e-02	4.47667e+02
1675	4.51915e+02	1.67500e+03	5.69791e-02	4.48333e+02
1677	4.52510e+02	1.67700e+03	5.69577e-02	4.49000e+02
1679	4.53109e+02	1.67900e+03	5.69245e-02	4.49667e+02
1681	4.53756e+02	1.68100e+03	5.68856e-02	4.50333e+02
1683	4.54397e+02	1.68300e+03	5.68574e-02	4.51000e+02
1685	4.55007e+02	1.68500e+03	5.68348e-02	4.51667e+02
1687	4.55588e+02	1.68700e+03	5.68037e-02	4.52333e+02
1689	4.56185e+02	1.68900e+03	5.67697e-02	4.53000e+02
1691	4.56771e+02	1.69100e+03	5.67426e-02	4.53667e+02
1693	4.57391e+02	1.69300e+03	5.67304e-02	4.54333e+02
1695	4.57991e+02	1.69500e+03	5.67291e-02	4.55000e+02
1697	4.58612e+02	1.69700e+03	5.67507e-02	4.55667e+02
1699	4.59222e+02	1.69900e+03	5.67664e-02	4.56333e+02
1701	4.59833e+02	1.70100e+03	5.67801e-02	4.57000e+02
1703	4.60479e+02	1.70300e+03	5.67772e-02	4.57667e+02
1705	4.61132e+02	1.70500e+03	5.67472e-02	4.58333e+02
1707	4.61780e+02	1.70700e+03	5.67157e-02	4.59000e+02
1709	4.62417e+02	1.70900e+03	5.66700e-02	4.59667e+02
1711	4.63069e+02	1.71100e+03	5.66303e-02	4.60333e+02
1713	4.63714e+02	1.71300e+03	5.65911e-02	4.61000e+02
1715	4.64382e+02	1.71500e+03	5.65521e-02	4.61667e+02
1717	4.65056e+02	1.71700e+03	5.65149e-02	4.62333e+02
1719	4.65719e+02	1.71900e+03	5.64855e-02	4.63000e+02
1721	4.66281e+02	1.72100e+03	5.64641e-02	4.63667e+02
1723	4.66818e+02	1.72300e+03	5.64376e-02	4.64333e+02
1725	4.67412e+02	1.72500e+03	5.64062e-02	4.65000e+02
1727	4.68025e+02	1.72700e+03	5.63729e-02	4.65667e+02
1729	4.68635e+02	1.72900e+03	5.63479e-02	4.66333e+02
1731	4.69286e+02	1.73100e+03	5.63461e-02	4.67000e+02
1733	4.69924e+02	1.73300e+03	5.63721e-02	4.67667e+02
1735	4.70569e+02	1.73500e+03	5.63829e-02	4.68333e+02
1737	4.71231e+02	1.73700e+03	5.63773e-02	4.69000e+02
1739	4.71881e+02	1.73900e+03	5.63663e-02	4.69667e+02
1741	4.72534e+02	1.74100e+03	5.63441e-02	4.70333e+02
1743	4.73190e+02	1.74300e+03	5.63414e-02	4.71000e+02
1745	4.73842e+02	1.74500e+03	5.63564e-02	4.71667e+02
1747	4.74508e+02	1.74700e+03	5.63623e-02	4.72333e+02
1749	4.75180e+02	1.74900e+03	5.63614e-02	4.73000e+02
1751	4.75839e+02	1.75100e+03	5.63510e-02	4.73667e+02
1753	4.76500e+02	1.75300e+03	5.63323e-02	4.74333e+02
1755	4.77155e+02	1.75500e+03	5.63202e-02	4.75000e+02
1757	4.77821e+02	1.75700e+03	5.63074e-02	4.75667e+02
1759	4.78469e+02	1.75900e+03	5.62869e-02	4.76333e+02
1761	4.79129e+02	1.76100e+03	5.62563e-02	4.77000e+02
1763	4.79810e+02	1.76300e+03	5.62256e-02	4.77667e+02
1765	4.80482e+02	1.76500e+03	5.61953e-02	4.78333e+02
1767	4.81168e+02	1.76700e+03	5.61819e-02	4.79000e+02
1769	4.81855e+02	1.76900e+03	5.61843e-02	4.79667e+02
1771	4.82525e+02	1.77100e+03	5.61821e-02	4.80333e+02
1773	4.83216e+02	1.77300e+03	5.61848e-02	4.81000e+02
1775	4.83883e+02	1.77500e+03	5.61878e-02	4.81667e+02
1777	4.84572e+02	1.77700e+03	5.61912e-02	4.82333e+02
1779	4.85262e+02	1.77900e+03	5.61976e-02	4.83000e+02
1781	4.85942e+02	1.78100e+03	5.62051e-02	4.83667e+02
1783	4.86638e+02	1.78300e+03	5.62135e-02	4.84333e+02
1785	4.87303e+02	1.78500e+03	5.62393e-02	4.85000e+02
1787	4.88007e+02	1.78700e+03	5.62818e-02	4.85667e+02
1789	4.88694e+02	1.78900e+03	5.63462e-02	4.86333e+02
1791	4.89362e+02	1.79100e+03	5.63900e-02	4.87000e+02
1793	4.90033e+02	1.79300e+03	5.64020e-02	4.87667e+02
1795	4.90688e+02	1.79500e+03	5.63868e-02	4.88333e+02
1797	4.91352e+02	1.79700e+03	5.63312e-02	4.89000e+02
1799	4.92002e+02	1.79900e+03	5.62928e-02	4.89667e+02
1801	4.92668e+02	1.80100e+03	5.62634e-02	4.90333e+02
1803	4.93309e+02	1.80300e+03	5.62446e-02	4.91000e+02
1805	4.93951e+02	1.80500e+03	5.62435e-02	4.91667e+02
1807	4.94592e+02	1.80700e+03	5.62386e-02	4.92333e+02
1809	4.95230e+02	1.80900e+03	5.62405e-02	4.93000e+02
1811	4.95863e+02	1.81100e+03	5.62478e-02	4.93667e+02
1813	4.96511e+02	1.81300e+03	5.62643e-02	4.94333e+02
1815	4.97147e+02	1.81500e+03	5.62799e-02	4.95000e+02
1817	4.97804e+02	1.81700e+03	5.62927e-02	4.95667e+02
1819	4.98464e+02	1.81900e+03	5.62947e-02	4.96333e+02
1821	4.99111e+02	1.82100e+03	5.62715e-02	4.97000e+02
1823	4.99762e+02	1.82300e+03	5.62361e-02	4.97667e+02
1825	5.00407e+02	1.82500e+03	5.61764e-02	4.98333e+02
1827	5.01038e+02	1.82700e+03	5.61371e-02	4.99000e+02
1829	5.01676e+02	1.82900e+03	5.61122e-02	4.99667e+02
1831	5.02319e+02	1.83100e+03	5.60953e-02	5.00333e+02
1833	5.02990e+02	1.83300e+03	5.60954e-02	5.01000e+02
1835	5.03624e+02	1.83500e+03	5.60864e-02	5.01667e+02
1837	5.04267e+02	1.83700e+03	5.60749e-02	5.02333e+02
1839	5.04918e+02	1.83900e+03	5.60695e-02	5.03000e+02
1841	5.05575e+02	1.84100e+03	5.60755e-02	5.03667e+02
1843	5.06220e+02	1.84300e+03	5.60862e-02	5.04333e+02
1845	5.06864e+02	1.84500e+03	5.60967e-02	5.05000e+02
1847	5.07514e+02	1.84700e+03	5.60917e-02	5.05667e+02
1849	5.08173e+02	1.84900e+03	5.60667e-02	5.06333e+02
1851	5.08803e+02	1.85100e+03	5.60437e-02	5.07000e+02
1853	5.09471e+02	1.85300e+03	5.60104e-02	5.07667e+02
1855	5.10110e+02	1.85500e+03	5.59807e-02	5.08333e+02
1857	5.10737e+02	1.85700e+03	5.59538e-02	5.09000e+02
1859	5.11364e+02	1.85900e+03	5.59313e-02	5.09667e+02
1861	5.11989e+02	1.86100e+03	5.59222e-02	5.10333e+02
1863	5.12616e+02	1.86300e+03	5.59222e-02	5.11000e+02
1865	5.13238e+02	1.86500e+03	5.59333e-02	5.11667e+02
1867	5.13860e+02	1.86700e+03	5.59356e-02	5.12333e+02
1869	5.14505e+02	1.86900e+03	5.59358e-02	5.13000e+02
1871	5.15141e+02	1.87100e+03	5.59393e-02	5.13667e+02
1873	5.15786e+02	1.87300e+03	5.59487e-02	5.14333e+02
1875	5.16426e+02	1.87500e+03	5.59668e-02	5.15000e+02
1877	5.17058e+02	1.87700e+03	5.59968e-02	5.15667e+02
1879	5.17687e+02	1.87900e+03	5.60184e-02	5.16333e+02
1881	5.18340e+02	1.88100e+03	5.60215e-02	5.17000e+02
1883	5.18999e+02	1.88300e+03	5.60095e-02	5.17667e+02
1885	5.19645e+02	1.88500e+03	5.59853e-02	5.18333e+02
1887	5.20304e+02	1.88700e+03	5.59818e-02	5.19000e+02
1889	5.20935e+02	1.88900e+03	5.59978e-02	5.19667e+02
1891	5.21575e+02	1.89100e+03	5.59991e-02	5.20333e+02
1893	5.22220e+02	1.89300e+03	5.59832e-02	5.21000e+02
1895	5.22860e+02	1.89500e+03	5.59529e-02	5.21667e+02
1897	5.23515e+02	1.89700e+03	5.58959e-02	5.22333e+02
1899	5.24163e+02	1.89900e+03	5.58544e-02	5.23000e+02
1901	5.24817e+02	1.90100e+03	5.58169e-02	5.23667e+02
1903	5.25460e+02	1.90300e+03	5.57848e-02	5.24333e+02
1905	5.26110e+02	1.90500e+03	5.57606e-02	5.25000e+02
1907	5.26770e+02	1.90700e+03	5.57421e-02	5.25667e+02
1909	5.27425e+02	1.90900e+03	5.57513e-02	5.26333e+02
1911	5.28074e+02	1.91100e+03	5.57645e-02	5.27000e+02
1913	5.28731e+02	1.91300e+03	5.57971e-02	5.27667e+02
1915	5.29390e+02	1.91500e+03	5.58090e-02	5.28333e+02
1917	5.30047e+02	1.91700e+03	5.57951e-02	5.29000e+02
1919	5.30713e+02	1.91900e+03	5.57888e-02	5.29667e+02
1921	5.31366e+02	1.92100e+03	5.57723e-02	5.30333e+02
1923	5.32028e+02	1.92300e+03	5.57625e-02	5.31000e+02
1925	5.32695e+02	1.92500e+03	5.57654e-02	5.31667e+02
1927	5.33366e+02	1.92700e+03	5.57630e-02	5.32333e+02
1929	5.34033e+02	1.92900e+03	5.57685e-02	5.33000e+02
1931	5.34698e+02	1.93100e+03	5.57795e-02	5.33667e+02
1933	5.35388e+02	1.93300e+03	5.58041e-02	5.34333e+02
1935	5.36063e+02	1.93500e+03	5.58264e-02	5.35000e+02
1937	5.36729e+02	1.93700e+03	5.58449e-02	5.35667e+02
1939	5.37394e+02	1.93900e+03	5.58529e-02	5.36333e+02
1941	5.38060e+02	1.94100e+03	5.58381e-02	5.37000e+02
1943	5.38719e+02	1.94300e+03	5.58285e-02	5.37667e+02
1945	5.39377e+02	1.94500e+03	5.58087e-02	5.38333e+02
1947	5.40080e+02	1.94700e+03	5.57912e-02	5.39000e+02
1949	5.40778e+02	1.94900e+03	5.57662e-02	5.39667e+02
1951	5.41446e+02	1.95100e+03	5.57402e-02	5.40333e+02
1953	5.42133e+02	1.95300e+03	5.57231e-02	5.41000e+02
1955	5.42801e+02	1.95500e+03	5.57165e-02	5.41667e+02
1957	5.43463e+02	1.95700e+03	5.57343e-02	5.42333e+02
1959	5.44123e+02	1.95900e+03	5.57510e-02	5.43000e+02
1961	5.44779e+02	1.96100e+03	5.57778e-02	5.43667e+02
1963	5.45437e+02	1.96300e+03	5.58046e-02	5.44333e+02
1965	5.46122e+02	1.96500e+03	5.58281e-02	5.45000e+02
1967	5.46780e+02	1.96700e+03	5.58490e-02	5.45667e+02
1969	5.47442e+02	1.96900e+03	5.58607e-02	5.46333e+02
1971	5.48095e+02	1.97100e+03	5.58758e-02	5.47000e+02
1973	5.48749e+02	1.97300e+03	5.58848e-02	5.47667e+02
1975	5.49388e+02	1.97500e+03	5.58826e-02	5.48333e+02
1977	5.50033e+02	1.97700e+03	5.58569e-02	5.49000e+02
1979	5.50706e+02	1.97900e+03	5.58226e-02	5.49667e+02
1981	5.51369e+02	1.98100e+03	5.57779e-02	5.50333e+02
1983	5.52023e+02	1.98300e+03	5.57512e-02	5.51000e+02
1985	5.52683e+02	1.98500e+03	5.57165e-02	5.51667e+02
1987	5.53341e+02	1.98700e+03	5.56685e-02	5.52333e+02
1989	5.54004e+02	1.98900e+03	5.56157e-02	5.53000e+02
1991	5.54650e+02	1.99100e+03	5.55850e-02	5.53667e+02
1993	5.55299e+02	1.99300e+03	5.55870e-02	5.54333e+02
1995	5.55968e+02	1.99500e+03	5.55868e-02	5.55000e+02
1997	5.56644e+02	1.99700e+03	5.56130e-02	5.55667e+02
1999	5.57305e+02	1.99900e+03	5.56403e-02	5.56333e+02
2001	5.57979e+02	2.00100e+03	5.56827e-02	5.57000e+02
2003	5.58635e+02	2.00300e+03	5.57223e-02	5.57667e+02
2005	5.59287e+02	2.00500e+03	5.57449e-02	5.58333e+02
2007	5.59944e+02	2.00700e+03	5.57619e-02	5.59000e+02
2009	5.60595e+02	2.00900e+03	5.57637e-02	5.59667e+02
2011	5.61255e+02	2.01100e+03	5.57679e-02	5.60333e+02
2013	5.61918e+02	2.01300e+03	5.57660e-02	5.61000e+02
2015	5.62583e+02	2.01500e+03	5.57570e-02	5.61667e+02
2017	5.63229e+02	2.01700e+03	5.57241e-02	5.62333e+02
2019	5.63891e+02	2.01900e+03	5.57023e-02	5.63000e+02
2021	5.64542e+02	2.02100e+03	5.56689e-02	5.63667e+02
2023	5.65206e+02	2.02300e+03	5.56397e-02	5.64333e+02
2025	5.65859e+02	2.02500e+03	5.56164e-02	5.65000e+02
2027	5.66517e+02	2.02700e+03	5.56062e-02	5.65667e+02
2029	5.67179e+02	2.02900e+03	5.56299e-02	5.66333e+02
2031	5.67841e+02	2.03100e+03	5.56631e-02	5.67000e+02
2033	5.68495e+02	2.03300e+03	5.57246e-02	5.67667e+02
2035	5.69148e+02	2.03500e+03	5.57708e-02	5.68333e+02
2037	5.69810e+02	2.03700e+03	5.57826e-02	5.69000e+02
2039	5.70471e+02	2.03900e+03	5.57746e-02	5.69667e+02
2041	5.71110e+02	2.04100e+03	5.57217e-02	5.70333e+02
2043	5.71784e+02	2.04300e+03	5.56817e-02	5.71000e+02
2045	5.72428e+02	2.04500e+03	5.56581e-02	5.71667e+02
2047	5.73089e+02	2.04700e+03	5.56471e-02	5.72333e+02
2049	5.73736e+02	2.04900e+03	5.56490e-02	5.73000e+02
2051	5.74397e+02	2.05100e+03	5.56312e-02	5.73667e+02
2053	5.75059e+02	2.05300e+03	5.56118e-02	5.74333e+02
2055	5.75713e+02	2.05500e+03	5.56045e-02	5.75000e+02
2057	5.76385e+02	2.05700e+03	5.55994e-02	5.75667e+02
2059	5.77030e+02	2.05900e+03	5.55909e-02	5.76333e+02
2061	5.77689e+02	2.06100e+03	5.55808e-02	5.77000e+02
2063	5.78325e+02	2.06300e+03	5.55733e-02	5.77667e+02
2065	5.78966e+02	2.06500e+03	5.55819e-02	5.78333e+02
2067	5.79602e+02	2.06700e+03	5.55921e-02	5.79000e+02
2069	5.80244e+02	2.06900e+03	5.56149e-02	5.79667e+02
2071	5.80865e+02	2.07100e+03	5.56345e-02	5.80333e+02
2073	5.81510e+02	2.07300e+03	5.56500e-02	5.81000e+02
2075	5.82163e+02	2.07500e+03	5.56642e-02	5.81667e+02
2077	5.82807e+02	2.07700e+03	5.56612e-02	5.82333e+02
2079	5.83465e+02	2.07900e+03	5.56582e-02	5.83000e+02
2081	5.84118e+02	2.08100e+03	5.56461e-02	5.83667e+02
2083	5.84760e+02	2.08300e+03	5.56368e-02	5.84333e+02
2085	5.85410e+02	2.08500e+03	5.56381e-02	5.85000e+02
2087	5.86072e+02	2.08700e+03	5.56431e-02	5.85667e+02
2089	5.86720e+02	2.08900e+03	5.56685e-02	5.86333e+02
2091	5.87366e+02	2.09100e+03	5.56886e-02	5.87000e+02
2093	5.88021e+02	2.09300e+03	5.56970e-02	5.87667e+02
2095	5.88666e+02	2.09500e+03	5.57032e-02	5.88333e+02
2097	5.89315e+02	2.09700e+03	5.57054e-02	5.89000e+02
2099	5.89968e+02	2.09900e+03	5.57169e-02	5.89667e+02
2101	5.90631e+02	2.10100e+03	5.57263e-02	5.90333e+02
2103	5.91285e+02	2.10300e+03	5.57041e-02	5.91000e+02
2105	5.91942e+02	2.10500e+03	5.56606e-02	5.91667e+02
2107	5.92601e+02	2.10700e+03	5.56335e-02	5.92333e+02
2109	5.93257e+02	2.10900e+03	5.56138e-02	5.93000e+02
2111	5.93908e+02	2.11100e+03	5.55925e-02	5.93667e+02
2113	5.94572e+02	2.11300e+03	5.55736e-02	5.94333e+02
2115	5.95229e+02	2.11500e+03	5.55598e-02	5.95000e+02
2117	5.95879e+02	2.11700e+03	5.55387e-02	5.95667e+02
2119	5.96546e+02	2.11900e+03	5.55178e-02	5.96333e+02
2121	5.97204e+02	2.12100e+03	5.55042e-02	5.97000e+02
2123	5.97863e+02	2.12300e+03	5.55001e-02	5.97667e+02
2125	5.98513e+02	2.12500e+03	5.55196e-02	5.98333e+02
2127	5.99178e+02	2.12700e+03	5.55412e-02	5.99000e+02
2129	5.99831e+02	2.12900e+03	5.55776e-02	5.99667e+02
2131	6.00495e+02	2.13100e+03	5.56047e-02	6.00333e+02
2133	6.01158e+02	2.13300e+03	5.56315e-02	6.01000e+02
2135	6.01805e+02	2.13500e+03	5.56576e-02	6.01667e+02
2137	6.02475e+02	2.13700e+03	5.56757e-02	6.02333e+02
2139	6.03125e+02	2.13900e+03	5.56939e-02	6.03000e+02
2141	6.03788e+02	2.14100e+03	5.56950e-02	6.03667e+02
2143	6.04444e+02	2.14300e+03	5.56838e-02	6.04333e+02
2145	6.05109e+02	2.14500e+03	5.56460e-02	6.05000e+02
2147	6.05767e+02	2.14700e+03	5.55999e-02	6.05667e+02
2149	6.06434e+02	2.14900e+03	5.55525e-02	6.06333e+02
2151	6.07093e+02	2.15100e+03	5.55261e-02	6.07000e+02
2153	6.07756e+02	2.15300e+03	5.55252e-02	6.07667e+02
2155	6.08407e+02	2.15500e+03	5.55269e-02	6.08333e+02
2157	6.09079e+02	2.15700e+03	5.55546e-02	6.09000e+02
2159	6.09731e+02	2.15900e+03	5.55876e-02	6.09667e+02
2161	6.10387e+02	2.16100e+03	5.56180e-02	6.10333e+02
2163	6.11050e+02	2.16300e+03	5.56360e-02	6.11000e+02
2165	6.11706e+02	2.16500e+03	5.56456e-02	6.11667e+02
2167	6.12376e+02	2.16700e+03	5.56649e-02	6.12333e+02
2169	6.13025e+02	2.16900e+03	5.56884e-02	6.13000e+02
2171	6.13691e+02	2.17100e+03	5.56995e-02	6.13667e+02
2173	6.14356e+02	2.17300e+03	5.57112e-02	6.14333e+02
2175	6.15017e+02	2.17500e+03	5.57275e-02	6.15000e+02
2177	6.15669e+02	2.17700e+03	5.57481e-02	6.15667e+02
2179	6.16342e+02	2.17900e+03	5.57565e-02	6.16333e+02
2181	6.17002e+02	2.18100e+03	5.57519e-02	6.17000e+02
2183	6.17662e+02	2.18300e+03	5.57369e-02	6.17667e+02
2185	6.18337e+02	2.18500e+03	5.56869e-02	6.18333e+02
2187	6.18998e+02	2.18700e+03	5.56329e-02	6.19000e+02
2189	6.19646e+02	2.18900e+03	5.55610e-02	6.19667e+02
2191	6.20322e+02	2.19100e+03	5.55108e-02	6.20333e+02
2193	6.20965e+02	2.19300e+03	5.54961e-02	6.21000e+02
2195	6.21639e+02	2.19500e+03	5.54977e-02	6.21667e+02
2197	6.22295e+02	2.19700e+03	5.55419e-02	6.22333e+02
2199	6.22960e+02	2.19900e+03	5.55770e-02	6.23000e+02
2201	6.23624e+02	2.20100e+03	5.56217e-02	6.23667e+02
2203	6.24279e+02	2.20300e+03	5.56558e-02	6.24333e+02
2205	6.24940e+02	2.20500e+03	5.56736e-02	6.25000e+02
2207	6.25598e+02	2.20700e+03	5.56800e-02	6.25667e+02
2209	6.26259e+02	2.20900e+03	5.56674e-02	6.26333e+02
2211	6.26909e+02	2.21100e+03	5.56713e-02	6.27000e+02
2213	6.27581e+02	2.21300e+03	5.56795e-02	6.27667e+02
2215	6.28234e+02	2.21500e+03	5.56823e-02	6.28333e+02
2217	6.28901e+02	2.21700e+03	5.56746e-02	6.29000e+02
2219	6.29553e+02	2.21900e+03	5.56599e-02	6.29667e+02
2221	6.30215e+02	2.22100e+03	5.56455e-02	6.30333e+02
2223	6.30893e+02	2.22300e+03	5.56496e-02	6.31000e+02
2225	6.31551e+02	2.22500e+03	5.56632e-02	6.31667e+02
2227	6.32221e+02	2.22700e+03	5.56565e-02	6.32333e+02
2229	6.32882e+02	2.22900e+03	5.56294e-02	6.33000e+02
2231	6.33541e+02	2.23100e+03	5.56055e-02	6.33667e+02
2233	6.34207e+02	2.23300e+03	5.55892e-02	6.34333e+02
2235	6.34870e+02	2.23500e+03	5.55866e-02	6.35000e+02
2237	6.35545e+02	2.23700e+03	5.56000e-02	6.35667e+02
2239	6.36212e+02	2.23900e+03	5.56090e-02	6.36333e+02
2241	6.36881e+02	2.24100e+03	5.56239e-02	6.37000e+02
2243	6.37544e+02	2.24300e+03	5.56452e-02	6.37667e+02
2245	6.38226e+02	2.24500e+03	5.56639e-02	6.38333e+02
2247	6.38887e+02	2.24700e+03	5.56695e-02	6.39000e+02
2249	6.39536e+02	2.24900e+03	5.56427e-02	6.39667e+02
2251	6.40221e+02	2.25100e+03	5.56075e-02	6.40333e+02
2253	6.40883e+02	2.25300e+03	5.55565e-02	6.41000e+02
2255	6.41558e+02	2.25500e+03	5.55311e-02	6.41667e+02
2257	6.42221e+02	2.25700e+03	5.55272e-02	6.42333e+02
2259	6.42888e+02	2.25900e+03	5.55183e-02	6.43000e+02
2261	6.43546e+02	2.26100e+03	5.55369e-02	6.43667e+02
2263	6.44227e+02	2.26300e+03	5.55522e-02	6.44333e+02
2265	6.44890e+02	2.26500e+03	5.55596e-02	6.45000e+02
2267	6.45555e+02	2.26700e+03	5.55536e-02	6.45667e+02
2269	6.46218e+02	2.26900e+03	5.55361e-02	6.46333e+02
2271	6.46872e+02	2.27100e+03	5.55287e-02	6.47000e+02
2273	6.47525e+02	2.27300e+03	5.55218e-02	6.47667e+02
2275	6.48184e+02	2.27500e+03	5.55095e-02	6.48333e+02
2277	6.48846e+02	2.27700e+03	5.54950e-02	6.49000e+02
2279	6.49512e+02	2.27900e+03	5.54917e-02	6.49667e+02
2281	6.50170e+02	2.28100e+03	5.54872e-02	6.50333e+02
2283	6.50836e+02	2.28300e+03	5.54709e-02	6.51000e+02
2285	6.51492e+02	2.28500e+03	5.54438e-02	6.51667e+02
2287	6.52153e+02	2.28700e+03	5.54257e-02	6.52333e+02
2289	6.52812e+02	2.28900e+03	5.54187e-02	6.53000e+02
2291	6.53480e+02	2.29100e+03	5.54225e-02	6.53667e+02
2293	6.54136e+02	2.29300e+03	5.54571e-02	6.54333e+02
2295	6.54800e+02	2.29500e+03	5.54925e-02	6.55000e+02
2297	6.55459e+02	2.29700e+03	5.55429e-02	6.55667e+02
2299	6.56127e+02	2.29900e+03	5.55866e-02	6.56333e+02
2301	6.56785e+02	2.30100e+03	5.56254e-02	6.57000e+02
2303	6.57457e+02	2.30300e+03	5.56489e-02	6.57667e+02
2305	6.58121e+02	2.30500e+03	5.56472e-02	6.58333e+02
2307	6.58786e+02	2.30700e+03	5.56396e-02	6.59000e+02
2309	6.59452e+02	2.30900e+03	5.56159e-02	6.59667e+02
2311	6.60118e+02	2.31100e+03	5.56090e-02	6.60333e+02
2313	6.60786e+02	2.31300e+03	5.56191e-02	6.61000e+02
2315	6.61462e+02	2.31500e+03	5.56289e-02	6.61667e+02
2317	6.62115e+02	2.31700e+03	5.56378e-02	6.62333e+02
2319	6.62773e+02	2.31900e+03	5.56218e-02	6.63000e+02
2321	6.63443e+02	2.32100e+03	5.55739e-02	6.63667e+02
2323	6.64108e+02	2.32300e+03	5.55282e-02	6.64333e+02
2325	6.64781e+02	2.32500e+03	5.54814e-02	6.65000e+02
2327	6.65437e+02	2.32700e+03	5.54555e-02	6.65667e+02
2329	6.66102e+02	2.32900e+03	5.54552e-02	6.66333e+02
2331	6.66752e+02	2.33100e+03	5.54527e-02	6.67000e+02
2333	6.67424e+02	2.33300e+03	5.54491e-02	6.67667e+02
2335	6.68073e+02	2.33500e+03	5.54401e-02	6.68333e+02
2337	6.68732e+02	2.33700e+03	5.54303e-02	6.69000e+02
2339	6.69388e+02	2.33900e+03	5.54327e-02	6.69667e+02
2341	6.70046e+02	2.34100e+03	5.54425e-02	6.70333e+02
2343	6.70696e+02	2.34300e+03	5.54427e-02	6.71000e+02
2345	6.71350e+02	2.34500e+03	5.54306e-02	6.71667e+02
2347	6.72018e+02	2.34700e+03	5.54143e-02	6.72333e+02
2349	6.72680e+02	2.34900e+03	5.53938e-02	6.73000e+02
2351	6.73346e+02	2.35100e+03	5.53832e-02	6.73667e+02
2353	6.74008e+02	2.35300e+03	5.53875e-02	6.74333e+02
2355	6.74667e+02	2.35500e+03	5.53953e-02	6.75000e+02
2357	6.75332e+02	2.35700e+03	5.54184e-02	6.75667e+02
2359	6.75994e+02	2.35900e+03	5.54335e-02	6.76333e+02
2361	6.76651e+02	2.36100e+03	5.54467e-02	6.77000e+02
2363	6.77320e+02	2.36300e+03	5.54521e-02	6.77667e+02
2365	6.77985e+02	2.36500e+03	5.54551e-02	6.78333e+02
2367	6.78652e+02	2.36700e+03	5.54683e-02	6.79000e+02
2369	6.79312e+02	2.36900e+03	5.54841e-02	6.79667e+02
2371	6.79975e+02	2.37100e+03	5.54882e-02	6.80333e+02
2373	6.80644e+02	2.37300e+03	5.54863e-02	6.81000e+02
2375	6.81312e+02	2.37500e+03	5.54775e-02	6.81667e+02
2377	6.81971e+02	2.37700e+03	5.54628e-02	6.82333e+02
2379	6.82640e+02	2.37900e+03	5.54514e-02	6.83000e+02
2381	6.83294e+02	2.38100e+03	5.54410e-02	6.83667e+02
2383	6.83961e+02	2.38300e+03	5.54265e-02	6.84333e+02
2385	6.84633e+02	2.38500e+03	5.54058e-02	6.85000e+02
2387	6.85309e+02	2.38700e+03	5.53695e-02	6.85667e+02
2389	6.85965e+02	2.38900e+03	5.53122e-02	6.86333e+02
2391	6.86644e+02	2.39100e+03	5.52614e-02	6.87000e+02
2393	6.87309e+02	2.39300e+03	5.52280e-02	6.87667e+02
2395	6.87972e+02	2.39500e+03	5.52160e-02	6.88333e+02
2397	6.88627e+02	2.39700e+03	5.52311e-02	6.89000e+02
2399	6.89301e+02	2.39900e+03	5.52362e-02	6.89667e+02
2401	6.89969e+02	2.40100e+03	5.52553e-02	6.90333e+02
2403	6.90633e+02	2.40300e+03	5.52744e-02	6.91000e+02
2405	6.91112e+02	2.40500e+03	5.52921e-02	6.91667e+02
2407	6.91465e+02	2.40700e+03	5.53022e-02	6.92333e+02
2409	6.91953e+02	2.40900e+03	5.53146e-02	6.93000e+02
2411	6.92433e+02	2.41100e+03	5.53357e-02	6.93667e+02
2413	6.92886e+02	2.41300e+03	5.53583e-02	6.94333e+02
2415	6.93312e+02	2.41500e+03	5.53568e-02	6.95000e+02
2417	6.93688e+02	2.41700e+03	5.53456e-02	6.95667e+02
2419	6.94067e+02	2.41900e+03	5.53541e-02	6.96333e+02
2421	6.94401e+02	2.42100e+03	5.53608e-02	6.97000e+02
2423	6.94732e+02	2.42300e+03	5.53472e-02	6.97667e+02
2425	6.95049e+02	2.42500e+03	5.53103e-02	6.98333e+02
2427	6.95332e+02	2.42700e+03	5.52862e-02	6.99000e+02
2429	6.95600e+02	2.42900e+03	5.52874e-02	6.99667e+02
2430	6.95730e+02	2.43000e+03	5.53014e-02	7.00000e+02