File: Experiments/TGA/TUBS/tga_nonisotherm/tga_dynamic_n2high50_dyn30_powder_3mg_r2.txt
Index	Ts	t	Weight	Tr
[#]	[°C]	[s]	[mg]	[°C]
682	1.30468e+02	6.82000e+02	3.02956	131.0
684	1.31479e+02	6.84000e+02	3.0295	132.0
686	1.32478e+02	6.86000e+02	3.02943	133.0
688	1.33428e+02	6.88000e+02	3.02936	134.0
690	1.34388e+02	6.90000e+02	3.02929	135.0
692	1.35394e+02	6.92000e+02	3.02919	136.0
694	1.36400e+02	6.94000e+02	3.02908	137.0
696	1.37391e+02	6.96000e+02	3.02895	138.0
698	1.38387e+02	6.98000e+02	3.0288	139.0
700	1.39389e+02	7.00000e+02	3.02862	140.0
702	1.40397e+02	7.02000e+02	3.02844	141.0
704	1.41400e+02	7.04000e+02	3.02827	142.0
706	1.42393e+02	7.06000e+02	3.02811	143.0
708	1.43398e+02	7.08000e+02	3.02795	144.0
710	1.44412e+02	7.10000e+02	3.02777	145.0
712	1.45409e+02	7.12000e+02	3.02753	146.0
714	1.46415e+02	7.14000e+02	3.02723	147.0
716	1.47420e+02	7.16000e+02	3.02686	148.0
718	1.48427e+02	7.18000e+02	3.02648	149.0
720	1.49429e+02	7.20000e+02	3.0261	150.0
722	1.50427e+02	7.22000e+02	3.02574	151.0
724	1.51430e+02	7.24000e+02	3.0254	152.0
726	1.52424e+02	7.26000e+02	3.02504	153.0
728	1.53428e+02	7.28000e+02	3.02467	154.0
730	1.54430e+02	7.30000e+02	3.02427	155.0
732	1.55435e+02	7.32000e+02	3.02384	156.0
734	1.56444e+02	7.34000e+02	3.02338	157.0
736	1.57454e+02	7.36000e+02	3.02289	158.0
738	1.58455e+02	7.38000e+02	3.0224	159.0
740	1.59451e+02	7.40000e+02	3.02187	160.0
742	1.60462e+02	7.42000e+02	3.02132	161.0
744	1.61466e+02	7.44000e+02	3.02075	162.0
746	1.62470e+02	7.46000e+02	3.02015	163.0
748	1.63504e+02	7.48000e+02	3.01953	164.0
750	1.64496e+02	7.50000e+02	3.01892	165.0
752	1.65502e+02	7.52000e+02	3.01828	166.0
754	1.66510e+02	7.54000e+02	3.01761	167.0
756	1.67523e+02	7.56000e+02	3.01687	168.0
758	1.68517e+02	7.58000e+02	3.01609	169.0
760	1.69560e+02	7.60000e+02	3.01523	170.0
762	1.70545e+02	7.62000e+02	3.01433	171.0
764	1.71552e+02	7.64000e+02	3.01335	172.0
766	1.72570e+02	7.66000e+02	3.01233	173.0
768	1.73574e+02	7.68000e+02	3.01123	174.0
770	1.74598e+02	7.70000e+02	3.01007	175.0
772	1.75605e+02	7.72000e+02	3.0088	176.0
774	1.76610e+02	7.74000e+02	3.00744	177.0
776	1.77630e+02	7.76000e+02	3.00592	178.0
778	1.78627e+02	7.78000e+02	3.00428	179.0
780	1.79645e+02	7.80000e+02	3.00244	180.0
782	1.80658e+02	7.82000e+02	3.00047	181.0
784	1.81672e+02	7.84000e+02	2.99829	182.0
786	1.82701e+02	7.86000e+02	2.99598	183.0
788	1.83716e+02	7.88000e+02	2.99346	184.0
790	1.84730e+02	7.90000e+02	2.99086	185.0
792	1.85754e+02	7.92000e+02	2.98811	186.0
794	1.86770e+02	7.94000e+02	2.98527	187.0
796	1.87781e+02	7.96000e+02	2.98227	188.0
798	1.88781e+02	7.98000e+02	2.97918	189.0
800	1.89806e+02	8.00000e+02	2.97594	190.0
802	1.90830e+02	8.02000e+02	2.97264	191.0
804	1.91841e+02	8.04000e+02	2.96922	192.0
806	1.92857e+02	8.06000e+02	2.96576	193.0
808	1.93881e+02	8.08000e+02	2.9622	194.0
810	1.94895e+02	8.10000e+02	2.95862	195.0
812	1.95905e+02	8.12000e+02	2.95502	196.0
814	1.96923e+02	8.14000e+02	2.95146	197.0
816	1.97944e+02	8.16000e+02	2.94797	198.0
818	1.98966e+02	8.18000e+02	2.94456	199.0
820	1.99994e+02	8.20000e+02	2.94129	200.0
822	2.01005e+02	8.22000e+02	2.93812	201.0
824	2.02028e+02	8.24000e+02	2.93512	202.0
826	2.03055e+02	8.26000e+02	2.93222	203.0
828	2.04077e+02	8.28000e+02	2.92951	204.0
830	2.05077e+02	8.30000e+02	2.92691	205.0
832	2.06111e+02	8.32000e+02	2.92451	206.0
834	2.07134e+02	8.34000e+02	2.92222	207.0
836	2.08144e+02	8.36000e+02	2.92015	208.0
838	2.09165e+02	8.38000e+02	2.91822	209.0
840	2.10193e+02	8.40000e+02	2.91651	210.0
842	2.11210e+02	8.42000e+02	2.91492	211.0
844	2.12229e+02	8.44000e+02	2.9135	212.0
846	2.13250e+02	8.46000e+02	2.91218	213.0
848	2.14270e+02	8.48000e+02	2.91101	214.0
850	2.15285e+02	8.50000e+02	2.9099	215.0
852	2.16313e+02	8.52000e+02	2.90892	216.0
854	2.17334e+02	8.54000e+02	2.90798	217.0
856	2.18367e+02	8.56000e+02	2.90712	218.0
858	2.19388e+02	8.58000e+02	2.9063	219.0
860	2.20399e+02	8.60000e+02	2.90554	220.0
862	2.21427e+02	8.62000e+02	2.90478	221.0
864	2.22438e+02	8.64000e+02	2.90405	222.0
866	2.23479e+02	8.66000e+02	2.90332	223.0
868	2.24501e+02	8.68000e+02	2.9026	224.0
870	2.25527e+02	8.70000e+02	2.90188	225.0
872	2.26547e+02	8.72000e+02	2.90116	226.0
874	2.27569e+02	8.74000e+02	2.90044	227.0
876	2.28586e+02	8.76000e+02	2.89971	228.0
878	2.29575e+02	8.78000e+02	2.89899	229.0
880	2.30585e+02	8.80000e+02	2.89827	230.0
882	2.31590e+02	8.82000e+02	2.89757	231.0
884	2.32609e+02	8.84000e+02	2.89686	232.0
886	2.33631e+02	8.86000e+02	2.89614	233.0
888	2.34655e+02	8.88000e+02	2.89542	234.0
890	2.35674e+02	8.90000e+02	2.89469	235.0
892	2.36710e+02	8.92000e+02	2.89396	236.0
894	2.37720e+02	8.94000e+02	2.89322	237.0
896	2.38712e+02	8.96000e+02	2.89247	238.0
898	2.39711e+02	8.98000e+02	2.89172	239.0
900	2.40713e+02	9.00000e+02	2.89099	240.0
902	2.41713e+02	9.02000e+02	2.89028	241.0
904	2.42709e+02	9.04000e+02	2.8896	242.0
906	2.43717e+02	9.06000e+02	2.88894	243.0
908	2.44729e+02	9.08000e+02	2.88831	244.0
910	2.45740e+02	9.10000e+02	2.88769	245.0
912	2.46748e+02	9.12000e+02	2.8871	246.0
914	2.47763e+02	9.14000e+02	2.88652	247.0
916	2.48779e+02	9.16000e+02	2.88597	248.0
918	2.49787e+02	9.18000e+02	2.88542	249.0
920	2.50813e+02	9.20000e+02	2.88488	250.0
922	2.51845e+02	9.22000e+02	2.88435	251.0
924	2.52891e+02	9.24000e+02	2.88383	252.0
926	2.53946e+02	9.26000e+02	2.88332	253.0
928	2.54956e+02	9.28000e+02	2.88283	254.0
930	2.56001e+02	9.30000e+02	2.88233	255.0
932	2.57070e+02	9.32000e+02	2.88184	256.0
934	2.58109e+02	9.34000e+02	2.88134	257.0
936	2.59157e+02	9.36000e+02	2.88084	258.0
938	2.60177e+02	9.38000e+02	2.88034	259.0
940	2.61189e+02	9.40000e+02	2.87984	260.0
942	2.62214e+02	9.42000e+02	2.87936	261.0
944	2.63237e+02	9.44000e+02	2.8789	262.0
946	2.64260e+02	9.46000e+02	2.87845	263.0
948	2.65277e+02	9.48000e+02	2.87798	264.0
950	2.66292e+02	9.50000e+02	2.8775	265.0
952	2.67278e+02	9.52000e+02	2.87697	266.0
954	2.68304e+02	9.54000e+02	2.87642	267.0
956	2.69364e+02	9.56000e+02	2.87583	268.0
958	2.70415e+02	9.58000e+02	2.87522	269.0
960	2.71441e+02	9.60000e+02	2.87459	270.0
962	2.72418e+02	9.62000e+02	2.87396	271.0
964	2.73446e+02	9.64000e+02	2.87332	272.0
966	2.74486e+02	9.66000e+02	2.87267	273.0
968	2.75503e+02	9.68000e+02	2.87201	274.0
970	2.76520e+02	9.70000e+02	2.87133	275.0
972	2.77549e+02	9.72000e+02	2.87063	276.0
974	2.78561e+02	9.74000e+02	2.86989	277.0
976	2.79609e+02	9.76000e+02	2.86909	278.0
978	2.80606e+02	9.78000e+02	2.86825	279.0
980	2.81593e+02	9.80000e+02	2.86735	280.0
982	2.82625e+02	9.82000e+02	2.86641	281.0
984	2.83659e+02	9.84000e+02	2.86539	282.0
986	2.84680e+02	9.86000e+02	2.86431	283.0
988	2.85700e+02	9.88000e+02	2.86313	284.0
990	2.86689e+02	9.90000e+02	2.8619	285.0
992	2.87721e+02	9.92000e+02	2.86058	286.0
994	2.88731e+02	9.94000e+02	2.85919	287.0
996	2.89742e+02	9.96000e+02	2.85766	288.0
998	2.90766e+02	9.98000e+02	2.85604	289.0
1000	2.91816e+02	1.00000e+03	2.85428	290.0
1002	2.92828e+02	1.00200e+03	2.85244	291.0
1004	2.93855e+02	1.00400e+03	2.85047	292.0
1006	2.94912e+02	1.00600e+03	2.84842	293.0
1008	2.95929e+02	1.00800e+03	2.84622	294.0
1010	2.96941e+02	1.01000e+03	2.84391	295.0
1012	2.97989e+02	1.01200e+03	2.84143	296.0
1014	2.99001e+02	1.01400e+03	2.83885	297.0
1016	3.00048e+02	1.01600e+03	2.8361	298.0
1018	3.01039e+02	1.01800e+03	2.83321	299.0
1020	3.02139e+02	1.02000e+03	2.83012	300.0
1022	3.03131e+02	1.02200e+03	2.8269	301.0
1024	3.04190e+02	1.02400e+03	2.8235	302.0
1026	3.05356e+02	1.02600e+03	2.82001	303.0
1028	3.06394e+02	1.02800e+03	2.81637	304.0
1030	3.07323e+02	1.03000e+03	2.81266	305.0
1032	3.08301e+02	1.03200e+03	2.80881	306.0
1034	3.09290e+02	1.03400e+03	2.8049	307.0
1036	3.10319e+02	1.03600e+03	2.80086	308.0
1038	3.11289e+02	1.03800e+03	2.79674	309.0
1040	3.12272e+02	1.04000e+03	2.7925	310.0
1042	3.13281e+02	1.04200e+03	2.7882	311.0
1044	3.14280e+02	1.04400e+03	2.78381	312.0
1046	3.15290e+02	1.04600e+03	2.7794	313.0
1048	3.16300e+02	1.04800e+03	2.77498	314.0
1050	3.17322e+02	1.05000e+03	2.77053	315.0
1052	3.18317e+02	1.05200e+03	2.76606	316.0
1054	3.19348e+02	1.05400e+03	2.76157	317.0
1056	3.20371e+02	1.05600e+03	2.75706	318.0
1058	3.21387e+02	1.05800e+03	2.75255	319.0
1060	3.22410e+02	1.06000e+03	2.748	320.0
1062	3.23408e+02	1.06200e+03	2.74342	321.0
1064	3.24384e+02	1.06400e+03	2.73875	322.0
1066	3.25369e+02	1.06600e+03	2.73401	323.0
1068	3.26339e+02	1.06800e+03	2.72915	324.0
1070	3.27324e+02	1.07000e+03	2.7242	325.0
1072	3.28338e+02	1.07200e+03	2.71912	326.0
1074	3.29337e+02	1.07400e+03	2.71391	327.0
1076	3.30365e+02	1.07600e+03	2.70847	328.0
1078	3.31355e+02	1.07800e+03	2.70284	329.0
1080	3.32359e+02	1.08000e+03	2.69685	330.0
1082	3.33351e+02	1.08200e+03	2.69058	331.0
1084	3.34356e+02	1.08400e+03	2.68378	332.0
1086	3.35365e+02	1.08600e+03	2.67661	333.0
1088	3.36422e+02	1.08800e+03	2.66883	334.0
1090	3.37430e+02	1.09000e+03	2.66071	335.0
1092	3.38432e+02	1.09200e+03	2.65198	336.0
1094	3.39459e+02	1.09400e+03	2.64287	337.0
1096	3.40478e+02	1.09600e+03	2.6331	338.0
1098	3.41462e+02	1.09800e+03	2.62288	339.0
1100	3.42461e+02	1.10000e+03	2.61186	340.0
1102	3.43409e+02	1.10200e+03	2.60031	341.0
1104	3.44376e+02	1.10400e+03	2.58786	342.0
1106	3.45315e+02	1.10600e+03	2.57483	343.0
1108	3.46281e+02	1.10800e+03	2.56079	344.0
1110	3.47261e+02	1.11000e+03	2.5461	345.0
1112	3.48262e+02	1.11200e+03	2.53031	346.0
1114	3.49272e+02	1.11400e+03	2.51385	347.0
1116	3.50305e+02	1.11600e+03	2.49623	348.0
1118	3.51347e+02	1.11800e+03	2.47786	349.0
1120	3.52310e+02	1.12000e+03	2.45821	350.0
1122	3.53328e+02	1.12200e+03	2.43777	351.0
1124	3.54301e+02	1.12400e+03	2.41599	352.0
1126	3.55283e+02	1.12600e+03	2.39337	353.0
1128	3.56286e+02	1.12800e+03	2.36936	354.0
1130	3.57298e+02	1.13000e+03	2.34452	355.0
1132	3.58295e+02	1.13200e+03	2.31829	356.0
1134	3.59322e+02	1.13400e+03	2.29125	357.0
1136	3.60368e+02	1.13600e+03	2.26281	358.0
1138	3.61351e+02	1.13800e+03	2.23357	359.0
1140	3.62409e+02	1.14000e+03	2.20298	360.0
1142	3.63403e+02	1.14200e+03	2.17161	361.0
1144	3.64409e+02	1.14400e+03	2.13889	362.0
1146	3.65435e+02	1.14600e+03	2.1054	363.0
1148	3.66394e+02	1.14800e+03	2.07064	364.0
1150	3.67389e+02	1.15000e+03	2.03519	365.0
1152	3.68375e+02	1.15200e+03	1.99854	366.0
1154	3.69364e+02	1.15400e+03	1.96118	367.0
1156	3.70323e+02	1.15600e+03	1.92266	368.0
1158	3.71301e+02	1.15800e+03	1.8835	369.0
1160	3.72338e+02	1.16000e+03	1.84324	370.0
1162	3.73372e+02	1.16200e+03	1.80228	371.0
1164	3.74352e+02	1.16400e+03	1.76022	372.0
1166	3.75384e+02	1.16600e+03	1.71759	373.0
1168	3.76416e+02	1.16800e+03	1.67404	374.0
1170	3.77431e+02	1.17000e+03	1.62998	375.0
1172	3.78501e+02	1.17200e+03	1.58513	376.0
1174	3.79559e+02	1.17400e+03	1.53991	377.0
1176	3.80598e+02	1.17600e+03	1.49412	378.0
1178	3.81568e+02	1.17800e+03	1.44807	379.0
1180	3.82508e+02	1.18000e+03	1.40163	380.0
1182	3.83526e+02	1.18200e+03	1.35504	381.0
1184	3.84651e+02	1.18400e+03	1.30822	382.0
1186	3.85680e+02	1.18600e+03	1.26135	383.0
1188	3.86708e+02	1.18800e+03	1.21438	384.0
1190	3.87738e+02	1.19000e+03	1.16741	385.0
1192	3.88773e+02	1.19200e+03	1.1205	386.0
1194	3.89763e+02	1.19400e+03	1.07375	387.0
1196	3.90824e+02	1.19600e+03	1.02727	388.0
1198	3.91843e+02	1.19800e+03	0.980991	389.0
1200	3.92871e+02	1.20000e+03	0.935103	390.0
1202	3.93884e+02	1.20200e+03	0.889543	391.0
1204	3.94904e+02	1.20400e+03	0.844542	392.0
1206	3.95908e+02	1.20600e+03	0.799935	393.0
1208	3.96902e+02	1.20800e+03	0.756054	394.0
1210	3.97927e+02	1.21000e+03	0.712712	395.0
1212	3.98931e+02	1.21200e+03	0.6703	396.0
1214	3.99947e+02	1.21400e+03	0.628465	397.0
1216	4.00975e+02	1.21600e+03	0.587731	398.0
1218	4.01969e+02	1.21800e+03	0.547858	399.0
1220	4.03002e+02	1.22000e+03	0.509515	400.0
1222	4.04036e+02	1.22200e+03	0.47224	401.0
1224	4.05033e+02	1.22400e+03	0.436818	402.0
1226	4.06036e+02	1.22600e+03	0.402584	403.0
1228	4.07076e+02	1.22800e+03	0.370395	404.0
1230	4.08143e+02	1.23000e+03	0.339488	405.0
1232	4.09244e+02	1.23200e+03	0.310726	406.0
1234	4.10323e+02	1.23400e+03	0.283237	407.0
1236	4.11323e+02	1.23600e+03	0.257877	408.0
1238	4.12458e+02	1.23800e+03	0.233714	409.0
1240	4.13412e+02	1.24000e+03	0.211514	410.0
1242	4.14437e+02	1.24200e+03	0.190374	411.0
1244	4.15363e+02	1.24400e+03	0.171004	412.0
1246	4.16244e+02	1.24600e+03	0.152628	413.0
1248	4.17202e+02	1.24800e+03	0.135898	414.0
1250	4.18146e+02	1.25000e+03	0.120086	415.0
1252	4.19108e+02	1.25200e+03	0.105817	416.0
1254	4.20088e+02	1.25400e+03	0.0924207	417.0
1256	4.21067e+02	1.25600e+03	0.0804617	418.0
1258	4.22046e+02	1.25800e+03	0.0692636	419.0
1260	4.23037e+02	1.26000e+03	0.0593354	420.0
1262	4.24016e+02	1.26200e+03	0.0501017	421.0
1264	4.25025e+02	1.26400e+03	0.0420206	422.0
1266	4.26036e+02	1.26600e+03	0.0345445	423.0
1268	4.27101e+02	1.26800e+03	0.0280628	424.0
1270	4.28144e+02	1.27000e+03	0.0220751	425.0
1272	4.29175e+02	1.27200e+03	0.0168956	426.0
1274	4.30230e+02	1.27400e+03	0.0121203	427.0
1276	4.31222e+02	1.27600e+03	0.00801307	428.0
1278	4.32191e+02	1.27800e+03	0.00425595	429.0
1280	4.33218e+02	1.28000e+03	0.00105868	430.0
1282	4.34232e+02	1.28200e+03	-0.0018736	431.0
1284	4.35313e+02	1.28400e+03	-0.00437254	432.0
1286	4.36266e+02	1.28600e+03	-0.00665053	433.0
1288	4.37223e+02	1.28800e+03	-0.00857377	434.0
1290	4.38209e+02	1.29000e+03	-0.0103285	435.0
1292	4.39187e+02	1.29200e+03	-0.0118177	436.0
1294	4.40201e+02	1.29400e+03	-0.0131791	437.0
1296	4.41171e+02	1.29600e+03	-0.0143287	438.0
1298	4.42174e+02	1.29800e+03	-0.0153744	439.0
1300	4.43174e+02	1.30000e+03	-0.0162575	440.0
1302	4.44164e+02	1.30200e+03	-0.0170729	441.0
1304	4.45133e+02	1.30400e+03	-0.0177763	442.0
1306	4.46143e+02	1.30600e+03	-0.0184241	443.0
1308	4.47144e+02	1.30800e+03	-0.0189705	444.0
1310	4.48156e+02	1.31000e+03	-0.0194547	445.0
1312	4.49170e+02	1.31200e+03	-0.0198386	446.0
1314	4.50160e+02	1.31400e+03	-0.020187	447.0
1316	4.51137e+02	1.31600e+03	-0.0204918	448.0
1318	4.52097e+02	1.31800e+03	-0.0208023	449.0
1320	4.53069e+02	1.32000e+03	-0.0211107	450.0
1322	4.54060e+02	1.32200e+03	-0.0213822	451.0
1324	4.55028e+02	1.32400e+03	-0.0215939	452.0
1326	4.56007e+02	1.32600e+03	-0.0217847	453.0
1328	4.57008e+02	1.32800e+03	-0.0219351	454.0
1330	4.57967e+02	1.33000e+03	-0.0220649	455.0
1332	4.58887e+02	1.33200e+03	-0.0221516	456.0
1334	4.59842e+02	1.33400e+03	-0.0221988	457.0
1336	4.60817e+02	1.33600e+03	-0.0221901	458.0
1338	4.61762e+02	1.33800e+03	-0.0221831	459.0
1340	4.62708e+02	1.34000e+03	-0.0221996	460.0
1342	4.63667e+02	1.34200e+03	-0.0222589	461.0
1344	4.64665e+02	1.34400e+03	-0.0223667	462.0
1346	4.65645e+02	1.34600e+03	-0.022459	463.0
1348	4.66603e+02	1.34800e+03	-0.0225249	464.0
1350	4.67522e+02	1.35000e+03	-0.0225739	465.0
1352	4.68504e+02	1.35200e+03	-0.0226111	466.0
1354	4.69512e+02	1.35400e+03	-0.0226695	467.0
1356	4.70488e+02	1.35600e+03	-0.0227602	468.0
1358	4.71479e+02	1.35800e+03	-0.0228602	469.0
1360	4.72403e+02	1.36000e+03	-0.0229542	470.0
1362	4.73352e+02	1.36200e+03	-0.0230115	471.0
1364	4.74307e+02	1.36400e+03	-0.0230106	472.0
1366	4.75249e+02	1.36600e+03	-0.0229922	473.0
1368	4.76226e+02	1.36800e+03	-0.0229529	474.0
1370	4.77197e+02	1.37000e+03	-0.0229236	475.0
1372	4.78175e+02	1.37200e+03	-0.0229142	476.0
1374	4.79153e+02	1.37400e+03	-0.0229168	477.0
1376	4.80110e+02	1.37600e+03	-0.0229327	478.0
1378	4.81081e+02	1.37800e+03	-0.0229367	479.0
1380	4.82081e+02	1.38000e+03	-0.0229242	480.0
1382	4.83056e+02	1.38200e+03	-0.0229102	481.0
1384	4.83986e+02	1.38400e+03	-0.0229023	482.0
1386	4.84922e+02	1.38600e+03	-0.0229154	483.0
1388	4.85909e+02	1.38800e+03	-0.0229585	484.0
1390	4.86875e+02	1.39000e+03	-0.0230153	485.0
1392	4.87859e+02	1.39200e+03	-0.0230935	486.0
1394	4.88829e+02	1.39400e+03	-0.0231815	487.0
1396	4.89830e+02	1.39600e+03	-0.0232795	488.0
1398	4.90830e+02	1.39800e+03	-0.0233725	489.0
1400	4.91827e+02	1.40000e+03	-0.0234558	490.0
1402	4.92821e+02	1.40200e+03	-0.023522	491.0
1404	4.93826e+02	1.40400e+03	-0.0235604	492.0
1406	4.94808e+02	1.40600e+03	-0.02358	493.0
1408	4.95758e+02	1.40800e+03	-0.0235782	494.0
1410	4.96725e+02	1.41000e+03	-0.0235733	495.0
1412	4.97705e+02	1.41200e+03	-0.0235596	496.0
1414	4.98692e+02	1.41400e+03	-0.0235385	497.0
1416	4.99691e+02	1.41600e+03	-0.0235076	498.0
1418	5.00723e+02	1.41800e+03	-0.0234796	499.0
1420	5.01739e+02	1.42000e+03	-0.0234581	500.0
1422	5.02718e+02	1.42200e+03	-0.0234472	501.0
1424	5.03678e+02	1.42400e+03	-0.0234525	502.0
1426	5.04679e+02	1.42600e+03	-0.0234655	503.0
1428	5.05664e+02	1.42800e+03	-0.023492	504.0
1430	5.06667e+02	1.43000e+03	-0.0235252	505.0
1432	5.07602e+02	1.43200e+03	-0.0235709	506.0
1434	5.08504e+02	1.43400e+03	-0.0236175	507.0
1436	5.09641e+02	1.43600e+03	-0.0236645	508.0
1438	5.10593e+02	1.43800e+03	-0.0236921	509.0
1440	5.11495e+02	1.44000e+03	-0.0236899	510.0
1442	5.12478e+02	1.44200e+03	-0.0236778	511.0
1444	5.13480e+02	1.44400e+03	-0.0236574	512.0
1446	5.14469e+02	1.44600e+03	-0.0236508	513.0
1448	5.15448e+02	1.44800e+03	-0.0236641	514.0
1450	5.16454e+02	1.45000e+03	-0.023682	515.0
1452	5.17440e+02	1.45200e+03	-0.023707	516.0
1454	5.18426e+02	1.45400e+03	-0.0237293	517.0
1456	5.19398e+02	1.45600e+03	-0.0237485	518.0
1458	5.20378e+02	1.45800e+03	-0.0237589	519.0
1460	5.21351e+02	1.46000e+03	-0.0237572	520.0
1462	5.22327e+02	1.46200e+03	-0.023745	521.0
1464	5.23303e+02	1.46400e+03	-0.0237165	522.0
1466	5.24280e+02	1.46600e+03	-0.0236809	523.0
1468	5.25264e+02	1.46800e+03	-0.0236359	524.0
1470	5.26247e+02	1.47000e+03	-0.0235973	525.0
1472	5.27201e+02	1.47200e+03	-0.0235677	526.0
1474	5.28172e+02	1.47400e+03	-0.0235512	527.0
1476	5.29133e+02	1.47600e+03	-0.0235555	528.0
1478	5.30110e+02	1.47800e+03	-0.0235713	529.0
1480	5.31067e+02	1.48000e+03	-0.0236039	530.0
1482	5.32046e+02	1.48200e+03	-0.023639	531.0
1484	5.33015e+02	1.48400e+03	-0.0236819	532.0
1486	5.33998e+02	1.48600e+03	-0.0237271	533.0
1488	5.34989e+02	1.48800e+03	-0.0237749	534.0
1490	5.36005e+02	1.49000e+03	-0.0238153	535.0
1492	5.37018e+02	1.49200e+03	-0.0238465	536.0
1494	5.38025e+02	1.49400e+03	-0.0238704	537.0
1496	5.39014e+02	1.49600e+03	-0.0238759	538.0
1498	5.40032e+02	1.49800e+03	-0.0238654	539.0
1500	5.41032e+02	1.50000e+03	-0.0238388	540.0
1502	5.42040e+02	1.50200e+03	-0.0238239	541.0
1504	5.43029e+02	1.50400e+03	-0.0238204	542.0
1506	5.43982e+02	1.50600e+03	-0.02382	543.0
1508	5.44963e+02	1.50800e+03	-0.0238276	544.0
1510	5.45915e+02	1.51000e+03	-0.0238405	545.0
1512	5.46873e+02	1.51200e+03	-0.0238618	546.0
1514	5.47852e+02	1.51400e+03	-0.0238772	547.0
1516	5.48816e+02	1.51600e+03	-0.0238902	548.0
1518	5.49777e+02	1.51800e+03	-0.0239076	549.0
1520	5.50761e+02	1.52000e+03	-0.0239314	550.0
1522	5.51747e+02	1.52200e+03	-0.0239566	551.0
1524	5.52740e+02	1.52400e+03	-0.0239814	552.0
1526	5.53726e+02	1.52600e+03	-0.0240052	553.0
1528	5.54717e+02	1.52800e+03	-0.0240232	554.0
1530	5.55690e+02	1.53000e+03	-0.0240416	555.0
1532	5.56675e+02	1.53200e+03	-0.0240602	556.0
1534	5.57655e+02	1.53400e+03	-0.0240848	557.0
1536	5.58628e+02	1.53600e+03	-0.0241152	558.0
1538	5.59613e+02	1.53800e+03	-0.0241401	559.0
1540	5.60584e+02	1.54000e+03	-0.0241588	560.0
1542	5.61556e+02	1.54200e+03	-0.0241736	561.0
1544	5.62518e+02	1.54400e+03	-0.0241882	562.0
1546	5.63498e+02	1.54600e+03	-0.0242065	563.0
1548	5.64497e+02	1.54800e+03	-0.0242187	564.0
1550	5.65455e+02	1.55000e+03	-0.0242229	565.0
1552	5.66395e+02	1.55200e+03	-0.0242139	566.0
1554	5.67340e+02	1.55400e+03	-0.024204	567.0
1556	5.68312e+02	1.55600e+03	-0.0241958	568.0
1558	5.69299e+02	1.55800e+03	-0.0241831	569.0
1560	5.70272e+02	1.56000e+03	-0.0241704	570.0
1562	5.71251e+02	1.56200e+03	-0.0241595	571.0
1564	5.72216e+02	1.56400e+03	-0.0241479	572.0
1566	5.73166e+02	1.56600e+03	-0.0241404	573.0
1568	5.74135e+02	1.56800e+03	-0.024139	574.0
1570	5.75120e+02	1.57000e+03	-0.0241457	575.0
1572	5.76092e+02	1.57200e+03	-0.0241637	576.0
1574	5.77106e+02	1.57400e+03	-0.0241796	577.0
1576	5.78118e+02	1.57600e+03	-0.0241969	578.0
1578	5.79100e+02	1.57800e+03	-0.024209	579.0
1580	5.80132e+02	1.58000e+03	-0.0242083	580.0
1582	5.81160e+02	1.58200e+03	-0.0241912	581.0
1584	5.82108e+02	1.58400e+03	-0.0241514	582.0
1586	5.83124e+02	1.58600e+03	-0.0241158	583.0
1588	5.84050e+02	1.58800e+03	-0.024091	584.0
1590	5.84969e+02	1.59000e+03	-0.0240861	585.0
1592	5.85933e+02	1.59200e+03	-0.0241092	586.0
1594	5.86893e+02	1.59400e+03	-0.0241406	587.0
1596	5.87883e+02	1.59600e+03	-0.0241732	588.0
1598	5.88868e+02	1.59800e+03	-0.0241961	589.0
1600	5.89854e+02	1.60000e+03	-0.0242083	590.0
1602	5.90834e+02	1.60200e+03	-0.0242236	591.0
1604	5.91837e+02	1.60400e+03	-0.0242386	592.0
1606	5.92811e+02	1.60600e+03	-0.0242494	593.0
1608	5.93803e+02	1.60800e+03	-0.02425	594.0
1610	5.94767e+02	1.61000e+03	-0.024242	595.0
1612	5.95761e+02	1.61200e+03	-0.0242269	596.0
1614	5.96733e+02	1.61400e+03	-0.0242142	597.0
1616	5.97717e+02	1.61600e+03	-0.024207	598.0
1618	5.98685e+02	1.61800e+03	-0.0242038	599.0
1620	5.99674e+02	1.62000e+03	-0.024214	600.0
1622	6.00657e+02	1.62200e+03	-0.024231	601.0
1624	6.01630e+02	1.62400e+03	-0.0242502	602.0
1626	6.02629e+02	1.62600e+03	-0.0242563	603.0
1628	6.03600e+02	1.62800e+03	-0.0242455	604.0
1630	6.04592e+02	1.63000e+03	-0.0242366	605.0
1632	6.05568e+02	1.63200e+03	-0.0242306	606.0
1634	6.06552e+02	1.63400e+03	-0.0242288	607.0
1636	6.07528e+02	1.63600e+03	-0.0242302	608.0
1638	6.08516e+02	1.63800e+03	-0.0242245	609.0
1640	6.09491e+02	1.64000e+03	-0.024207	610.0
1642	6.10482e+02	1.64200e+03	-0.0241932	611.0
1644	6.11473e+02	1.64400e+03	-0.0241909	612.0
1646	6.12470e+02	1.64600e+03	-0.0242066	613.0
1648	6.13460e+02	1.64800e+03	-0.0242482	614.0
1650	6.14446e+02	1.65000e+03	-0.0242897	615.0
1652	6.15453e+02	1.65200e+03	-0.0243308	616.0
1654	6.16446e+02	1.65400e+03	-0.0243617	617.0
1656	6.17441e+02	1.65600e+03	-0.0243764	618.0
1658	6.18447e+02	1.65800e+03	-0.0243764	619.0
1660	6.19450e+02	1.66000e+03	-0.0243516	620.0
1662	6.20459e+02	1.66200e+03	-0.0243135	621.0
1664	6.21447e+02	1.66400e+03	-0.0242617	622.0
1666	6.22452e+02	1.66600e+03	-0.0242226	623.0
1668	6.23438e+02	1.66800e+03	-0.0242061	624.0
1670	6.24441e+02	1.67000e+03	-0.0242059	625.0
1672	6.25438e+02	1.67200e+03	-0.0242227	626.0
1674	6.26426e+02	1.67400e+03	-0.0242305	627.0
1676	6.27450e+02	1.67600e+03	-0.0242218	628.0
1678	6.28442e+02	1.67800e+03	-0.0241994	629.0
1680	6.29438e+02	1.68000e+03	-0.024165	630.0
1682	6.30427e+02	1.68200e+03	-0.0241365	631.0
1684	6.31422e+02	1.68400e+03	-0.0241217	632.0
1686	6.32401e+02	1.68600e+03	-0.0241114	633.0
1688	6.33388e+02	1.68800e+03	-0.0240961	634.0
1690	6.34362e+02	1.69000e+03	-0.0240677	635.0
1692	6.35352e+02	1.69200e+03	-0.0240344	636.0
1694	6.36343e+02	1.69400e+03	-0.0240311	637.0
1696	6.37357e+02	1.69600e+03	-0.0240694	638.0
1698	6.38355e+02	1.69800e+03	-0.0241084	639.0
1700	6.39361e+02	1.70000e+03	-0.0241463	640.0
1702	6.40361e+02	1.70200e+03	-0.0241748	641.0
1704	6.41352e+02	1.70400e+03	-0.0241969	642.0
1706	6.42347e+02	1.70600e+03	-0.0242232	643.0
1708	6.43331e+02	1.70800e+03	-0.0242565	644.0
1710	6.44334e+02	1.71000e+03	-0.0242873	645.0
1712	6.45331e+02	1.71200e+03	-0.0243191	646.0
1714	6.46351e+02	1.71400e+03	-0.0243517	647.0
1716	6.47345e+02	1.71600e+03	-0.0243767	648.0
1718	6.48370e+02	1.71800e+03	-0.0243827	649.0
1720	6.49390e+02	1.72000e+03	-0.0243624	650.0
1722	6.50404e+02	1.72200e+03	-0.0243387	651.0
1724	6.51416e+02	1.72400e+03	-0.0243141	652.0
1726	6.52430e+02	1.72600e+03	-0.0243014	653.0
1728	6.53442e+02	1.72800e+03	-0.024306	654.0
1730	6.54427e+02	1.73000e+03	-0.024316	655.0
1732	6.55426e+02	1.73200e+03	-0.0243307	656.0
1734	6.56440e+02	1.73400e+03	-0.0243497	657.0
1736	6.57422e+02	1.73600e+03	-0.0243697	658.0
1738	6.58434e+02	1.73800e+03	-0.0243811	659.0
1740	6.59434e+02	1.74000e+03	-0.024382	660.0
1742	6.60402e+02	1.74200e+03	-0.0243819	661.0
1744	6.61400e+02	1.74400e+03	-0.0243845	662.0
1746	6.62377e+02	1.74600e+03	-0.0243962	663.0
1748	6.63357e+02	1.74800e+03	-0.0244152	664.0
1750	6.64368e+02	1.75000e+03	-0.0244296	665.0
1752	6.65359e+02	1.75200e+03	-0.0244338	666.0
1754	6.66355e+02	1.75400e+03	-0.0244319	667.0
1756	6.67331e+02	1.75600e+03	-0.0244213	668.0
1758	6.68322e+02	1.75800e+03	-0.0244127	669.0
1760	6.69323e+02	1.76000e+03	-0.0244109	670.0
1762	6.70325e+02	1.76200e+03	-0.0244169	671.0
1764	6.71321e+02	1.76400e+03	-0.0244281	672.0
1766	6.72320e+02	1.76600e+03	-0.0244279	673.0
1768	6.73306e+02	1.76800e+03	-0.0244074	674.0
1770	6.74295e+02	1.77000e+03	-0.024375	675.0
1772	6.75290e+02	1.77200e+03	-0.0243209	676.0
1774	6.76311e+02	1.77400e+03	-0.0242485	677.0
1776	6.77312e+02	1.77600e+03	-0.0241464	678.0
1778	6.78346e+02	1.77800e+03	-0.0240366	679.0
1780	6.79372e+02	1.78000e+03	-0.0239358	680.0
1782	6.80411e+02	1.78200e+03	-0.0238784	681.0
1784	6.81445e+02	1.78400e+03	-0.0238886	682.0
1786	6.82483e+02	1.78600e+03	-0.0239282	683.0
1788	6.83515e+02	1.78800e+03	-0.0240066	684.0
1790	6.84559e+02	1.79000e+03	-0.024086	685.0
1792	6.85613e+02	1.79200e+03	-0.0241608	686.0
1794	6.86652e+02	1.79400e+03	-0.0242208	687.0
1796	6.87104e+02	1.79600e+03	-0.0242518	688.0
1798	6.87785e+02	1.79800e+03	-0.02426	689.0
1800	6.88542e+02	1.80000e+03	-0.0242367	690.0
1802	6.89262e+02	1.80200e+03	-0.0242269	691.0
1804	6.89949e+02	1.80400e+03	-0.024246	692.0
1806	6.90589e+02	1.80600e+03	-0.0242842	693.0
1808	6.91197e+02	1.80800e+03	-0.0243418	694.0
1810	6.91778e+02	1.81000e+03	-0.0243778	695.0
1812	6.92281e+02	1.81200e+03	-0.0243815	696.0
1814	6.92745e+02	1.81400e+03	-0.024365	697.0
1816	6.93210e+02	1.81600e+03	-0.0243219	698.0
1818	6.93663e+02	1.81800e+03	-0.0242795	699.0
1820	6.94056e+02	1.82000e+03	-0.0242457	700.0
1822	6.94416e+02	1.82200e+03	-0.0242346	700.0
1824	6.94765e+02	1.82400e+03	-0.0242555	700.0
1826	6.95118e+02	1.82600e+03	-0.0242863	700.0
1828	6.95441e+02	1.82800e+03	-0.0243306	700.0
1830	6.95750e+02	1.83000e+03	-0.0243647	700.0
1832	6.96020e+02	1.83200e+03	-0.0243807	700.0
1834	6.96280e+02	1.83400e+03	-0.0243731	700.0
1836	6.96527e+02	1.83600e+03	-0.0243406	700.0
1838	6.96765e+02	1.83800e+03	-0.0243038	700.0
1840	6.96996e+02	1.84000e+03	-0.0242641	700.0
1842	6.97216e+02	1.84200e+03	-0.0242349	700.0
1844	6.97407e+02	1.84400e+03	-0.024228	700.0
1846	6.97611e+02	1.84600e+03	-0.0242366	700.0
1848	6.97790e+02	1.84800e+03	-0.0242615	700.0
1850	6.97964e+02	1.85000e+03	-0.0242902	700.0
1852	6.98122e+02	1.85200e+03	-0.0243148	700.0
1854	6.98275e+02	1.85400e+03	-0.0243323	700.0
1856	6.98430e+02	1.85600e+03	-0.0243386	700.0
1858	6.98577e+02	1.85800e+03	-0.0243479	700.0
1860	6.98714e+02	1.86000e+03	-0.0243592	700.0
1862	6.98847e+02	1.86200e+03	-0.0243696	700.0
1864	6.98975e+02	1.86400e+03	-0.0243821	700.0
1866	6.99097e+02	1.86600e+03	-0.0243832	700.0
1868	6.99220e+02	1.86800e+03	-0.0243676	700.0
1870	6.99305e+02	1.87000e+03	-0.0243432	700.0
1872	6.99411e+02	1.87200e+03	-0.0243101	700.0
1874	6.99506e+02	1.87400e+03	-0.0242864	700.0
1876	6.99590e+02	1.87600e+03	-0.0242876	700.0
1878	6.99686e+02	1.87800e+03	-0.0242984	700.0
1880	6.99771e+02	1.88000e+03	-0.0243206	700.0
1882	6.99857e+02	1.88200e+03	-0.0243356	700.0
1884	6.99937e+02	1.88400e+03	-0.0243406	700.0
1886	7.00011e+02	1.88600e+03	-0.0243465	700.0
1888	7.00086e+02	1.88800e+03	-0.0243547	700.0
1890	7.00154e+02	1.89000e+03	-0.0243625	700.0
1892	7.00235e+02	1.89200e+03	-0.0243643	700.0
1894	7.00271e+02	1.89400e+03	-0.0243556	700.0
1896	7.00310e+02	1.89600e+03	-0.0243326	700.0
1898	7.00372e+02	1.89800e+03	-0.0243087	700.0
1900	7.00413e+02	1.90000e+03	-0.0242857	700.0
1902	7.00449e+02	1.90200e+03	-0.0242681	700.0
1904	7.00503e+02	1.90400e+03	-0.0242583	700.0
1906	7.00544e+02	1.90600e+03	-0.0242514	700.0
1908	7.00597e+02	1.90800e+03	-0.0242496	700.0
1910	7.00638e+02	1.91000e+03	-0.0242476	700.0
1912	7.00669e+02	1.91200e+03	-0.0242434	700.0
1914	7.00717e+02	1.91400e+03	-0.0242476	700.0
1916	7.00750e+02	1.91600e+03	-0.0242595	700.0
1918	7.00786e+02	1.91800e+03	-0.0242705	700.0
1920	7.00821e+02	1.92000e+03	-0.0242775	700.0
1922	7.00856e+02	1.92200e+03	-0.0242768	700.0
1924	7.00883e+02	1.92400e+03	-0.0242674	700.0
1926	7.00903e+02	1.92600e+03	-0.0242602	700.0
1928	7.00934e+02	1.92800e+03	-0.0242603	700.0
1930	7.00960e+02	1.93000e+03	-0.0242728	700.0
1932	7.00982e+02	1.93200e+03	-0.0243012	700.0
1934	7.01011e+02	1.93400e+03	-0.0243265	700.0
1936	7.01039e+02	1.93600e+03	-0.0243534	700.0
1938	7.01070e+02	1.93800e+03	-0.0243796	700.0
1940	7.01106e+02	1.94000e+03	-0.0244027	700.0
1942	7.01112e+02	1.94200e+03	-0.0244206	700.0
1944	7.01135e+02	1.94400e+03	-0.0244296	700.0
1946	7.01152e+02	1.94600e+03	-0.0244204	700.0
1948	7.01164e+02	1.94800e+03	-0.0243905	700.0
1950	7.01183e+02	1.95000e+03	-0.0243542	700.0
1952	7.01204e+02	1.95200e+03	-0.0243078	700.0
1954	7.01221e+02	1.95400e+03	-0.0242529	700.0
1956	7.01240e+02	1.95600e+03	-0.0241892	700.0
1958	7.01258e+02	1.95800e+03	-0.0241351	700.0
1960	7.01256e+02	1.96000e+03	-0.0240973	700.0
1962	7.01271e+02	1.96200e+03	-0.0240691	700.0
1964	7.01284e+02	1.96400e+03	-0.0240492	700.0
1966	7.01295e+02	1.96600e+03	-0.0240319	700.0
1968	7.01306e+02	1.96800e+03	-0.0240141	700.0
1970	7.01317e+02	1.97000e+03	-0.0239918	700.0
1972	7.01334e+02	1.97200e+03	-0.0239584	700.0
1974	7.01334e+02	1.97400e+03	-0.0239135	700.0
1976	7.01361e+02	1.97600e+03	-0.0238566	700.0
1978	7.01369e+02	1.97800e+03	-0.0238105	700.0
1980	7.01381e+02	1.98000e+03	-0.0237916	700.0
1982	7.01379e+02	1.98200e+03	-0.0238023	700.0
1984	7.01387e+02	1.98400e+03	-0.023855	700.0
1986	7.01403e+02	1.98600e+03	-0.0239158	700.0
1988	7.01404e+02	1.98800e+03	-0.0239832	700.0
1990	7.01412e+02	1.99000e+03	-0.0240391	700.0
1992	7.01416e+02	1.99200e+03	-0.0240683	700.0
1994	7.01434e+02	1.99400e+03	-0.0240928	700.0
1996	7.01437e+02	1.99600e+03	-0.0241166	700.0
1998	7.01436e+02	1.99800e+03	-0.0241543	700.0
2000	7.01446e+02	2.00000e+03	-0.024198	700.0
2002	7.01458e+02	2.00200e+03	-0.0242156	700.0
2004	7.01458e+02	2.00400e+03	-0.0242043	700.0
2006	7.01469e+02	2.00600e+03	-0.0241899	700.0
2008	7.01463e+02	2.00800e+03	-0.0241736	700.0
2010	7.01475e+02	2.01000e+03	-0.0241635	700.0
2012	7.01480e+02	2.01200e+03	-0.024167	700.0
2014	7.01481e+02	2.01400e+03	-0.0241822	700.0
2016	7.01490e+02	2.01600e+03	-0.0242125	700.0
2018	7.01485e+02	2.01800e+03	-0.0242392	700.0
2020	7.01498e+02	2.02000e+03	-0.0242455	700.0
2022	7.01490e+02	2.02200e+03	-0.0242413	700.0
2024	7.01506e+02	2.02400e+03	-0.0242301	700.0
2026	7.01501e+02	2.02600e+03	-0.024234	700.0
2028	7.01503e+02	2.02800e+03	-0.0242465	700.0
2030	7.01504e+02	2.03000e+03	-0.0242552	700.0
2032	7.01513e+02	2.03200e+03	-0.0242504	700.0
2034	7.01521e+02	2.03400e+03	-0.0242296	700.0
2036	7.01512e+02	2.03600e+03	-0.0241912	700.0
2038	7.01522e+02	2.03800e+03	-0.0241539	700.0
2040	7.01520e+02	2.04000e+03	-0.0241192	700.0
2042	7.01524e+02	2.04200e+03	-0.0240908	700.0
2044	7.01528e+02	2.04400e+03	-0.0240731	700.0
2046	7.01521e+02	2.04600e+03	-0.0240587	700.0
2048	7.01532e+02	2.04800e+03	-0.0240472	700.0
2050	7.01539e+02	2.05000e+03	-0.0240388	700.0
2052	7.01530e+02	2.05200e+03	-0.0240467	700.0
2054	7.01535e+02	2.05400e+03	-0.0240763	700.0
2056	7.01538e+02	2.05600e+03	-0.0241292	700.0
2058	7.01536e+02	2.05800e+03	-0.0241578	700.0
2060	7.01541e+02	2.06000e+03	-0.024145	700.0
2062	7.01548e+02	2.06200e+03	-0.0241097	700.0
2064	7.01521e+02	2.06400e+03	-0.0240448	700.0
2066	7.01531e+02	2.06600e+03	-0.0239997	700.0
2068	7.01522e+02	2.06800e+03	-0.0239844	700.0
2070	7.01521e+02	2.07000e+03	-0.0239846	700.0
2072	7.01525e+02	2.07200e+03	-0.0240053	700.0
2074	7.01525e+02	2.07400e+03	-0.0240269	700.0
2076	7.01526e+02	2.07600e+03	-0.0240508	700.0
2078	7.01525e+02	2.07800e+03	-0.0240769	700.0
2080	7.01518e+02	2.08000e+03	-0.0241064	700.0
2082	7.01521e+02	2.08200e+03	-0.0241344	700.0
2084	7.01516e+02	2.08400e+03	-0.0241558	700.0
2086	7.01512e+02	2.08600e+03	-0.0241651	700.0
2088	7.01512e+02	2.08800e+03	-0.0241544	700.0
2090	7.01507e+02	2.09000e+03	-0.0241309	700.0
2092	7.01503e+02	2.09200e+03	-0.0240792	700.0
2094	7.01511e+02	2.09400e+03	-0.0240261	700.0
2096	7.01514e+02	2.09600e+03	-0.0239814	700.0
2098	7.01506e+02	2.09800e+03	-0.0239646	700.0
2100	7.01510e+02	2.10000e+03	-0.0239888	700.0
2102	7.01501e+02	2.10200e+03	-0.0240254	700.0
2104	7.01495e+02	2.10400e+03	-0.0240762	700.0
2106	7.01500e+02	2.10600e+03	-0.0241222	700.0
2108	7.01499e+02	2.10800e+03	-0.0241559	700.0
2110	7.01503e+02	2.11000e+03	-0.0241738	700.0
2112	7.01494e+02	2.11200e+03	-0.0241679	700.0
2114	7.01507e+02	2.11400e+03	-0.0241557	700.0
2116	7.01494e+02	2.11600e+03	-0.0241355	700.0
2118	7.01496e+02	2.11800e+03	-0.0241092	700.0
2120	7.01500e+02	2.12000e+03	-0.0240839	700.0
2122	7.01492e+02	2.12200e+03	-0.0240669	700.0
2124	7.01497e+02	2.12400e+03	-0.0240554	700.0
2126	7.01495e+02	2.12600e+03	-0.0240402	700.0
2128	7.01501e+02	2.12800e+03	-0.0240175	700.0
2130	7.01496e+02	2.13000e+03	-0.0240006	700.0
2132	7.01501e+02	2.13200e+03	-0.0239948	700.0
2134	7.01501e+02	2.13400e+03	-0.0240017	700.0
2136	7.01502e+02	2.13600e+03	-0.0240312	700.0
2138	7.01489e+02	2.13800e+03	-0.0240746	700.0
2140	7.01492e+02	2.14000e+03	-0.0241397	700.0
2142	7.01487e+02	2.14200e+03	-0.0242077	700.0
2144	7.01486e+02	2.14400e+03	-0.0242681	700.0
2146	7.01486e+02	2.14600e+03	-0.0243047	700.0
2148	7.01487e+02	2.14800e+03	-0.0243068	700.0
2150	7.01490e+02	2.15000e+03	-0.0243011	700.0
2152	7.01490e+02	2.15200e+03	-0.024285	700.0
2154	7.01484e+02	2.15400e+03	-0.0242651	700.0
2156	7.01478e+02	2.15600e+03	-0.0242519	700.0
2158	7.01474e+02	2.15800e+03	-0.0242396	700.0
2160	7.01467e+02	2.16000e+03	-0.0242335	700.0
2162	7.01467e+02	2.16200e+03	-0.0242383	700.0
2164	7.01462e+02	2.16400e+03	-0.0242622	700.0
2166	7.01452e+02	2.16600e+03	-0.0242872	700.0
2168	7.01454e+02	2.16800e+03	-0.0243136	700.0
2170	7.01457e+02	2.17000e+03	-0.0243317	700.0
2172	7.01463e+02	2.17200e+03	-0.0243381	700.0
2174	7.01459e+02	2.17400e+03	-0.0243375	700.0
2176	7.01453e+02	2.17600e+03	-0.0243189	700.0
2178	7.01461e+02	2.17800e+03	-0.0242973	700.0
2180	7.01462e+02	2.18000e+03	-0.0242729	700.0
2182	7.01451e+02	2.18200e+03	-0.0242586	700.0
2184	7.01452e+02	2.18400e+03	-0.0242613	700.0
2186	7.01450e+02	2.18600e+03	-0.0242731	700.0
2188	7.01444e+02	2.18800e+03	-0.0242939	700.0
2190	7.01450e+02	2.19000e+03	-0.0243044	700.0
2192	7.01449e+02	2.19200e+03	-0.0243001	700.0
2194	7.01434e+02	2.19400e+03	-0.024285	700.0
2196	7.01424e+02	2.19600e+03	-0.0242534	700.0
2198	7.01412e+02	2.19800e+03	-0.0242245	700.0
2200	7.01419e+02	2.20000e+03	-0.0242062	700.0
2202	7.01419e+02	2.20200e+03	-0.0242014	700.0
2204	7.01423e+02	2.20400e+03	-0.0242136	700.0
2206	7.01417e+02	2.20600e+03	-0.0242243	700.0
2208	7.01413e+02	2.20800e+03	-0.0242312	700.0
2210	7.01417e+02	2.21000e+03	-0.0242282	700.0
2212	7.01406e+02	2.21200e+03	-0.0242047	700.0
2214	7.01406e+02	2.21400e+03	-0.0241666	700.0
2216	7.01405e+02	2.21600e+03	-0.0241058	700.0
2218	7.01409e+02	2.21800e+03	-0.0240406	700.0
2220	7.01398e+02	2.22000e+03	-0.0239899	700.0
2222	7.01394e+02	2.22200e+03	-0.023975	700.0
2224	7.01391e+02	2.22400e+03	-0.0240153	700.0
2226	7.01391e+02	2.22600e+03	-0.024075	700.0
2228	7.01388e+02	2.22800e+03	-0.0241576	700.0
2230	7.01384e+02	2.23000e+03	-0.024234	700.0
2232	7.01379e+02	2.23200e+03	-0.0242986	700.0
2234	7.01377e+02	2.23400e+03	-0.0243524	700.0
2236	7.01387e+02	2.23600e+03	-0.0243884	700.0
2238	7.01382e+02	2.23800e+03	-0.0244151	700.0
2240	7.01377e+02	2.24000e+03	-0.0244281	700.0
2242	7.01379e+02	2.24200e+03	-0.0244372	700.0
2244	7.01373e+02	2.24400e+03	-0.0244408	700.0
2246	7.01367e+02	2.24600e+03	-0.0244432	700.0
2248	7.01366e+02	2.24800e+03	-0.0244441	700.0
2250	7.01373e+02	2.25000e+03	-0.0244446	700.0
2252	7.01373e+02	2.25200e+03	-0.0244448	700.0
2254	7.01373e+02	2.25400e+03	-0.0244449	700.0
2256	7.01365e+02	2.25600e+03	-0.0244443	700.0
2258	7.01367e+02	2.25800e+03	-0.024433	700.0
2260	7.01359e+02	2.26000e+03	-0.0244114	700.0
2262	7.01368e+02	2.26200e+03	-0.024398	700.0
2264	7.01368e+02	2.26400e+03	-0.0244018	700.0
2266	7.01365e+02	2.26600e+03	-0.0244241	700.0
2268	7.01364e+02	2.26800e+03	-0.0244705	700.0
2270	7.01354e+02	2.27000e+03	-0.0245144	700.0
2272	7.01349e+02	2.27200e+03	-0.0245472	700.0
2274	7.01348e+02	2.27400e+03	-0.0245517	700.0
2276	7.01348e+02	2.27600e+03	-0.0245227	700.0
2278	7.01350e+02	2.27800e+03	-0.0244875	700.0
2280	7.01337e+02	2.28000e+03	-0.0244417	700.0
2282	7.01337e+02	2.28200e+03	-0.0243966	700.0
2284	7.01338e+02	2.28400e+03	-0.0243586	700.0
2286	7.01326e+02	2.28600e+03	-0.0243367	700.0
2288	7.01322e+02	2.28800e+03	-0.0243382	700.0
2290	7.01317e+02	2.29000e+03	-0.0243477	700.0
2292	7.01323e+02	2.29200e+03	-0.0243804	700.0
2294	7.01316e+02	2.29400e+03	-0.024427	700.0
2296	7.01304e+02	2.29600e+03	-0.0244886	700.0
2298	7.01308e+02	2.29800e+03	-0.024543	700.0
2300	7.01298e+02	2.30000e+03	-0.0245938	700.0
2302	7.01305e+02	2.30200e+03	-0.024643	700.0
2304	7.01300e+02	2.30400e+03	-0.0246797	700.0
2306	7.01297e+02	2.30600e+03	-0.0246988	700.0
2308	7.01305e+02	2.30800e+03	-0.0246865	700.0
2310	7.01298e+02	2.31000e+03	-0.0246555	700.0
2312	7.01297e+02	2.31200e+03	-0.0245998	700.0
2314	7.01294e+02	2.31400e+03	-0.0245457	700.0
2316	7.01292e+02	2.31600e+03	-0.0245001	700.0
2318	7.01289e+02	2.31800e+03	-0.0244686	700.0
2320	7.01285e+02	2.32000e+03	-0.0244566	700.0
2322	7.01286e+02	2.32200e+03	-0.0244454	700.0
2324	7.01278e+02	2.32400e+03	-0.0244333	700.0
2326	7.01283e+02	2.32600e+03	-0.0244155	700.0
2328	7.01286e+02	2.32800e+03	-0.0243796	700.0
2330	7.01271e+02	2.33000e+03	-0.0243436	700.0
2332	7.01273e+02	2.33200e+03	-0.0243159	700.0
2334	7.01277e+02	2.33400e+03	-0.02431	700.0
2336	7.01275e+02	2.33600e+03	-0.0243343	700.0
2338	7.01270e+02	2.33800e+03	-0.0243628	700.0
2340	7.01269e+02	2.34000e+03	-0.0243963	700.0
2342	7.01268e+02	2.34200e+03	-0.0244279	700.0
2344	7.01259e+02	2.34400e+03	-0.024457	700.0
2346	7.01261e+02	2.34600e+03	-0.0244842	700.0
2348	7.01266e+02	2.34800e+03	-0.0245066	700.0
2350	7.01259e+02	2.35000e+03	-0.0245236	700.0
2352	7.01251e+02	2.35200e+03	-0.0245285	700.0
2354	7.01251e+02	2.35400e+03	-0.0245173	700.0
2356	7.01252e+02	2.35600e+03	-0.0244957	700.0
2358	7.01246e+02	2.35800e+03	-0.024484	700.0
2360	7.01239e+02	2.36000e+03	-0.0244877	700.0
2362	7.01242e+02	2.36200e+03	-0.0244962	700.0
2364	7.01233e+02	2.36400e+03	-0.0245051	700.0
2366	7.01244e+02	2.36600e+03	-0.0245201	700.0
2368	7.01237e+02	2.36800e+03	-0.0245451	700.0
2370	7.01234e+02	2.37000e+03	-0.0245774	700.0
2372	7.01232e+02	2.37200e+03	-0.0246131	700.0
2374	7.01231e+02	2.37400e+03	-0.0246437	700.0
2376	7.01237e+02	2.37600e+03	-0.0246555	700.0
2378	7.01231e+02	2.37800e+03	-0.0246488	700.0
2380	7.01229e+02	2.38000e+03	-0.0246177	700.0
2382	7.01226e+02	2.38200e+03	-0.0245822	700.0
2384	7.01224e+02	2.38400e+03	-0.0245341	700.0
2386	7.01219e+02	2.38600e+03	-0.024493	700.0
2388	7.01222e+02	2.38800e+03	-0.0244668	700.0
2390	7.01216e+02	2.39000e+03	-0.0244604	700.0
2392	7.01225e+02	2.39200e+03	-0.0244841	700.0
2394	7.01225e+02	2.39400e+03	-0.024515	700.0
2396	7.01217e+02	2.39600e+03	-0.0245502	700.0
2398	7.01218e+02	2.39800e+03	-0.0245732	700.0
2400	7.01222e+02	2.40000e+03	-0.024568	700.0
2402	7.01212e+02	2.40200e+03	-0.024552	700.0
2404	7.01215e+02	2.40400e+03	-0.0245286	700.0
2406	7.01218e+02	2.40600e+03	-0.0245207	700.0
2408	7.01218e+02	2.40800e+03	-0.024535	700.0
2410	7.01205e+02	2.41000e+03	-0.0245538	700.0
2412	7.01200e+02	2.41200e+03	-0.0245765	700.0
2414	7.01201e+02	2.41400e+03	-0.0245925	700.0
2416	7.01199e+02	2.41600e+03	-0.0245962	700.0
2418	7.01193e+02	2.41800e+03	-0.024592	700.0
2420	7.01197e+02	2.42000e+03	-0.0245727	700.0
2422	7.01187e+02	2.42200e+03	-0.0245414	700.0
2424	7.01190e+02	2.42400e+03	-0.0245069	700.0
2426	7.01191e+02	2.42600e+03	-0.0244888	700.0
2428	7.01188e+02	2.42800e+03	-0.0244982	700.0
2430	7.01194e+02	2.43000e+03	-0.0245223	700.0
2432	7.01182e+02	2.43200e+03	-0.0245658	700.0
2434	7.01179e+02	2.43400e+03	-0.0246067	700.0
2436	7.01187e+02	2.43600e+03	-0.024637	700.0
2438	7.01173e+02	2.43800e+03	-0.0246508	700.0
2440	7.01169e+02	2.44000e+03	-0.0246416	700.0
2442	7.01171e+02	2.44200e+03	-0.0246296	700.0
2444	7.01167e+02	2.44400e+03	-0.0246179	700.0
2446	7.01174e+02	2.44600e+03	-0.0246148	700.0
2448	7.01164e+02	2.44800e+03	-0.0246222	700.0
2450	7.01173e+02	2.45000e+03	-0.0246293	700.0
2452	7.01165e+02	2.45200e+03	-0.0246353	700.0
2454	7.01166e+02	2.45400e+03	-0.0246337	700.0
2456	7.01167e+02	2.45600e+03	-0.0246147	700.0
2458	7.01167e+02	2.45800e+03	-0.0245938	700.0
2460	7.01166e+02	2.46000e+03	-0.0245708	700.0
2462	7.01155e+02	2.46200e+03	-0.0245552	700.0
2464	7.01160e+02	2.46400e+03	-0.0245516	700.0
2466	7.01160e+02	2.46600e+03	-0.0245539	700.0
2468	7.01149e+02	2.46800e+03	-0.0245659	700.0
2470	7.01158e+02	2.47000e+03	-0.024579	700.0
2472	7.01151e+02	2.47200e+03	-0.0245825	700.0
2474	7.01153e+02	2.47400e+03	-0.0245821	700.0
2476	7.01150e+02	2.47600e+03	-0.024579	700.0
2478	7.01152e+02	2.47800e+03	-0.0245839	700.0
2480	7.01152e+02	2.48000e+03	-0.0245956	700.0
2482	7.01143e+02	2.48200e+03	-0.0246007	700.0
2484	7.01148e+02	2.48400e+03	-0.024599	700.0
2486	7.01151e+02	2.48600e+03	-0.0245994	700.0
2488	7.01144e+02	2.48800e+03	-0.0246036	700.0
2490	7.01134e+02	2.49000e+03	-0.0246009	700.0
2492	7.01129e+02	2.49200e+03	-0.0245879	700.0
2494	7.01136e+02	2.49400e+03	-0.0245742	700.0
2496	7.01138e+02	2.49600e+03	-0.0245649	700.0
2498	7.01140e+02	2.49800e+03	-0.0245749	700.0
2500	7.01137e+02	2.50000e+03	-0.0246036	700.0
2502	7.01137e+02	2.50200e+03	-0.0246315	700.0
2504	7.01138e+02	2.50400e+03	-0.0246585	700.0
2506	7.01133e+02	2.50600e+03	-0.0246841	700.0
2508	7.01140e+02	2.50800e+03	-0.0246961	700.0
2510	7.01141e+02	2.51000e+03	-0.0246764	700.0
2512	7.01121e+02	2.51200e+03	-0.0246275	700.0
2514	7.01134e+02	2.51400e+03	-0.0245881	700.0
2516	7.01126e+02	2.51600e+03	-0.0245723	700.0
2518	7.01125e+02	2.51800e+03	-0.0245817	700.0
2520	7.01128e+02	2.52000e+03	-0.0246209	700.0
2522	7.01121e+02	2.52200e+03	-0.0246586	700.0
2524	7.01136e+02	2.52400e+03	-0.0246915	700.0
2526	7.01125e+02	2.52600e+03	-0.024716	700.0
2528	7.01130e+02	2.52800e+03	-0.0247269	700.0
2530	7.01131e+02	2.53000e+03	-0.0247201	700.0
2532	7.01129e+02	2.53200e+03	-0.0246998	700.0
2534	7.01123e+02	2.53400e+03	-0.0246868	700.0
2536	7.01118e+02	2.53600e+03	-0.0246858	700.0
2538	7.01127e+02	2.53800e+03	-0.024693	700.0
2540	7.01125e+02	2.54000e+03	-0.0247095	700.0
2542	7.01120e+02	2.54200e+03	-0.024723	700.0
2544	7.01123e+02	2.54400e+03	-0.024732	700.0
2546	7.01123e+02	2.54600e+03	-0.0247393	700.0
2548	7.01128e+02	2.54800e+03	-0.024746	700.0
2550	7.01121e+02	2.55000e+03	-0.0247535	700.0
2552	7.01115e+02	2.55200e+03	-0.0247575	700.0
2554	7.01128e+02	2.55400e+03	-0.0247512	700.0
2556	7.01118e+02	2.55600e+03	-0.0247276	700.0
2558	7.01124e+02	2.55800e+03	-0.024699	700.0
2560	7.01125e+02	2.56000e+03	-0.0246685	700.0
2562	7.01132e+02	2.56200e+03	-0.0246489	700.0
2564	7.01123e+02	2.56400e+03	-0.0246479	700.0
2566	7.01116e+02	2.56600e+03	-0.0246548	700.0
2568	7.01124e+02	2.56800e+03	-0.02467	700.0
2570	7.01115e+02	2.57000e+03	-0.024694	700.0
2572	7.01128e+02	2.57200e+03	-0.0247272	700.0
2574	7.01118e+02	2.57400e+03	-0.0247618	700.0
2576	7.01114e+02	2.57600e+03	-0.0247983	700.0
2578	7.01112e+02	2.57800e+03	-0.0248311	700.0
2580	7.01109e+02	2.58000e+03	-0.0248557	700.0
2582	7.01116e+02	2.58200e+03	-0.0248702	700.0
2584	7.01106e+02	2.58400e+03	-0.0248528	700.0
2586	7.01104e+02	2.58600e+03	-0.0248149	700.0
2588	7.01121e+02	2.58800e+03	-0.0247511	700.0
2590	7.01109e+02	2.59000e+03	-0.0246942	700.0
2592	7.01115e+02	2.59200e+03	-0.0246534	700.0
2594	7.01110e+02	2.59400e+03	-0.0246273	700.0
2596	7.01109e+02	2.59600e+03	-0.0246225	700.0
2598	7.01119e+02	2.59800e+03	-0.0246233	700.0
2600	7.01109e+02	2.60000e+03	-0.0246328	700.0
2602	7.01112e+02	2.60200e+03	-0.024646	700.0
2604	7.01109e+02	2.60400e+03	-0.0246648	700.0
2606	7.01107e+02	2.60600e+03	-0.0246855	700.0
2608	7.01116e+02	2.60800e+03	-0.0247063	700.0
2610	7.01107e+02	2.61000e+03	-0.0247226	700.0
2612	7.01110e+02	2.61200e+03	-0.0247307	700.0
2614	7.01109e+02	2.61400e+03	-0.0247321	700.0
2616	7.01103e+02	2.61600e+03	-0.0247225	700.0
2618	7.01114e+02	2.61800e+03	-0.0247103	700.0
2620	7.01108e+02	2.62000e+03	-0.0246986	700.0
2622	7.01108e+02	2.62200e+03	-0.0246952	700.0
2624	7.01101e+02	2.62400e+03	-0.0247052	700.0
2626	7.01112e+02	2.62600e+03	-0.0247233	700.0
2628	7.01105e+02	2.62800e+03	-0.0247546	700.0
2630	7.01107e+02	2.63000e+03	-0.0247884	700.0
2632	7.01106e+02	2.63200e+03	-0.0248211	700.0
2634	7.01103e+02	2.63400e+03	-0.0248421	700.0
2636	7.01103e+02	2.63600e+03	-0.0248334	700.0
2638	7.01096e+02	2.63800e+03	-0.0248095	700.0
2640	7.01098e+02	2.64000e+03	-0.0247636	700.0
2642	7.01109e+02	2.64200e+03	-0.0247173	700.0
2644	7.01097e+02	2.64400e+03	-0.0246732	700.0
2646	7.01100e+02	2.64600e+03	-0.0246356	700.0
2648	7.01099e+02	2.64800e+03	-0.0246014	700.0
2650	7.01091e+02	2.65000e+03	-0.0245766	700.0
2652	7.01096e+02	2.65200e+03	-0.0245685	700.0
2654	7.01092e+02	2.65400e+03	-0.0245711	700.0
2656	7.01092e+02	2.65600e+03	-0.0245841	700.0
2658	7.01095e+02	2.65800e+03	-0.0245895	700.0
2660	7.01104e+02	2.66000e+03	-0.0245869	700.0
2662	7.01091e+02	2.66200e+03	-0.0245838	700.0
2664	7.01094e+02	2.66400e+03	-0.0245768	700.0
2666	7.01089e+02	2.66600e+03	-0.0245658	700.0
2668	7.01097e+02	2.66800e+03	-0.02456	700.0
2670	7.01084e+02	2.67000e+03	-0.0245576	700.0
2672	7.01073e+02	2.67200e+03	-0.0245609	700.0
2674	7.01084e+02	2.67400e+03	-0.0245657	700.0
2676	7.01078e+02	2.67600e+03	-0.0245771	700.0
2678	7.01071e+02	2.67800e+03	-0.0245991	700.0
2680	7.01069e+02	2.68000e+03	-0.0246341	700.0
2682	7.01069e+02	2.68200e+03	-0.0246675	700.0
2684	7.01061e+02	2.68400e+03	-0.0246953	700.0
2686	7.01068e+02	2.68600e+03	-0.0247047	700.0
2688	7.01070e+02	2.68800e+03	-0.0246915	700.0
2690	7.01062e+02	2.69000e+03	-0.0246773	700.0
2692	7.01063e+02	2.69200e+03	-0.0246618	700.0
2694	7.01060e+02	2.69400e+03	-0.0246512	700.0
2696	7.01064e+02	2.69600e+03	-0.0246453	700.0
2698	7.01051e+02	2.69800e+03	-0.0246358	700.0
2700	7.01058e+02	2.70000e+03	-0.0246202	700.0
2702	7.01056e+02	2.70200e+03	-0.024602	700.0
2704	7.01056e+02	2.70400e+03	-0.0245823	700.0
2706	7.01052e+02	2.70600e+03	-0.0245672	700.0
2708	7.01054e+02	2.70800e+03	-0.024561	700.0
2710	7.01060e+02	2.71000e+03	-0.0245619	700.0
2712	7.01046e+02	2.71200e+03	-0.0245701	700.0
2714	7.01056e+02	2.71400e+03	-0.0245859	700.0
2716	7.01053e+02	2.71600e+03	-0.0246123	700.0
2718	7.01047e+02	2.71800e+03	-0.0246412	700.0
2720	7.01044e+02	2.72000e+03	-0.0246661	700.0