File: Experiments/TGA/TUBS/tga_nonisotherm/tga_dynamic_n2_dyn30_powder_12mg_r2.txt
index	ts	t	weight	tr
[#]	[°C]	[s]	[mg]	[°C]
683	1.30574e+02	6.83000e+02	1.20651e+01	1.31500e+02
685	1.31577e+02	6.85000e+02	1.20649e+01	1.32500e+02
687	1.32578e+02	6.87000e+02	1.20646e+01	1.33500e+02
689	1.33575e+02	6.89000e+02	1.20644e+01	1.34500e+02
691	1.34580e+02	6.91000e+02	1.20641e+01	1.35500e+02
693	1.35569e+02	6.93000e+02	1.20638e+01	1.36500e+02
695	1.36574e+02	6.95000e+02	1.20634e+01	1.37500e+02
697	1.37585e+02	6.97000e+02	1.20629e+01	1.38500e+02
699	1.38577e+02	6.99000e+02	1.20624e+01	1.39500e+02
701	1.39580e+02	7.01000e+02	1.20619e+01	1.40500e+02
703	1.40576e+02	7.03000e+02	1.20613e+01	1.41500e+02
705	1.41594e+02	7.05000e+02	1.20607e+01	1.42500e+02
707	1.42589e+02	7.07000e+02	1.20600e+01	1.43500e+02
709	1.43603e+02	7.09000e+02	1.20593e+01	1.44500e+02
711	1.44609e+02	7.11000e+02	1.20586e+01	1.45500e+02
713	1.45602e+02	7.13000e+02	1.20577e+01	1.46500e+02
715	1.46604e+02	7.15000e+02	1.20568e+01	1.47500e+02
717	1.47601e+02	7.17000e+02	1.20558e+01	1.48500e+02
719	1.48620e+02	7.19000e+02	1.20547e+01	1.49500e+02
721	1.49632e+02	7.21000e+02	1.20535e+01	1.50500e+02
723	1.50634e+02	7.23000e+02	1.20523e+01	1.51500e+02
725	1.51631e+02	7.25000e+02	1.20510e+01	1.52500e+02
727	1.52648e+02	7.27000e+02	1.20497e+01	1.53500e+02
729	1.53662e+02	7.29000e+02	1.20483e+01	1.54500e+02
731	1.54639e+02	7.31000e+02	1.20468e+01	1.55500e+02
733	1.55673e+02	7.33000e+02	1.20453e+01	1.56500e+02
735	1.56675e+02	7.35000e+02	1.20437e+01	1.57500e+02
737	1.57692e+02	7.37000e+02	1.20420e+01	1.58500e+02
739	1.58685e+02	7.39000e+02	1.20403e+01	1.59500e+02
741	1.59698e+02	7.41000e+02	1.20386e+01	1.60500e+02
743	1.60706e+02	7.43000e+02	1.20368e+01	1.61500e+02
745	1.61719e+02	7.45000e+02	1.20349e+01	1.62500e+02
747	1.62739e+02	7.47000e+02	1.20330e+01	1.63500e+02
749	1.63748e+02	7.49000e+02	1.20310e+01	1.64500e+02
751	1.64750e+02	7.51000e+02	1.20289e+01	1.65500e+02
753	1.65761e+02	7.53000e+02	1.20267e+01	1.66500e+02
755	1.66773e+02	7.55000e+02	1.20244e+01	1.67500e+02
757	1.67784e+02	7.57000e+02	1.20220e+01	1.68500e+02
759	1.68799e+02	7.59000e+02	1.20195e+01	1.69500e+02
761	1.69809e+02	7.61000e+02	1.20167e+01	1.70500e+02
763	1.70821e+02	7.63000e+02	1.20139e+01	1.71500e+02
765	1.71833e+02	7.65000e+02	1.20108e+01	1.72500e+02
767	1.72847e+02	7.67000e+02	1.20076e+01	1.73500e+02
769	1.73860e+02	7.69000e+02	1.20040e+01	1.74500e+02
771	1.74870e+02	7.71000e+02	1.20003e+01	1.75500e+02
773	1.75880e+02	7.73000e+02	1.19961e+01	1.76500e+02
775	1.76902e+02	7.75000e+02	1.19918e+01	1.77500e+02
777	1.77901e+02	7.77000e+02	1.19868e+01	1.78500e+02
779	1.78912e+02	7.79000e+02	1.19817e+01	1.79500e+02
781	1.79917e+02	7.81000e+02	1.19758e+01	1.80500e+02
783	1.80943e+02	7.83000e+02	1.19697e+01	1.81500e+02
785	1.81955e+02	7.85000e+02	1.19629e+01	1.82500e+02
787	1.82961e+02	7.87000e+02	1.19558e+01	1.83500e+02
789	1.83972e+02	7.89000e+02	1.19477e+01	1.84500e+02
791	1.84980e+02	7.91000e+02	1.19394e+01	1.85500e+02
793	1.85989e+02	7.93000e+02	1.19301e+01	1.86500e+02
795	1.87004e+02	7.95000e+02	1.19205e+01	1.87500e+02
797	1.88021e+02	7.97000e+02	1.19100e+01	1.88500e+02
799	1.89022e+02	7.99000e+02	1.18993e+01	1.89500e+02
801	1.90039e+02	8.01000e+02	1.18877e+01	1.90500e+02
803	1.91049e+02	8.03000e+02	1.18760e+01	1.91500e+02
805	1.92055e+02	8.05000e+02	1.18635e+01	1.92500e+02
807	1.93074e+02	8.07000e+02	1.18507e+01	1.93500e+02
809	1.94089e+02	8.09000e+02	1.18373e+01	1.94500e+02
811	1.95098e+02	8.11000e+02	1.18238e+01	1.95500e+02
813	1.96128e+02	8.13000e+02	1.18098e+01	1.96500e+02
815	1.97134e+02	8.15000e+02	1.17958e+01	1.97500e+02
817	1.98143e+02	8.17000e+02	1.17815e+01	1.98500e+02
819	1.99179e+02	8.19000e+02	1.17673e+01	1.99500e+02
821	2.00199e+02	8.21000e+02	1.17532e+01	2.00500e+02
823	2.01211e+02	8.23000e+02	1.17392e+01	2.01500e+02
825	2.02237e+02	8.25000e+02	1.17255e+01	2.02500e+02
827	2.03264e+02	8.27000e+02	1.17120e+01	2.03500e+02
829	2.04294e+02	8.29000e+02	1.16992e+01	2.04500e+02
831	2.05323e+02	8.31000e+02	1.16866e+01	2.05500e+02
833	2.06337e+02	8.33000e+02	1.16749e+01	2.06500e+02
835	2.07382e+02	8.35000e+02	1.16634e+01	2.07500e+02
837	2.08393e+02	8.37000e+02	1.16529e+01	2.08500e+02
839	2.09416e+02	8.39000e+02	1.16427e+01	2.09500e+02
841	2.10445e+02	8.41000e+02	1.16337e+01	2.10500e+02
843	2.11472e+02	8.43000e+02	1.16249e+01	2.11500e+02
845	2.12503e+02	8.45000e+02	1.16173e+01	2.12500e+02
847	2.13531e+02	8.47000e+02	1.16099e+01	2.13500e+02
849	2.14560e+02	8.49000e+02	1.16037e+01	2.14500e+02
851	2.15583e+02	8.51000e+02	1.15977e+01	2.15500e+02
853	2.16611e+02	8.53000e+02	1.15926e+01	2.16500e+02
855	2.17648e+02	8.55000e+02	1.15877e+01	2.17500e+02
857	2.18672e+02	8.57000e+02	1.15835e+01	2.18500e+02
859	2.19692e+02	8.59000e+02	1.15794e+01	2.19500e+02
861	2.20720e+02	8.61000e+02	1.15757e+01	2.20500e+02
863	2.21743e+02	8.63000e+02	1.15721e+01	2.21500e+02
865	2.22756e+02	8.65000e+02	1.15689e+01	2.22500e+02
867	2.23777e+02	8.67000e+02	1.15656e+01	2.23500e+02
869	2.24814e+02	8.69000e+02	1.15625e+01	2.24500e+02
871	2.25816e+02	8.71000e+02	1.15594e+01	2.25500e+02
873	2.26834e+02	8.73000e+02	1.15563e+01	2.26500e+02
875	2.27853e+02	8.75000e+02	1.15532e+01	2.27500e+02
877	2.28866e+02	8.77000e+02	1.15501e+01	2.28500e+02
879	2.29894e+02	8.79000e+02	1.15470e+01	2.29500e+02
881	2.30921e+02	8.81000e+02	1.15439e+01	2.30500e+02
883	2.31949e+02	8.83000e+02	1.15407e+01	2.31500e+02
885	2.32973e+02	8.85000e+02	1.15376e+01	2.32500e+02
887	2.33995e+02	8.87000e+02	1.15344e+01	2.33500e+02
889	2.35018e+02	8.89000e+02	1.15313e+01	2.34500e+02
891	2.36031e+02	8.91000e+02	1.15282e+01	2.35500e+02
893	2.37049e+02	8.93000e+02	1.15252e+01	2.36500e+02
895	2.38079e+02	8.95000e+02	1.15222e+01	2.37500e+02
897	2.39100e+02	8.97000e+02	1.15192e+01	2.38500e+02
899	2.40127e+02	8.99000e+02	1.15163e+01	2.39500e+02
901	2.41155e+02	9.01000e+02	1.15134e+01	2.40500e+02
903	2.42184e+02	9.03000e+02	1.15106e+01	2.41500e+02
905	2.43204e+02	9.05000e+02	1.15078e+01	2.42500e+02
907	2.44242e+02	9.07000e+02	1.15050e+01	2.43500e+02
909	2.45256e+02	9.09000e+02	1.15023e+01	2.44500e+02
911	2.46258e+02	9.11000e+02	1.14997e+01	2.45500e+02
913	2.47285e+02	9.13000e+02	1.14972e+01	2.46500e+02
915	2.48305e+02	9.15000e+02	1.14947e+01	2.47500e+02
917	2.49325e+02	9.17000e+02	1.14924e+01	2.48500e+02
919	2.50346e+02	9.19000e+02	1.14901e+01	2.49500e+02
921	2.51351e+02	9.21000e+02	1.14879e+01	2.50500e+02
923	2.52377e+02	9.23000e+02	1.14857e+01	2.51500e+02
925	2.53392e+02	9.25000e+02	1.14836e+01	2.52500e+02
927	2.54419e+02	9.27000e+02	1.14815e+01	2.53500e+02
929	2.55447e+02	9.29000e+02	1.14795e+01	2.54500e+02
931	2.56465e+02	9.31000e+02	1.14775e+01	2.55500e+02
933	2.57494e+02	9.33000e+02	1.14754e+01	2.56500e+02
935	2.58503e+02	9.35000e+02	1.14734e+01	2.57500e+02
937	2.59517e+02	9.37000e+02	1.14714e+01	2.58500e+02
939	2.60518e+02	9.39000e+02	1.14695e+01	2.59500e+02
941	2.61537e+02	9.41000e+02	1.14676e+01	2.60500e+02
943	2.62557e+02	9.43000e+02	1.14656e+01	2.61500e+02
945	2.63580e+02	9.45000e+02	1.14638e+01	2.62500e+02
947	2.64595e+02	9.47000e+02	1.14619e+01	2.63500e+02
949	2.65623e+02	9.49000e+02	1.14600e+01	2.64500e+02
951	2.66668e+02	9.51000e+02	1.14581e+01	2.65500e+02
953	2.67686e+02	9.53000e+02	1.14561e+01	2.66500e+02
955	2.68740e+02	9.55000e+02	1.14541e+01	2.67500e+02
957	2.69755e+02	9.57000e+02	1.14519e+01	2.68500e+02
959	2.70755e+02	9.59000e+02	1.14497e+01	2.69500e+02
961	2.71762e+02	9.61000e+02	1.14474e+01	2.70500e+02
963	2.72775e+02	9.63000e+02	1.14451e+01	2.71500e+02
965	2.73820e+02	9.65000e+02	1.14426e+01	2.72500e+02
967	2.74838e+02	9.67000e+02	1.14400e+01	2.73500e+02
969	2.75865e+02	9.69000e+02	1.14373e+01	2.74500e+02
971	2.76903e+02	9.71000e+02	1.14345e+01	2.75500e+02
973	2.77922e+02	9.73000e+02	1.14315e+01	2.76500e+02
975	2.78943e+02	9.75000e+02	1.14284e+01	2.77500e+02
977	2.79979e+02	9.77000e+02	1.14251e+01	2.78500e+02
979	2.81007e+02	9.79000e+02	1.14217e+01	2.79500e+02
981	2.82024e+02	9.81000e+02	1.14180e+01	2.80500e+02
983	2.83051e+02	9.83000e+02	1.14142e+01	2.81500e+02
985	2.84087e+02	9.85000e+02	1.14101e+01	2.82500e+02
987	2.85116e+02	9.87000e+02	1.14059e+01	2.83500e+02
989	2.86128e+02	9.89000e+02	1.14013e+01	2.84500e+02
991	2.87162e+02	9.91000e+02	1.13965e+01	2.85500e+02
993	2.88188e+02	9.93000e+02	1.13913e+01	2.86500e+02
995	2.89229e+02	9.95000e+02	1.13859e+01	2.87500e+02
997	2.90250e+02	9.97000e+02	1.13800e+01	2.88500e+02
999	2.91262e+02	9.99000e+02	1.13739e+01	2.89500e+02
1001	2.92268e+02	1.00100e+03	1.13672e+01	2.90500e+02
1003	2.93275e+02	1.00300e+03	1.13603e+01	2.91500e+02
1005	2.94280e+02	1.00500e+03	1.13527e+01	2.92500e+02
1007	2.95312e+02	1.00700e+03	1.13449e+01	2.93500e+02
1009	2.96319e+02	1.00900e+03	1.13364e+01	2.94500e+02
1011	2.97326e+02	1.01100e+03	1.13277e+01	2.95500e+02
1013	2.98336e+02	1.01300e+03	1.13182e+01	2.96500e+02
1015	2.99372e+02	1.01500e+03	1.13085e+01	2.97500e+02
1017	3.00407e+02	1.01700e+03	1.12980e+01	2.98500e+02
1019	3.01461e+02	1.01900e+03	1.12874e+01	2.99500e+02
1021	3.02527e+02	1.02100e+03	1.12760e+01	3.00500e+02
1023	3.03610e+02	1.02300e+03	1.12644e+01	3.01500e+02
1025	3.04634e+02	1.02500e+03	1.12520e+01	3.02500e+02
1027	3.05663e+02	1.02700e+03	1.12395e+01	3.03500e+02
1029	3.06733e+02	1.02900e+03	1.12262e+01	3.04500e+02
1031	3.07838e+02	1.03100e+03	1.12127e+01	3.05500e+02
1033	3.08873e+02	1.03300e+03	1.11984e+01	3.06500e+02
1035	3.09882e+02	1.03500e+03	1.11840e+01	3.07500e+02
1037	3.10890e+02	1.03700e+03	1.11690e+01	3.08500e+02
1039	3.11882e+02	1.03900e+03	1.11539e+01	3.09500e+02
1041	3.12902e+02	1.04100e+03	1.11382e+01	3.10500e+02
1043	3.13886e+02	1.04300e+03	1.11224e+01	3.11500e+02
1045	3.14846e+02	1.04500e+03	1.11062e+01	3.12500e+02
1047	3.15873e+02	1.04700e+03	1.10899e+01	3.13500e+02
1049	3.16891e+02	1.04900e+03	1.10733e+01	3.14500e+02
1051	3.17928e+02	1.05100e+03	1.10566e+01	3.15500e+02
1053	3.19008e+02	1.05300e+03	1.10397e+01	3.16500e+02
1055	3.20016e+02	1.05500e+03	1.10227e+01	3.17500e+02
1057	3.21016e+02	1.05700e+03	1.10056e+01	3.18500e+02
1059	3.22057e+02	1.05900e+03	1.09883e+01	3.19500e+02
1061	3.23076e+02	1.06100e+03	1.09709e+01	3.20500e+02
1063	3.24084e+02	1.06300e+03	1.09533e+01	3.21500e+02
1065	3.25138e+02	1.06500e+03	1.09354e+01	3.22500e+02
1067	3.26140e+02	1.06700e+03	1.09174e+01	3.23500e+02
1069	3.27164e+02	1.06900e+03	1.08989e+01	3.24500e+02
1071	3.28204e+02	1.07100e+03	1.08802e+01	3.25500e+02
1073	3.29293e+02	1.07300e+03	1.08607e+01	3.26500e+02
1075	3.30296e+02	1.07500e+03	1.08409e+01	3.27500e+02
1077	3.31310e+02	1.07700e+03	1.08200e+01	3.28500e+02
1079	3.32345e+02	1.07900e+03	1.07986e+01	3.29500e+02
1081	3.33334e+02	1.08100e+03	1.07758e+01	3.30500e+02
1083	3.34333e+02	1.08300e+03	1.07523e+01	3.31500e+02
1085	3.35349e+02	1.08500e+03	1.07270e+01	3.32500e+02
1087	3.36360e+02	1.08700e+03	1.07012e+01	3.33500e+02
1089	3.37400e+02	1.08900e+03	1.06731e+01	3.34500e+02
1091	3.38461e+02	1.09100e+03	1.06443e+01	3.35500e+02
1093	3.39471e+02	1.09300e+03	1.06128e+01	3.36500e+02
1095	3.40508e+02	1.09500e+03	1.05806e+01	3.37500e+02
1097	3.41555e+02	1.09700e+03	1.05453e+01	3.38500e+02
1099	3.42584e+02	1.09900e+03	1.05091e+01	3.39500e+02
1101	3.43598e+02	1.10100e+03	1.04694e+01	3.40500e+02
1103	3.44585e+02	1.10300e+03	1.04287e+01	3.41500e+02
1105	3.45554e+02	1.10500e+03	1.03842e+01	3.42500e+02
1107	3.46560e+02	1.10700e+03	1.03387e+01	3.43500e+02
1109	3.47567e+02	1.10900e+03	1.02894e+01	3.44500e+02
1111	3.48602e+02	1.11100e+03	1.02383e+01	3.45500e+02
1113	3.49622e+02	1.11300e+03	1.01833e+01	3.46500e+02
1115	3.50601e+02	1.11500e+03	1.01264e+01	3.47500e+02
1117	3.51585e+02	1.11700e+03	1.00654e+01	3.48500e+02
1119	3.52630e+02	1.11900e+03	1.00038e+01	3.49500e+02
1121	3.53639e+02	1.12100e+03	9.93618e+00	3.50500e+02
1123	3.54724e+02	1.12300e+03	9.86557e+00	3.51500e+02
1125	3.55786e+02	1.12500e+03	9.79225e+00	3.52500e+02
1127	3.56824e+02	1.12700e+03	9.71657e+00	3.53500e+02
1129	3.57785e+02	1.12900e+03	9.63552e+00	3.54500e+02
1131	3.58745e+02	1.13100e+03	9.55134e+00	3.55500e+02
1133	3.59715e+02	1.13300e+03	9.46443e+00	3.56500e+02
1135	3.60701e+02	1.13500e+03	9.37502e+00	3.57500e+02
1137	3.61673e+02	1.13700e+03	9.27998e+00	3.58500e+02
1139	3.62625e+02	1.13900e+03	9.18179e+00	3.59500e+02
1141	3.63592e+02	1.14100e+03	9.08018e+00	3.60500e+02
1143	3.64584e+02	1.14300e+03	8.97768e+00	3.61500e+02
1145	3.65562e+02	1.14500e+03	8.86924e+00	3.62500e+02
1147	3.66487e+02	1.14700e+03	8.75806e+00	3.63500e+02
1149	3.67450e+02	1.14900e+03	8.64364e+00	3.64500e+02
1151	3.68453e+02	1.15100e+03	8.52793e+00	3.65500e+02
1153	3.69345e+02	1.15300e+03	8.40819e+00	3.66500e+02
1155	3.70263e+02	1.15500e+03	8.28762e+00	3.67500e+02
1157	3.71146e+02	1.15700e+03	8.16337e+00	3.68500e+02
1159	3.72083e+02	1.15900e+03	8.03866e+00	3.69500e+02
1161	3.72996e+02	1.16100e+03	7.91095e+00	3.70500e+02
1163	3.73921e+02	1.16300e+03	7.78274e+00	3.71500e+02
1165	3.74890e+02	1.16500e+03	7.65203e+00	3.72500e+02
1167	3.75849e+02	1.16700e+03	7.52090e+00	3.73500e+02
1169	3.76834e+02	1.16900e+03	7.38731e+00	3.74500e+02
1171	3.77865e+02	1.17100e+03	7.25283e+00	3.75500e+02
1173	3.78836e+02	1.17300e+03	7.11521e+00	3.76500e+02
1175	3.79819e+02	1.17500e+03	6.97650e+00	3.77500e+02
1177	3.80806e+02	1.17700e+03	6.83402e+00	3.78500e+02
1179	3.81810e+02	1.17900e+03	6.69052e+00	3.79500e+02
1181	3.82807e+02	1.18100e+03	6.54323e+00	3.80500e+02
1183	3.83810e+02	1.18300e+03	6.39535e+00	3.81500e+02
1185	3.84762e+02	1.18500e+03	6.24426e+00	3.82500e+02
1187	3.85706e+02	1.18700e+03	6.09235e+00	3.83500e+02
1189	3.86642e+02	1.18900e+03	5.93706e+00	3.84500e+02
1191	3.87599e+02	1.19100e+03	5.78083e+00	3.85500e+02
1193	3.88569e+02	1.19300e+03	5.61838e+00	3.86500e+02
1195	3.89589e+02	1.19500e+03	5.45375e+00	3.87500e+02
1197	3.90563e+02	1.19700e+03	5.28315e+00	3.88500e+02
1199	3.91549e+02	1.19900e+03	5.10921e+00	3.89500e+02
1201	3.92547e+02	1.20100e+03	4.93204e+00	3.90500e+02
1203	3.93519e+02	1.20300e+03	4.75424e+00	3.91500e+02
1205	3.94549e+02	1.20500e+03	4.57388e+00	3.92500e+02
1207	3.95557e+02	1.20700e+03	4.39386e+00	3.93500e+02
1209	3.96450e+02	1.20900e+03	4.21274e+00	3.94500e+02
1211	3.97339e+02	1.21100e+03	4.03147e+00	3.95500e+02
1213	3.98266e+02	1.21300e+03	3.84907e+00	3.96500e+02
1215	3.99175e+02	1.21500e+03	3.66632e+00	3.97500e+02
1217	4.00105e+02	1.21700e+03	3.48293e+00	3.98500e+02
1219	4.01048e+02	1.21900e+03	3.30051e+00	3.99500e+02
1221	4.02015e+02	1.22100e+03	3.11970e+00	4.00500e+02
1223	4.03001e+02	1.22300e+03	2.93999e+00	4.01500e+02
1225	4.04005e+02	1.22500e+03	2.76353e+00	4.02500e+02
1227	4.05029e+02	1.22700e+03	2.58837e+00	4.03500e+02
1229	4.06040e+02	1.22900e+03	2.41665e+00	4.04500e+02
1231	4.07070e+02	1.23100e+03	2.24742e+00	4.05500e+02
1233	4.08108e+02	1.23300e+03	2.08364e+00	4.06500e+02
1235	4.09183e+02	1.23500e+03	1.92471e+00	4.07500e+02
1237	4.10223e+02	1.23700e+03	1.77485e+00	4.08500e+02
1239	4.11339e+02	1.23900e+03	1.63103e+00	4.09500e+02
1241	4.12425e+02	1.24100e+03	1.49735e+00	4.10500e+02
1243	4.13520e+02	1.24300e+03	1.37017e+00	4.11500e+02
1245	4.14567e+02	1.24500e+03	1.25404e+00	4.12500e+02
1247	4.15710e+02	1.24700e+03	1.14468e+00	4.13500e+02
1249	4.16899e+02	1.24900e+03	1.04598e+00	4.14500e+02
1251	4.17916e+02	1.25100e+03	9.53352e-01	4.15500e+02
1253	4.18840e+02	1.25300e+03	8.70300e-01	4.16500e+02
1255	4.20058e+02	1.25500e+03	7.94388e-01	4.17500e+02
1257	4.21222e+02	1.25700e+03	7.24050e-01	4.18500e+02
1259	4.22497e+02	1.25900e+03	6.60254e-01	4.19500e+02
1261	4.23525e+02	1.26100e+03	6.01830e-01	4.20500e+02
1263	4.24670e+02	1.26300e+03	5.49335e-01	4.21500e+02
1265	4.25613e+02	1.26500e+03	5.02775e-01	4.22500e+02
1267	4.26689e+02	1.26700e+03	4.58966e-01	4.23500e+02
1269	4.27751e+02	1.26900e+03	4.21559e-01	4.24500e+02
1271	4.28761e+02	1.27100e+03	3.86378e-01	4.25500e+02
1273	4.29864e+02	1.27300e+03	3.56913e-01	4.26500e+02
1275	4.30891e+02	1.27500e+03	3.30510e-01	4.27500e+02
1277	4.31914e+02	1.27700e+03	3.07563e-01	4.28500e+02
1279	4.32919e+02	1.27900e+03	2.85906e-01	4.29500e+02
1281	4.33860e+02	1.28100e+03	2.68252e-01	4.30500e+02
1283	4.34975e+02	1.28300e+03	2.51302e-01	4.31500e+02
1285	4.35982e+02	1.28500e+03	2.37811e-01	4.32500e+02
1287	4.36976e+02	1.28700e+03	2.24828e-01	4.33500e+02
1289	4.37984e+02	1.28900e+03	2.14633e-01	4.34500e+02
1291	4.38981e+02	1.29100e+03	2.04795e-01	4.35500e+02
1293	4.39940e+02	1.29300e+03	1.97105e-01	4.36500e+02
1295	4.40979e+02	1.29500e+03	1.89661e-01	4.37500e+02
1297	4.42016e+02	1.29700e+03	1.83832e-01	4.38500e+02
1299	4.43023e+02	1.29900e+03	1.78194e-01	4.39500e+02
1301	4.44020e+02	1.30100e+03	1.73778e-01	4.40500e+02
1303	4.45015e+02	1.30300e+03	1.69498e-01	4.41500e+02
1305	4.46017e+02	1.30500e+03	1.66137e-01	4.42500e+02
1307	4.47029e+02	1.30700e+03	1.62893e-01	4.43500e+02
1309	4.48035e+02	1.30900e+03	1.60368e-01	4.44500e+02
1311	4.49040e+02	1.31100e+03	1.57942e-01	4.45500e+02
1313	4.50042e+02	1.31300e+03	1.56075e-01	4.46500e+02
1315	4.51105e+02	1.31500e+03	1.54255e-01	4.47500e+02
1317	4.52105e+02	1.31700e+03	1.52818e-01	4.48500e+02
1319	4.53014e+02	1.31900e+03	1.51409e-01	4.49500e+02
1321	4.53965e+02	1.32100e+03	1.50261e-01	4.50500e+02
1323	4.54966e+02	1.32300e+03	1.49149e-01	4.51500e+02
1325	4.55953e+02	1.32500e+03	1.48252e-01	4.52500e+02
1327	4.56938e+02	1.32700e+03	1.47395e-01	4.53500e+02
1329	4.57915e+02	1.32900e+03	1.46732e-01	4.54500e+02
1331	4.58872e+02	1.33100e+03	1.46109e-01	4.55500e+02
1333	4.59833e+02	1.33300e+03	1.45672e-01	4.56500e+02
1335	4.60794e+02	1.33500e+03	1.45274e-01	4.57500e+02
1337	4.61798e+02	1.33700e+03	1.45061e-01	4.58500e+02
1339	4.62758e+02	1.33900e+03	1.44879e-01	4.59500e+02
1341	4.63725e+02	1.34100e+03	1.44821e-01	4.60500e+02
1343	4.64713e+02	1.34300e+03	1.44732e-01	4.61500e+02
1345	4.65683e+02	1.34500e+03	1.44656e-01	4.62500e+02
1347	4.66663e+02	1.34700e+03	1.44557e-01	4.63500e+02
1349	4.67616e+02	1.34900e+03	1.44440e-01	4.64500e+02
1351	4.68563e+02	1.35100e+03	1.44332e-01	4.65500e+02
1353	4.69517e+02	1.35300e+03	1.44229e-01	4.66500e+02
1355	4.70471e+02	1.35500e+03	1.44130e-01	4.67500e+02
1357	4.71423e+02	1.35700e+03	1.44052e-01	4.68500e+02
1359	4.72415e+02	1.35900e+03	1.43992e-01	4.69500e+02
1361	4.73397e+02	1.36100e+03	1.43964e-01	4.70500e+02
1363	4.74395e+02	1.36300e+03	1.43933e-01	4.71500e+02
1365	4.75378e+02	1.36500e+03	1.43900e-01	4.72500e+02
1367	4.76322e+02	1.36700e+03	1.43833e-01	4.73500e+02
1369	4.77274e+02	1.36900e+03	1.43728e-01	4.74500e+02
1371	4.78219e+02	1.37100e+03	1.43642e-01	4.75500e+02
1373	4.79132e+02	1.37300e+03	1.43566e-01	4.76500e+02
1375	4.80020e+02	1.37500e+03	1.43510e-01	4.77500e+02
1377	4.81036e+02	1.37700e+03	1.43482e-01	4.78500e+02
1379	4.81920e+02	1.37900e+03	1.43450e-01	4.79500e+02
1381	4.82860e+02	1.38100e+03	1.43435e-01	4.80500e+02
1383	4.83899e+02	1.38300e+03	1.43426e-01	4.81500e+02
1385	4.84756e+02	1.38500e+03	1.43425e-01	4.82500e+02
1387	4.85788e+02	1.38700e+03	1.43411e-01	4.83500e+02
1389	4.86910e+02	1.38900e+03	1.43379e-01	4.84500e+02
1391	4.87957e+02	1.39100e+03	1.43349e-01	4.85500e+02
1393	4.89020e+02	1.39300e+03	1.43315e-01	4.86500e+02
1395	4.90040e+02	1.39500e+03	1.43287e-01	4.87500e+02
1397	4.90972e+02	1.39700e+03	1.43259e-01	4.88500e+02
1399	4.91996e+02	1.39900e+03	1.43220e-01	4.89500e+02
1401	4.93000e+02	1.40100e+03	1.43150e-01	4.90500e+02
1403	4.93979e+02	1.40300e+03	1.43061e-01	4.91500e+02
1405	4.95025e+02	1.40500e+03	1.42923e-01	4.92500e+02
1407	4.96136e+02	1.40700e+03	1.42794e-01	4.93500e+02
1409	4.97181e+02	1.40900e+03	1.42686e-01	4.94500e+02
1411	4.98272e+02	1.41100e+03	1.42625e-01	4.95500e+02
1413	4.99174e+02	1.41300e+03	1.42648e-01	4.96500e+02
1415	4.99826e+02	1.41500e+03	1.42669e-01	4.97500e+02
1417	5.00672e+02	1.41700e+03	1.42711e-01	4.98500e+02
1419	5.01747e+02	1.41900e+03	1.42724e-01	4.99500e+02
1421	5.02814e+02	1.42100e+03	1.42704e-01	5.00500e+02
1423	5.03867e+02	1.42300e+03	1.42677e-01	5.01500e+02
1425	5.04829e+02	1.42500e+03	1.42620e-01	5.02500e+02
1427	5.05825e+02	1.42700e+03	1.42567e-01	5.03500e+02
1429	5.06818e+02	1.42900e+03	1.42522e-01	5.04500e+02
1431	5.07803e+02	1.43100e+03	1.42499e-01	5.05500e+02
1433	5.08877e+02	1.43300e+03	1.42523e-01	5.06500e+02
1435	5.09963e+02	1.43500e+03	1.42543e-01	5.07500e+02
1437	5.11024e+02	1.43700e+03	1.42565e-01	5.08500e+02
1439	5.11900e+02	1.43900e+03	1.42556e-01	5.09500e+02
1441	5.12859e+02	1.44100e+03	1.42497e-01	5.10500e+02
1443	5.13867e+02	1.44300e+03	1.42447e-01	5.11500e+02
1445	5.14900e+02	1.44500e+03	1.42382e-01	5.12500e+02
1447	5.16161e+02	1.44700e+03	1.42313e-01	5.13500e+02
1449	5.17641e+02	1.44900e+03	1.42210e-01	5.14500e+02
1451	5.18564e+02	1.45100e+03	1.42103e-01	5.15500e+02
1453	5.19460e+02	1.45300e+03	1.42040e-01	5.16500e+02
1455	5.20298e+02	1.45500e+03	1.42067e-01	5.17500e+02
1457	5.21305e+02	1.45700e+03	1.42253e-01	5.18500e+02
1459	5.22251e+02	1.45900e+03	1.42415e-01	5.19500e+02
1461	5.23111e+02	1.46100e+03	1.42560e-01	5.20500e+02
1463	5.23987e+02	1.46300e+03	1.42620e-01	5.21500e+02
1465	5.24865e+02	1.46500e+03	1.42552e-01	5.22500e+02
1467	5.25780e+02	1.46700e+03	1.42492e-01	5.23500e+02
1469	5.26744e+02	1.46900e+03	1.42390e-01	5.24500e+02
1471	5.27698e+02	1.47100e+03	1.42315e-01	5.25500e+02
1473	5.28662e+02	1.47300e+03	1.42262e-01	5.26500e+02
1475	5.29631e+02	1.47500e+03	1.42220e-01	5.27500e+02
1477	5.30597e+02	1.47700e+03	1.42197e-01	5.28500e+02
1479	5.31599e+02	1.47900e+03	1.42169e-01	5.29500e+02
1481	5.32624e+02	1.48100e+03	1.42156e-01	5.30500e+02
1483	5.33634e+02	1.48300e+03	1.42155e-01	5.31500e+02
1485	5.34865e+02	1.48500e+03	1.42161e-01	5.32500e+02
1487	5.35767e+02	1.48700e+03	1.42145e-01	5.33500e+02
1489	5.36560e+02	1.48900e+03	1.42087e-01	5.34500e+02
1491	5.37461e+02	1.49100e+03	1.42028e-01	5.35500e+02
1493	5.38335e+02	1.49300e+03	1.41972e-01	5.36500e+02
1495	5.39261e+02	1.49500e+03	1.41952e-01	5.37500e+02
1497	5.40206e+02	1.49700e+03	1.41981e-01	5.38500e+02
1499	5.41217e+02	1.49900e+03	1.41995e-01	5.39500e+02
1501	5.42184e+02	1.50100e+03	1.42020e-01	5.40500e+02
1503	5.43133e+02	1.50300e+03	1.42037e-01	5.41500e+02
1505	5.44172e+02	1.50500e+03	1.42041e-01	5.42500e+02
1507	5.45119e+02	1.50700e+03	1.42040e-01	5.43500e+02
1509	5.46057e+02	1.50900e+03	1.42028e-01	5.44500e+02
1511	5.46976e+02	1.51100e+03	1.42034e-01	5.45500e+02
1513	5.47974e+02	1.51300e+03	1.42056e-01	5.46500e+02
1515	5.48956e+02	1.51500e+03	1.42071e-01	5.47500e+02
1517	5.49957e+02	1.51700e+03	1.42074e-01	5.48500e+02
1519	5.50937e+02	1.51900e+03	1.42050e-01	5.49500e+02
1521	5.51922e+02	1.52100e+03	1.41996e-01	5.50500e+02
1523	5.53143e+02	1.52300e+03	1.41959e-01	5.51500e+02
1525	5.54402e+02	1.52500e+03	1.41930e-01	5.52500e+02
1527	5.55564e+02	1.52700e+03	1.41895e-01	5.53500e+02
1529	5.56717e+02	1.52900e+03	1.41827e-01	5.54500e+02
1531	5.57791e+02	1.53100e+03	1.41735e-01	5.55500e+02
1533	5.58744e+02	1.53300e+03	1.41621e-01	5.56500e+02
1535	5.59758e+02	1.53500e+03	1.41572e-01	5.57500e+02
1537	5.60869e+02	1.53700e+03	1.41647e-01	5.58500e+02
1539	5.61953e+02	1.53900e+03	1.41747e-01	5.59500e+02
1541	5.63014e+02	1.54100e+03	1.41911e-01	5.60500e+02
1543	5.64117e+02	1.54300e+03	1.42001e-01	5.61500e+02
1545	5.65124e+02	1.54500e+03	1.41991e-01	5.62500e+02
1547	5.66371e+02	1.54700e+03	1.41966e-01	5.63500e+02
1549	5.67604e+02	1.54900e+03	1.41890e-01	5.64500e+02
1551	5.69292e+02	1.55100e+03	1.41862e-01	5.65500e+02
1553	5.70682e+02	1.55300e+03	1.41877e-01	5.66500e+02
1555	5.71455e+02	1.55500e+03	1.41896e-01	5.67500e+02
1557	5.72258e+02	1.55700e+03	1.41934e-01	5.68500e+02
1559	5.73155e+02	1.55900e+03	1.41945e-01	5.69500e+02
1561	5.73966e+02	1.56100e+03	1.41923e-01	5.70500e+02
1563	5.74973e+02	1.56300e+03	1.41892e-01	5.71500e+02
1565	5.75940e+02	1.56500e+03	1.41845e-01	5.72500e+02
1567	5.76899e+02	1.56700e+03	1.41813e-01	5.73500e+02
1569	5.77875e+02	1.56900e+03	1.41790e-01	5.74500e+02
1571	5.78867e+02	1.57100e+03	1.41762e-01	5.75500e+02
1573	5.79826e+02	1.57300e+03	1.41736e-01	5.76500e+02
1575	5.80802e+02	1.57500e+03	1.41727e-01	5.77500e+02
1577	5.81765e+02	1.57700e+03	1.41742e-01	5.78500e+02
1579	5.82727e+02	1.57900e+03	1.41756e-01	5.79500e+02
1581	5.83694e+02	1.58100e+03	1.41775e-01	5.80500e+02
1583	5.84684e+02	1.58300e+03	1.41776e-01	5.81500e+02
1585	5.85686e+02	1.58500e+03	1.41755e-01	5.82500e+02
1587	5.86678e+02	1.58700e+03	1.41741e-01	5.83500e+02
1589	5.87689e+02	1.58900e+03	1.41729e-01	5.84500e+02
1591	5.88689e+02	1.59100e+03	1.41726e-01	5.85500e+02
1593	5.89734e+02	1.59300e+03	1.41736e-01	5.86500e+02
1595	5.90802e+02	1.59500e+03	1.41743e-01	5.87500e+02
1597	5.91859e+02	1.59700e+03	1.41755e-01	5.88500e+02
1599	5.93070e+02	1.59900e+03	1.41767e-01	5.89500e+02
1601	5.92426e+02	1.60100e+03	1.41776e-01	5.90500e+02
1603	5.93324e+02	1.60300e+03	1.41779e-01	5.91500e+02
1605	5.94229e+02	1.60500e+03	1.41764e-01	5.92500e+02
1607	5.95152e+02	1.60700e+03	1.41744e-01	5.93500e+02
1609	5.96104e+02	1.60900e+03	1.41712e-01	5.94500e+02
1611	5.97060e+02	1.61100e+03	1.41684e-01	5.95500e+02
1613	5.98027e+02	1.61300e+03	1.41656e-01	5.96500e+02
1615	5.98994e+02	1.61500e+03	1.41629e-01	5.97500e+02
1617	5.99958e+02	1.61700e+03	1.41615e-01	5.98500e+02
1619	6.00927e+02	1.61900e+03	1.41601e-01	5.99500e+02
1621	6.01908e+02	1.62100e+03	1.41583e-01	6.00500e+02
1623	6.02878e+02	1.62300e+03	1.41548e-01	6.01500e+02
1625	6.03846e+02	1.62500e+03	1.41502e-01	6.02500e+02
1627	6.04826e+02	1.62700e+03	1.41481e-01	6.03500e+02
1629	6.05771e+02	1.62900e+03	1.41481e-01	6.04500e+02
1631	6.06735e+02	1.63100e+03	1.41473e-01	6.05500e+02
1633	6.07696e+02	1.63300e+03	1.41463e-01	6.06500e+02
1635	6.08668e+02	1.63500e+03	1.41449e-01	6.07500e+02
1637	6.09643e+02	1.63700e+03	1.41431e-01	6.08500e+02
1639	6.10610e+02	1.63900e+03	1.41425e-01	6.09500e+02
1641	6.11572e+02	1.64100e+03	1.41435e-01	6.10500e+02
1643	6.12550e+02	1.64300e+03	1.41455e-01	6.11500e+02
1645	6.13523e+02	1.64500e+03	1.41494e-01	6.12500e+02
1647	6.14498e+02	1.64700e+03	1.41524e-01	6.13500e+02
1649	6.15476e+02	1.64900e+03	1.41535e-01	6.14500e+02
1651	6.16455e+02	1.65100e+03	1.41522e-01	6.15500e+02
1653	6.17439e+02	1.65300e+03	1.41494e-01	6.16500e+02
1655	6.18420e+02	1.65500e+03	1.41493e-01	6.17500e+02
1657	6.19378e+02	1.65700e+03	1.41522e-01	6.18500e+02
1659	6.20354e+02	1.65900e+03	1.41538e-01	6.19500e+02
1661	6.21335e+02	1.66100e+03	1.41544e-01	6.20500e+02
1663	6.22311e+02	1.66300e+03	1.41538e-01	6.21500e+02
1665	6.23295e+02	1.66500e+03	1.41529e-01	6.22500e+02
1667	6.24265e+02	1.66700e+03	1.41541e-01	6.23500e+02
1669	6.25264e+02	1.66900e+03	1.41567e-01	6.24500e+02
1671	6.26244e+02	1.67100e+03	1.41577e-01	6.25500e+02
1673	6.27231e+02	1.67300e+03	1.41573e-01	6.26500e+02
1675	6.28209e+02	1.67500e+03	1.41565e-01	6.27500e+02
1677	6.29198e+02	1.67700e+03	1.41531e-01	6.28500e+02
1679	6.30164e+02	1.67900e+03	1.41498e-01	6.29500e+02
1681	6.31147e+02	1.68100e+03	1.41461e-01	6.30500e+02
1683	6.32127e+02	1.68300e+03	1.41441e-01	6.31500e+02
1685	6.33120e+02	1.68500e+03	1.41444e-01	6.32500e+02
1687	6.34087e+02	1.68700e+03	1.41448e-01	6.33500e+02
1689	6.35085e+02	1.68900e+03	1.41465e-01	6.34500e+02
1691	6.36081e+02	1.69100e+03	1.41480e-01	6.35500e+02
1693	6.37077e+02	1.69300e+03	1.41495e-01	6.36500e+02
1695	6.38062e+02	1.69500e+03	1.41504e-01	6.37500e+02
1697	6.39071e+02	1.69700e+03	1.41514e-01	6.38500e+02
1699	6.40063e+02	1.69900e+03	1.41528e-01	6.39500e+02
1701	6.41040e+02	1.70100e+03	1.41551e-01	6.40500e+02
1703	6.42026e+02	1.70300e+03	1.41569e-01	6.41500e+02
1705	6.43022e+02	1.70500e+03	1.41554e-01	6.42500e+02
1707	6.44039e+02	1.70700e+03	1.41507e-01	6.43500e+02
1709	6.45042e+02	1.70900e+03	1.41424e-01	6.44500e+02
1711	6.46052e+02	1.71100e+03	1.41368e-01	6.45500e+02
1713	6.47053e+02	1.71300e+03	1.41322e-01	6.46500e+02
1715	6.48082e+02	1.71500e+03	1.41271e-01	6.47500e+02
1717	6.49095e+02	1.71700e+03	1.41207e-01	6.48500e+02
1719	6.50104e+02	1.71900e+03	1.41122e-01	6.49500e+02
1721	6.51117e+02	1.72100e+03	1.41002e-01	6.50500e+02
1723	6.52105e+02	1.72300e+03	1.40918e-01	6.51500e+02
1725	6.53111e+02	1.72500e+03	1.40928e-01	6.52500e+02
1727	6.54096e+02	1.72700e+03	1.41016e-01	6.53500e+02
1729	6.55091e+02	1.72900e+03	1.41250e-01	6.54500e+02
1731	6.56084e+02	1.73100e+03	1.41434e-01	6.55500e+02
1733	6.57055e+02	1.73300e+03	1.41578e-01	6.56500e+02
1735	6.58046e+02	1.73500e+03	1.41669e-01	6.57500e+02
1737	6.59034e+02	1.73700e+03	1.41651e-01	6.58500e+02
1739	6.60024e+02	1.73900e+03	1.41637e-01	6.59500e+02
1741	6.60993e+02	1.74100e+03	1.41567e-01	6.60500e+02
1743	6.61990e+02	1.74300e+03	1.41497e-01	6.61500e+02
1745	6.62985e+02	1.74500e+03	1.41411e-01	6.62500e+02
1747	6.63985e+02	1.74700e+03	1.41328e-01	6.63500e+02
1749	6.64974e+02	1.74900e+03	1.41243e-01	6.64500e+02
1751	6.65962e+02	1.75100e+03	1.41166e-01	6.65500e+02
1753	6.66978e+02	1.75300e+03	1.41138e-01	6.66500e+02
1755	6.67947e+02	1.75500e+03	1.41155e-01	6.67500e+02
1757	6.68924e+02	1.75700e+03	1.41251e-01	6.68500e+02
1759	6.69910e+02	1.75900e+03	1.41329e-01	6.69500e+02
1761	6.70906e+02	1.76100e+03	1.41402e-01	6.70500e+02
1763	6.71895e+02	1.76300e+03	1.41447e-01	6.71500e+02
1765	6.72888e+02	1.76500e+03	1.41448e-01	6.72500e+02
1767	6.73883e+02	1.76700e+03	1.41452e-01	6.73500e+02
1769	6.74883e+02	1.76900e+03	1.41445e-01	6.74500e+02
1771	6.75877e+02	1.77100e+03	1.41438e-01	6.75500e+02
1773	6.76879e+02	1.77300e+03	1.41424e-01	6.76500e+02
1775	6.77876e+02	1.77500e+03	1.41396e-01	6.77500e+02
1777	6.78872e+02	1.77700e+03	1.41355e-01	6.78500e+02
1779	6.79859e+02	1.77900e+03	1.41330e-01	6.79500e+02
1781	6.80855e+02	1.78100e+03	1.41323e-01	6.80500e+02
1783	6.81833e+02	1.78300e+03	1.41313e-01	6.81500e+02
1785	6.82800e+02	1.78500e+03	1.41276e-01	6.82500e+02
1787	6.83801e+02	1.78700e+03	1.41211e-01	6.83500e+02
1789	6.84786e+02	1.78900e+03	1.41110e-01	6.84500e+02
1791	6.85778e+02	1.79100e+03	1.41052e-01	6.85500e+02
1793	6.86780e+02	1.79300e+03	1.41082e-01	6.86500e+02
1795	6.87457e+02	1.79500e+03	1.41164e-01	6.87500e+02
1797	6.87930e+02	1.79700e+03	1.41337e-01	6.88500e+02
1799	6.88628e+02	1.79900e+03	1.41468e-01	6.89500e+02
1801	6.89272e+02	1.80100e+03	1.41584e-01	6.90500e+02
1803	6.89909e+02	1.80300e+03	1.41665e-01	6.91500e+02
1805	6.90479e+02	1.80500e+03	1.41676e-01	6.92500e+02
1807	6.91023e+02	1.80700e+03	1.41666e-01	6.93500e+02
1809	6.91519e+02	1.80900e+03	1.41599e-01	6.94500e+02
1811	6.91993e+02	1.81100e+03	1.41535e-01	6.95500e+02
1813	6.92431e+02	1.81300e+03	1.41461e-01	6.96500e+02
1815	6.92842e+02	1.81500e+03	1.41410e-01	6.97500e+02
1817	6.93239e+02	1.81700e+03	1.41408e-01	6.98500e+02
1819	6.93612e+02	1.81900e+03	1.41442e-01	6.99500e+02
1820	6.93798e+02	1.82000e+03	1.41497e-01	7.00000e+02