File: Experiments/TGA/TUBS/tga_nonisotherm/tga_dynamic_n2_dyn5_powder_2mg_r2.txt
index	ts	t	weight	tr
[#]	[°C]	[s]	[mg]	[°C]
1083	1.31380e+02	1.08300e+03	1.95461e+00	1.30250e+02
1091	1.32039e+02	1.09100e+03	1.95441e+00	1.30917e+02
1099	1.32721e+02	1.09900e+03	1.95422e+00	1.31583e+02
1107	1.33392e+02	1.10700e+03	1.95419e+00	1.32250e+02
1115	1.34055e+02	1.11500e+03	1.95398e+00	1.32917e+02
1123	1.34737e+02	1.12300e+03	1.95381e+00	1.33583e+02
1131	1.35403e+02	1.13100e+03	1.95365e+00	1.34250e+02
1139	1.36086e+02	1.13900e+03	1.95359e+00	1.34917e+02
1147	1.36764e+02	1.14700e+03	1.95348e+00	1.35583e+02
1155	1.37433e+02	1.15500e+03	1.95322e+00	1.36250e+02
1163	1.38109e+02	1.16300e+03	1.95293e+00	1.36917e+02
1171	1.38784e+02	1.17100e+03	1.95268e+00	1.37583e+02
1179	1.39449e+02	1.17900e+03	1.95257e+00	1.38250e+02
1187	1.40121e+02	1.18700e+03	1.95248e+00	1.38917e+02
1195	1.40786e+02	1.19500e+03	1.95228e+00	1.39583e+02
1203	1.41466e+02	1.20300e+03	1.95210e+00	1.40250e+02
1211	1.42141e+02	1.21100e+03	1.95179e+00	1.40917e+02
1219	1.42810e+02	1.21900e+03	1.95142e+00	1.41583e+02
1227	1.43480e+02	1.22700e+03	1.95120e+00	1.42250e+02
1235	1.44160e+02	1.23500e+03	1.95090e+00	1.42917e+02
1243	1.44817e+02	1.24300e+03	1.95076e+00	1.43583e+02
1251	1.45505e+02	1.25100e+03	1.95052e+00	1.44250e+02
1259	1.46167e+02	1.25900e+03	1.95028e+00	1.44917e+02
1267	1.46851e+02	1.26700e+03	1.94987e+00	1.45583e+02
1275	1.47504e+02	1.27500e+03	1.94948e+00	1.46250e+02
1283	1.48202e+02	1.28300e+03	1.94923e+00	1.46917e+02
1291	1.48866e+02	1.29100e+03	1.94897e+00	1.47583e+02
1299	1.49546e+02	1.29900e+03	1.94884e+00	1.48250e+02
1307	1.50211e+02	1.30700e+03	1.94843e+00	1.48917e+02
1315	1.50873e+02	1.31500e+03	1.94807e+00	1.49583e+02
1323	1.51561e+02	1.32300e+03	1.94763e+00	1.50250e+02
1331	1.52219e+02	1.33100e+03	1.94719e+00	1.50917e+02
1339	1.52900e+02	1.33900e+03	1.94678e+00	1.51583e+02
1347	1.53572e+02	1.34700e+03	1.94653e+00	1.52250e+02
1355	1.54249e+02	1.35500e+03	1.94619e+00	1.52917e+02
1363	1.54913e+02	1.36300e+03	1.94576e+00	1.53583e+02
1371	1.55593e+02	1.37100e+03	1.94528e+00	1.54250e+02
1379	1.56266e+02	1.37900e+03	1.94477e+00	1.54917e+02
1387	1.56942e+02	1.38700e+03	1.94421e+00	1.55583e+02
1395	1.57615e+02	1.39500e+03	1.94359e+00	1.56250e+02
1403	1.58296e+02	1.40300e+03	1.94319e+00	1.56917e+02
1411	1.58976e+02	1.41100e+03	1.94265e+00	1.57583e+02
1419	1.59639e+02	1.41900e+03	1.94192e+00	1.58250e+02
1427	1.60312e+02	1.42700e+03	1.94119e+00	1.58917e+02
1435	1.60977e+02	1.43500e+03	1.94048e+00	1.59583e+02
1443	1.61649e+02	1.44300e+03	1.93965e+00	1.60250e+02
1451	1.62328e+02	1.45100e+03	1.93866e+00	1.60917e+02
1459	1.63001e+02	1.45900e+03	1.93758e+00	1.61583e+02
1467	1.63682e+02	1.46700e+03	1.93652e+00	1.62250e+02
1475	1.64344e+02	1.47500e+03	1.93543e+00	1.62917e+02
1483	1.65030e+02	1.48300e+03	1.93424e+00	1.63583e+02
1491	1.65691e+02	1.49100e+03	1.93295e+00	1.64250e+02
1499	1.66369e+02	1.49900e+03	1.93169e+00	1.64917e+02
1507	1.67039e+02	1.50700e+03	1.93023e+00	1.65583e+02
1515	1.67706e+02	1.51500e+03	1.92887e+00	1.66250e+02
1523	1.68389e+02	1.52300e+03	1.92741e+00	1.66917e+02
1531	1.69052e+02	1.53100e+03	1.92577e+00	1.67583e+02
1539	1.69726e+02	1.53900e+03	1.92414e+00	1.68250e+02
1547	1.70406e+02	1.54700e+03	1.92237e+00	1.68917e+02
1555	1.71085e+02	1.55500e+03	1.92064e+00	1.69583e+02
1563	1.71744e+02	1.56300e+03	1.91867e+00	1.70250e+02
1571	1.72398e+02	1.57100e+03	1.91684e+00	1.70917e+02
1579	1.73092e+02	1.57900e+03	1.91494e+00	1.71583e+02
1587	1.73757e+02	1.58700e+03	1.91293e+00	1.72250e+02
1595	1.74435e+02	1.59500e+03	1.91095e+00	1.72917e+02
1603	1.75095e+02	1.60300e+03	1.90893e+00	1.73583e+02
1611	1.75781e+02	1.61100e+03	1.90687e+00	1.74250e+02
1619	1.76457e+02	1.61900e+03	1.90474e+00	1.74917e+02
1627	1.77133e+02	1.62700e+03	1.90292e+00	1.75583e+02
1635	1.77797e+02	1.63500e+03	1.90114e+00	1.76250e+02
1643	1.78473e+02	1.64300e+03	1.89926e+00	1.76917e+02
1651	1.79124e+02	1.65100e+03	1.89746e+00	1.77583e+02
1659	1.79804e+02	1.65900e+03	1.89561e+00	1.78250e+02
1667	1.80475e+02	1.66700e+03	1.89378e+00	1.78917e+02
1675	1.81152e+02	1.67500e+03	1.89207e+00	1.79583e+02
1683	1.81823e+02	1.68300e+03	1.89049e+00	1.80250e+02
1691	1.82497e+02	1.69100e+03	1.88903e+00	1.80917e+02
1699	1.83179e+02	1.69900e+03	1.88753e+00	1.81583e+02
1707	1.83854e+02	1.70700e+03	1.88616e+00	1.82250e+02
1715	1.84524e+02	1.71500e+03	1.88488e+00	1.82917e+02
1723	1.85215e+02	1.72300e+03	1.88380e+00	1.83583e+02
1731	1.85876e+02	1.73100e+03	1.88270e+00	1.84250e+02
1739	1.86545e+02	1.73900e+03	1.88160e+00	1.84917e+02
1747	1.87206e+02	1.74700e+03	1.88050e+00	1.85583e+02
1755	1.87900e+02	1.75500e+03	1.87956e+00	1.86250e+02
1763	1.88571e+02	1.76300e+03	1.87882e+00	1.86917e+02
1771	1.89246e+02	1.77100e+03	1.87810e+00	1.87583e+02
1779	1.89917e+02	1.77900e+03	1.87743e+00	1.88250e+02
1787	1.90596e+02	1.78700e+03	1.87671e+00	1.88917e+02
1795	1.91278e+02	1.79500e+03	1.87602e+00	1.89583e+02
1803	1.91929e+02	1.80300e+03	1.87563e+00	1.90250e+02
1811	1.92599e+02	1.81100e+03	1.87508e+00	1.90917e+02
1819	1.93283e+02	1.81900e+03	1.87470e+00	1.91583e+02
1827	1.93945e+02	1.82700e+03	1.87430e+00	1.92250e+02
1835	1.94631e+02	1.83500e+03	1.87388e+00	1.92917e+02
1843	1.95295e+02	1.84300e+03	1.87352e+00	1.93583e+02
1851	1.95969e+02	1.85100e+03	1.87316e+00	1.94250e+02
1859	1.96642e+02	1.85900e+03	1.87281e+00	1.94917e+02
1867	1.97315e+02	1.86700e+03	1.87246e+00	1.95583e+02
1875	1.97986e+02	1.87500e+03	1.87210e+00	1.96250e+02
1883	1.98655e+02	1.88300e+03	1.87164e+00	1.96917e+02
1891	1.99335e+02	1.89100e+03	1.87133e+00	1.97583e+02
1899	2.00018e+02	1.89900e+03	1.87098e+00	1.98250e+02
1907	2.00674e+02	1.90700e+03	1.87071e+00	1.98917e+02
1915	2.01352e+02	1.91500e+03	1.87043e+00	1.99583e+02
1923	2.02029e+02	1.92300e+03	1.87028e+00	2.00250e+02
1931	2.02684e+02	1.93100e+03	1.87003e+00	2.00917e+02
1939	2.03366e+02	1.93900e+03	1.86968e+00	2.01583e+02
1947	2.04018e+02	1.94700e+03	1.86931e+00	2.02250e+02
1955	2.04689e+02	1.95500e+03	1.86901e+00	2.02917e+02
1963	2.05355e+02	1.96300e+03	1.86876e+00	2.03583e+02
1971	2.06010e+02	1.97100e+03	1.86860e+00	2.04250e+02
1979	2.06693e+02	1.97900e+03	1.86832e+00	2.04917e+02
1987	2.07367e+02	1.98700e+03	1.86793e+00	2.05583e+02
1995	2.08015e+02	1.99500e+03	1.86772e+00	2.06250e+02
2003	2.08682e+02	2.00300e+03	1.86750e+00	2.06917e+02
2011	2.09351e+02	2.01100e+03	1.86724e+00	2.07583e+02
2019	2.10006e+02	2.01900e+03	1.86709e+00	2.08250e+02
2027	2.10675e+02	2.02700e+03	1.86686e+00	2.08917e+02
2035	2.11331e+02	2.03500e+03	1.86667e+00	2.09583e+02
2043	2.11996e+02	2.04300e+03	1.86634e+00	2.10250e+02
2051	2.12669e+02	2.05100e+03	1.86614e+00	2.10917e+02
2059	2.13325e+02	2.05900e+03	1.86598e+00	2.11583e+02
2067	2.14006e+02	2.06700e+03	1.86585e+00	2.12250e+02
2075	2.14655e+02	2.07500e+03	1.86576e+00	2.12917e+02
2083	2.15330e+02	2.08300e+03	1.86563e+00	2.13583e+02
2091	2.15989e+02	2.09100e+03	1.86542e+00	2.14250e+02
2099	2.16664e+02	2.09900e+03	1.86524e+00	2.14917e+02
2107	2.17327e+02	2.10700e+03	1.86512e+00	2.15583e+02
2115	2.17990e+02	2.11500e+03	1.86496e+00	2.16250e+02
2123	2.18643e+02	2.12300e+03	1.86485e+00	2.16917e+02
2131	2.19322e+02	2.13100e+03	1.86463e+00	2.17583e+02
2139	2.19977e+02	2.13900e+03	1.86435e+00	2.18250e+02
2147	2.20636e+02	2.14700e+03	1.86420e+00	2.18917e+02
2155	2.21302e+02	2.15500e+03	1.86407e+00	2.19583e+02
2163	2.21965e+02	2.16300e+03	1.86419e+00	2.20250e+02
2171	2.22628e+02	2.17100e+03	1.86412e+00	2.20917e+02
2179	2.23313e+02	2.17900e+03	1.86407e+00	2.21583e+02
2187	2.23971e+02	2.18700e+03	1.86396e+00	2.22250e+02
2195	2.24636e+02	2.19500e+03	1.86370e+00	2.22917e+02
2203	2.25288e+02	2.20300e+03	1.86363e+00	2.23583e+02
2211	2.25951e+02	2.21100e+03	1.86364e+00	2.24250e+02
2219	2.26636e+02	2.21900e+03	1.86353e+00	2.24917e+02
2227	2.27312e+02	2.22700e+03	1.86334e+00	2.25583e+02
2235	2.27975e+02	2.23500e+03	1.86320e+00	2.26250e+02
2243	2.28636e+02	2.24300e+03	1.86306e+00	2.26917e+02
2251	2.29308e+02	2.25100e+03	1.86291e+00	2.27583e+02
2259	2.29979e+02	2.25900e+03	1.86275e+00	2.28250e+02
2267	2.30635e+02	2.26700e+03	1.86266e+00	2.28917e+02
2275	2.31309e+02	2.27500e+03	1.86261e+00	2.29583e+02
2283	2.31979e+02	2.28300e+03	1.86245e+00	2.30250e+02
2291	2.32652e+02	2.29100e+03	1.86232e+00	2.30917e+02
2299	2.33314e+02	2.29900e+03	1.86211e+00	2.31583e+02
2307	2.33991e+02	2.30700e+03	1.86201e+00	2.32250e+02
2315	2.34660e+02	2.31500e+03	1.86205e+00	2.32917e+02
2323	2.35327e+02	2.32300e+03	1.86202e+00	2.33583e+02
2331	2.36004e+02	2.33100e+03	1.86185e+00	2.34250e+02
2339	2.36659e+02	2.33900e+03	1.86165e+00	2.34917e+02
2347	2.37318e+02	2.34700e+03	1.86143e+00	2.35583e+02
2355	2.37984e+02	2.35500e+03	1.86131e+00	2.36250e+02
2363	2.38645e+02	2.36300e+03	1.86135e+00	2.36917e+02
2371	2.39324e+02	2.37100e+03	1.86123e+00	2.37583e+02
2379	2.39991e+02	2.37900e+03	1.86113e+00	2.38250e+02
2387	2.40655e+02	2.38700e+03	1.86099e+00	2.38917e+02
2395	2.41321e+02	2.39500e+03	1.86085e+00	2.39583e+02
2403	2.41996e+02	2.40300e+03	1.86077e+00	2.40250e+02
2411	2.42671e+02	2.41100e+03	1.86054e+00	2.40917e+02
2419	2.43346e+02	2.41900e+03	1.86042e+00	2.41583e+02
2427	2.44002e+02	2.42700e+03	1.86036e+00	2.42250e+02
2435	2.44661e+02	2.43500e+03	1.86025e+00	2.42917e+02
2443	2.45323e+02	2.44300e+03	1.86011e+00	2.43583e+02
2451	2.45994e+02	2.45100e+03	1.85992e+00	2.44250e+02
2459	2.46664e+02	2.45900e+03	1.85980e+00	2.44917e+02
2467	2.47341e+02	2.46700e+03	1.85953e+00	2.45583e+02
2475	2.48026e+02	2.47500e+03	1.85930e+00	2.46250e+02
2483	2.48689e+02	2.48300e+03	1.85917e+00	2.46917e+02
2491	2.49353e+02	2.49100e+03	1.85897e+00	2.47583e+02
2499	2.50027e+02	2.49900e+03	1.85893e+00	2.48250e+02
2507	2.50698e+02	2.50700e+03	1.85868e+00	2.48917e+02
2515	2.51371e+02	2.51500e+03	1.85846e+00	2.49583e+02
2523	2.52028e+02	2.52300e+03	1.85826e+00	2.50250e+02
2531	2.52699e+02	2.53100e+03	1.85809e+00	2.50917e+02
2539	2.53368e+02	2.53900e+03	1.85790e+00	2.51583e+02
2547	2.54049e+02	2.54700e+03	1.85753e+00	2.52250e+02
2555	2.54714e+02	2.55500e+03	1.85729e+00	2.52917e+02
2563	2.55376e+02	2.56300e+03	1.85710e+00	2.53583e+02
2571	2.56051e+02	2.57100e+03	1.85675e+00	2.54250e+02
2579	2.56710e+02	2.57900e+03	1.85643e+00	2.54917e+02
2587	2.57374e+02	2.58700e+03	1.85611e+00	2.55583e+02
2595	2.58030e+02	2.59500e+03	1.85575e+00	2.56250e+02
2603	2.58696e+02	2.60300e+03	1.85532e+00	2.56917e+02
2611	2.59353e+02	2.61100e+03	1.85499e+00	2.57583e+02
2619	2.60005e+02	2.61900e+03	1.85477e+00	2.58250e+02
2627	2.60670e+02	2.62700e+03	1.85449e+00	2.58917e+02
2635	2.61335e+02	2.63500e+03	1.85415e+00	2.59583e+02
2643	2.61989e+02	2.64300e+03	1.85378e+00	2.60250e+02
2651	2.62656e+02	2.65100e+03	1.85337e+00	2.60917e+02
2659	2.63323e+02	2.65900e+03	1.85288e+00	2.61583e+02
2667	2.63975e+02	2.66700e+03	1.85250e+00	2.62250e+02
2675	2.64643e+02	2.67500e+03	1.85205e+00	2.62917e+02
2683	2.65298e+02	2.68300e+03	1.85163e+00	2.63583e+02
2691	2.65974e+02	2.69100e+03	1.85110e+00	2.64250e+02
2699	2.66636e+02	2.69900e+03	1.85054e+00	2.64917e+02
2707	2.67272e+02	2.70700e+03	1.84994e+00	2.65583e+02
2715	2.67955e+02	2.71500e+03	1.84931e+00	2.66250e+02
2723	2.68621e+02	2.72300e+03	1.84865e+00	2.66917e+02
2731	2.69272e+02	2.73100e+03	1.84794e+00	2.67583e+02
2739	2.69944e+02	2.73900e+03	1.84723e+00	2.68250e+02
2747	2.70604e+02	2.74700e+03	1.84660e+00	2.68917e+02
2755	2.71283e+02	2.75500e+03	1.84599e+00	2.69583e+02
2763	2.71944e+02	2.76300e+03	1.84504e+00	2.70250e+02
2771	2.72620e+02	2.77100e+03	1.84418e+00	2.70917e+02
2779	2.73305e+02	2.77900e+03	1.84343e+00	2.71583e+02
2787	2.73970e+02	2.78700e+03	1.84256e+00	2.72250e+02
2795	2.74646e+02	2.79500e+03	1.84174e+00	2.72917e+02
2803	2.75320e+02	2.80300e+03	1.84089e+00	2.73583e+02
2811	2.76000e+02	2.81100e+03	1.83980e+00	2.74250e+02
2819	2.76677e+02	2.81900e+03	1.83869e+00	2.74917e+02
2827	2.77356e+02	2.82700e+03	1.83761e+00	2.75583e+02
2835	2.78041e+02	2.83500e+03	1.83639e+00	2.76250e+02
2843	2.78719e+02	2.84300e+03	1.83523e+00	2.76917e+02
2851	2.79422e+02	2.85100e+03	1.83399e+00	2.77583e+02
2859	2.80082e+02	2.85900e+03	1.83250e+00	2.78250e+02
2867	2.80753e+02	2.86700e+03	1.83120e+00	2.78917e+02
2875	2.81440e+02	2.87500e+03	1.82986e+00	2.79583e+02
2883	2.82123e+02	2.88300e+03	1.82844e+00	2.80250e+02
2891	2.82800e+02	2.89100e+03	1.82696e+00	2.80917e+02
2899	2.83473e+02	2.89900e+03	1.82532e+00	2.81583e+02
2907	2.84140e+02	2.90700e+03	1.82371e+00	2.82250e+02
2915	2.84824e+02	2.91500e+03	1.82218e+00	2.82917e+02
2923	2.85517e+02	2.92300e+03	1.82059e+00	2.83583e+02
2931	2.86258e+02	2.93100e+03	1.81883e+00	2.84250e+02
2939	2.86945e+02	2.93900e+03	1.81702e+00	2.84917e+02
2947	2.87620e+02	2.94700e+03	1.81526e+00	2.85583e+02
2955	2.88274e+02	2.95500e+03	1.81341e+00	2.86250e+02
2963	2.88984e+02	2.96300e+03	1.81149e+00	2.86917e+02
2971	2.89727e+02	2.97100e+03	1.80959e+00	2.87583e+02
2979	2.90411e+02	2.97900e+03	1.80763e+00	2.88250e+02
2987	2.91093e+02	2.98700e+03	1.80566e+00	2.88917e+02
2995	2.91758e+02	2.99500e+03	1.80360e+00	2.89583e+02
3003	2.92421e+02	3.00300e+03	1.80152e+00	2.90250e+02
3011	2.93102e+02	3.01100e+03	1.79944e+00	2.90917e+02
3019	2.93770e+02	3.01900e+03	1.79741e+00	2.91583e+02
3027	2.94466e+02	3.02700e+03	1.79532e+00	2.92250e+02
3035	2.95138e+02	3.03500e+03	1.79308e+00	2.92917e+02
3043	2.95801e+02	3.04300e+03	1.79099e+00	2.93583e+02
3051	2.96452e+02	3.05100e+03	1.78886e+00	2.94250e+02
3059	2.97142e+02	3.05900e+03	1.78675e+00	2.94917e+02
3067	2.97820e+02	3.06700e+03	1.78465e+00	2.95583e+02
3075	2.98483e+02	3.07500e+03	1.78249e+00	2.96250e+02
3083	2.99170e+02	3.08300e+03	1.78031e+00	2.96917e+02
3091	2.99824e+02	3.09100e+03	1.77808e+00	2.97583e+02
3099	3.00458e+02	3.09900e+03	1.77576e+00	2.98250e+02
3107	3.01130e+02	3.10700e+03	1.77363e+00	2.98917e+02
3115	3.01822e+02	3.11500e+03	1.77149e+00	2.99583e+02
3123	3.02483e+02	3.12300e+03	1.76933e+00	3.00250e+02
3131	3.03167e+02	3.13100e+03	1.76713e+00	3.00917e+02
3139	3.03822e+02	3.13900e+03	1.76489e+00	3.01583e+02
3147	3.04487e+02	3.14700e+03	1.76270e+00	3.02250e+02
3155	3.05176e+02	3.15500e+03	1.76048e+00	3.02917e+02
3163	3.05850e+02	3.16300e+03	1.75817e+00	3.03583e+02
3171	3.06522e+02	3.17100e+03	1.75562e+00	3.04250e+02
3179	3.07187e+02	3.17900e+03	1.75316e+00	3.04917e+02
3187	3.07837e+02	3.18700e+03	1.75076e+00	3.05583e+02
3195	3.08491e+02	3.19500e+03	1.74831e+00	3.06250e+02
3203	3.09139e+02	3.20300e+03	1.74586e+00	3.06917e+02
3211	3.09809e+02	3.21100e+03	1.74323e+00	3.07583e+02
3219	3.10477e+02	3.21900e+03	1.74042e+00	3.08250e+02
3227	3.11160e+02	3.22700e+03	1.73752e+00	3.08917e+02
3235	3.11839e+02	3.23500e+03	1.73467e+00	3.09583e+02
3243	3.12531e+02	3.24300e+03	1.73171e+00	3.10250e+02
3251	3.13222e+02	3.25100e+03	1.72863e+00	3.10917e+02
3259	3.13926e+02	3.25900e+03	1.72544e+00	3.11583e+02
3267	3.14602e+02	3.26700e+03	1.72211e+00	3.12250e+02
3275	3.15298e+02	3.27500e+03	1.71871e+00	3.12917e+02
3283	3.15989e+02	3.28300e+03	1.71501e+00	3.13583e+02
3291	3.16670e+02	3.29100e+03	1.71124e+00	3.14250e+02
3299	3.17358e+02	3.29900e+03	1.70735e+00	3.14917e+02
3307	3.18062e+02	3.30700e+03	1.70321e+00	3.15583e+02
3315	3.18815e+02	3.31500e+03	1.69885e+00	3.16250e+02
3323	3.19481e+02	3.32300e+03	1.69454e+00	3.16917e+02
3331	3.20132e+02	3.33100e+03	1.68982e+00	3.17583e+02
3339	3.20837e+02	3.33900e+03	1.68495e+00	3.18250e+02
3347	3.21490e+02	3.34700e+03	1.67978e+00	3.18917e+02
3355	3.22168e+02	3.35500e+03	1.67443e+00	3.19583e+02
3363	3.22861e+02	3.36300e+03	1.66887e+00	3.20250e+02
3371	3.23531e+02	3.37100e+03	1.66295e+00	3.20917e+02
3379	3.24205e+02	3.37900e+03	1.65690e+00	3.21583e+02
3387	3.24876e+02	3.38700e+03	1.65040e+00	3.22250e+02
3395	3.25559e+02	3.39500e+03	1.64371e+00	3.22917e+02
3403	3.26235e+02	3.40300e+03	1.63669e+00	3.23583e+02
3411	3.26915e+02	3.41100e+03	1.62943e+00	3.24250e+02
3419	3.27579e+02	3.41900e+03	1.62178e+00	3.24917e+02
3427	3.28286e+02	3.42700e+03	1.61369e+00	3.25583e+02
3435	3.28968e+02	3.43500e+03	1.60536e+00	3.26250e+02
3443	3.29650e+02	3.44300e+03	1.59666e+00	3.26917e+02
3451	3.30318e+02	3.45100e+03	1.58751e+00	3.27583e+02
3459	3.31002e+02	3.45900e+03	1.57803e+00	3.28250e+02
3467	3.31677e+02	3.46700e+03	1.56807e+00	3.28917e+02
3475	3.32359e+02	3.47500e+03	1.55778e+00	3.29583e+02
3483	3.33012e+02	3.48300e+03	1.54706e+00	3.30250e+02
3491	3.33670e+02	3.49100e+03	1.53591e+00	3.30917e+02
3499	3.34362e+02	3.49900e+03	1.52432e+00	3.31583e+02
3507	3.35044e+02	3.50700e+03	1.51237e+00	3.32250e+02
3515	3.35706e+02	3.51500e+03	1.49978e+00	3.32917e+02
3523	3.36396e+02	3.52300e+03	1.48679e+00	3.33583e+02
3531	3.37063e+02	3.53100e+03	1.47352e+00	3.34250e+02
3539	3.37733e+02	3.53900e+03	1.45979e+00	3.34917e+02
3547	3.38397e+02	3.54700e+03	1.44557e+00	3.35583e+02
3555	3.39044e+02	3.55500e+03	1.43091e+00	3.36250e+02
3563	3.39713e+02	3.56300e+03	1.41562e+00	3.36917e+02
3571	3.40384e+02	3.57100e+03	1.40009e+00	3.37583e+02
3579	3.41045e+02	3.57900e+03	1.38412e+00	3.38250e+02
3587	3.41715e+02	3.58700e+03	1.36779e+00	3.38917e+02
3595	3.42393e+02	3.59500e+03	1.35094e+00	3.39583e+02
3603	3.43119e+02	3.60300e+03	1.33367e+00	3.40250e+02
3611	3.43911e+02	3.61100e+03	1.31599e+00	3.40917e+02
3619	3.44568e+02	3.61900e+03	1.29799e+00	3.41583e+02
3627	3.45257e+02	3.62700e+03	1.27952e+00	3.42250e+02
3635	3.45938e+02	3.63500e+03	1.26070e+00	3.42917e+02
3643	3.46589e+02	3.64300e+03	1.24154e+00	3.43583e+02
3651	3.47203e+02	3.65100e+03	1.22203e+00	3.44250e+02
3659	3.47811e+02	3.65900e+03	1.20216e+00	3.44917e+02
3667	3.48459e+02	3.66700e+03	1.18203e+00	3.45583e+02
3675	3.49077e+02	3.67500e+03	1.16147e+00	3.46250e+02
3683	3.49725e+02	3.68300e+03	1.14063e+00	3.46917e+02
3691	3.50368e+02	3.69100e+03	1.11942e+00	3.47583e+02
3699	3.51007e+02	3.69900e+03	1.09798e+00	3.48250e+02
3707	3.51674e+02	3.70700e+03	1.07653e+00	3.48917e+02
3715	3.52316e+02	3.71500e+03	1.05474e+00	3.49583e+02
3723	3.52948e+02	3.72300e+03	1.03289e+00	3.50250e+02
3731	3.53603e+02	3.73100e+03	1.01081e+00	3.50917e+02
3739	3.54249e+02	3.73900e+03	9.88622e-01	3.51583e+02
3747	3.54921e+02	3.74700e+03	9.66407e-01	3.52250e+02
3755	3.55581e+02	3.75500e+03	9.43940e-01	3.52917e+02
3763	3.56249e+02	3.76300e+03	9.21603e-01	3.53583e+02
3771	3.56916e+02	3.77100e+03	8.99314e-01	3.54250e+02
3779	3.57592e+02	3.77900e+03	8.76855e-01	3.54917e+02
3787	3.58248e+02	3.78700e+03	8.54497e-01	3.55583e+02
3795	3.58926e+02	3.79500e+03	8.32203e-01	3.56250e+02
3803	3.59581e+02	3.80300e+03	8.09955e-01	3.56917e+02
3811	3.60230e+02	3.81100e+03	7.87362e-01	3.57583e+02
3819	3.60906e+02	3.81900e+03	7.64270e-01	3.58250e+02
3827	3.61584e+02	3.82700e+03	7.41705e-01	3.58917e+02
3835	3.62247e+02	3.83500e+03	7.18926e-01	3.59583e+02
3843	3.62932e+02	3.84300e+03	6.96469e-01	3.60250e+02
3851	3.63592e+02	3.85100e+03	6.74153e-01	3.60917e+02
3859	3.64263e+02	3.85900e+03	6.51901e-01	3.61583e+02
3867	3.64918e+02	3.86700e+03	6.29817e-01	3.62250e+02
3875	3.65587e+02	3.87500e+03	6.07989e-01	3.62917e+02
3883	3.66253e+02	3.88300e+03	5.86679e-01	3.63583e+02
3891	3.66914e+02	3.89100e+03	5.65632e-01	3.64250e+02
3899	3.67584e+02	3.89900e+03	5.44881e-01	3.64917e+02
3907	3.68246e+02	3.90700e+03	5.24542e-01	3.65583e+02
3915	3.68928e+02	3.91500e+03	5.04698e-01	3.66250e+02
3923	3.69584e+02	3.92300e+03	4.85271e-01	3.66917e+02
3931	3.70259e+02	3.93100e+03	4.66179e-01	3.67583e+02
3939	3.70914e+02	3.93900e+03	4.47587e-01	3.68250e+02
3947	3.71608e+02	3.94700e+03	4.29546e-01	3.68917e+02
3955	3.72272e+02	3.95500e+03	4.11960e-01	3.69583e+02
3963	3.72939e+02	3.96300e+03	3.94896e-01	3.70250e+02
3971	3.73595e+02	3.97100e+03	3.78335e-01	3.70917e+02
3979	3.74268e+02	3.97900e+03	3.62190e-01	3.71583e+02
3987	3.74932e+02	3.98700e+03	3.46516e-01	3.72250e+02
3995	3.75639e+02	3.99500e+03	3.31433e-01	3.72917e+02
4003	3.76329e+02	4.00300e+03	3.16875e-01	3.73583e+02
4011	3.77069e+02	4.01100e+03	3.02818e-01	3.74250e+02
4019	3.77803e+02	4.01900e+03	2.89206e-01	3.74917e+02
4027	3.78483e+02	4.02700e+03	2.76070e-01	3.75583e+02
4035	3.79181e+02	4.03500e+03	2.63566e-01	3.76250e+02
4043	3.79849e+02	4.04300e+03	2.51601e-01	3.76917e+02
4051	3.80508e+02	4.05100e+03	2.40106e-01	3.77583e+02
4059	3.81184e+02	4.05900e+03	2.28895e-01	3.78250e+02
4067	3.81847e+02	4.06700e+03	2.18216e-01	3.78917e+02
4075	3.82524e+02	4.07500e+03	2.08065e-01	3.79583e+02
4083	3.83215e+02	4.08300e+03	1.98289e-01	3.80250e+02
4091	3.83878e+02	4.09100e+03	1.89027e-01	3.80917e+02
4099	3.84545e+02	4.09900e+03	1.80086e-01	3.81583e+02
4107	3.85206e+02	4.10700e+03	1.71600e-01	3.82250e+02
4115	3.85856e+02	4.11500e+03	1.63530e-01	3.82917e+02
4123	3.86549e+02	4.12300e+03	1.55816e-01	3.83583e+02
4131	3.87232e+02	4.13100e+03	1.48532e-01	3.84250e+02
4139	3.87910e+02	4.13900e+03	1.41599e-01	3.84917e+02
4147	3.88583e+02	4.14700e+03	1.35043e-01	3.85583e+02
4155	3.89258e+02	4.15500e+03	1.28935e-01	3.86250e+02
4163	3.89918e+02	4.16300e+03	1.23251e-01	3.86917e+02
4171	3.90582e+02	4.17100e+03	1.17818e-01	3.87583e+02
4179	3.91220e+02	4.17900e+03	1.12658e-01	3.88250e+02
4187	3.91873e+02	4.18700e+03	1.07796e-01	3.88917e+02
4195	3.92540e+02	4.19500e+03	1.03267e-01	3.89583e+02
4203	3.93186e+02	4.20300e+03	9.91656e-02	3.90250e+02
4211	3.93809e+02	4.21100e+03	9.51761e-02	3.90917e+02
4219	3.94459e+02	4.21900e+03	9.13373e-02	3.91583e+02
4227	3.95097e+02	4.22700e+03	8.77124e-02	3.92250e+02
4235	3.95762e+02	4.23500e+03	8.48469e-02	3.92917e+02
4243	3.96458e+02	4.24300e+03	8.20889e-02	3.93583e+02
4251	3.97353e+02	4.25100e+03	7.92709e-02	3.94250e+02
4259	3.98075e+02	4.25900e+03	7.66324e-02	3.94917e+02
4267	3.98698e+02	4.26700e+03	7.42642e-02	3.95583e+02
4275	3.99200e+02	4.27500e+03	7.21472e-02	3.96250e+02
4283	3.99683e+02	4.28300e+03	7.02316e-02	3.96917e+02
4291	4.00201e+02	4.29100e+03	6.83118e-02	3.97583e+02
4299	4.00805e+02	4.29900e+03	6.65416e-02	3.98250e+02
4307	4.01443e+02	4.30700e+03	6.48893e-02	3.98917e+02
4315	4.02095e+02	4.31500e+03	6.33972e-02	3.99583e+02
4323	4.02719e+02	4.32300e+03	6.21181e-02	4.00250e+02
4331	4.03357e+02	4.33100e+03	6.08962e-02	4.00917e+02
4339	4.03985e+02	4.33900e+03	5.95655e-02	4.01583e+02
4347	4.04631e+02	4.34700e+03	5.84968e-02	4.02250e+02
4355	4.05253e+02	4.35500e+03	5.75875e-02	4.02917e+02
4363	4.05887e+02	4.36300e+03	5.67030e-02	4.03583e+02
4371	4.06535e+02	4.37100e+03	5.58442e-02	4.04250e+02
4379	4.07195e+02	4.37900e+03	5.50300e-02	4.04917e+02
4387	4.07845e+02	4.38700e+03	5.42584e-02	4.05583e+02
4395	4.08507e+02	4.39500e+03	5.35994e-02	4.06250e+02
4403	4.09162e+02	4.40300e+03	5.29988e-02	4.06917e+02
4411	4.09815e+02	4.41100e+03	5.24255e-02	4.07583e+02
4419	4.10466e+02	4.41900e+03	5.18661e-02	4.08250e+02
4427	4.11114e+02	4.42700e+03	5.14478e-02	4.08917e+02
4435	4.11774e+02	4.43500e+03	5.10487e-02	4.09583e+02
4443	4.12435e+02	4.44300e+03	5.06284e-02	4.10250e+02
4451	4.13095e+02	4.45100e+03	5.01762e-02	4.10917e+02
4459	4.13768e+02	4.45900e+03	4.97192e-02	4.11583e+02
4467	4.14445e+02	4.46700e+03	4.93550e-02	4.12250e+02
4475	4.15099e+02	4.47500e+03	4.90381e-02	4.12917e+02
4483	4.15764e+02	4.48300e+03	4.88271e-02	4.13583e+02
4491	4.16438e+02	4.49100e+03	4.86558e-02	4.14250e+02
4499	4.17099e+02	4.49900e+03	4.85683e-02	4.14917e+02
4507	4.17763e+02	4.50700e+03	4.84198e-02	4.15583e+02
4515	4.18442e+02	4.51500e+03	4.83884e-02	4.16250e+02
4523	4.19115e+02	4.52300e+03	4.83551e-02	4.16917e+02
4531	4.19790e+02	4.53100e+03	4.81662e-02	4.17583e+02
4539	4.20455e+02	4.53900e+03	4.79607e-02	4.18250e+02
4547	4.21113e+02	4.54700e+03	4.77821e-02	4.18917e+02
4555	4.21785e+02	4.55500e+03	4.76972e-02	4.19583e+02
4563	4.22446e+02	4.56300e+03	4.75715e-02	4.20250e+02
4571	4.23125e+02	4.57100e+03	4.74450e-02	4.20917e+02
4579	4.23802e+02	4.57900e+03	4.73787e-02	4.21583e+02
4587	4.24467e+02	4.58700e+03	4.72959e-02	4.22250e+02
4595	4.25129e+02	4.59500e+03	4.73430e-02	4.22917e+02
4603	4.25805e+02	4.60300e+03	4.72956e-02	4.23583e+02
4611	4.26484e+02	4.61100e+03	4.71441e-02	4.24250e+02
4619	4.27156e+02	4.61900e+03	4.70859e-02	4.24917e+02
4627	4.27838e+02	4.62700e+03	4.70798e-02	4.25583e+02
4635	4.28516e+02	4.63500e+03	4.70047e-02	4.26250e+02
4643	4.29037e+02	4.64300e+03	4.68745e-02	4.26917e+02
4651	4.29584e+02	4.65100e+03	4.64388e-02	4.27583e+02
4659	4.30193e+02	4.65900e+03	4.64974e-02	4.28250e+02
4667	4.30843e+02	4.66700e+03	4.74439e-02	4.28917e+02
4675	4.31476e+02	4.67500e+03	4.72297e-02	4.29583e+02
4683	4.32117e+02	4.68300e+03	4.69954e-02	4.30250e+02
4691	4.32780e+02	4.69100e+03	4.70186e-02	4.30917e+02
4699	4.33422e+02	4.69900e+03	4.67390e-02	4.31583e+02
4707	4.34080e+02	4.70700e+03	4.68824e-02	4.32250e+02
4715	4.34726e+02	4.71500e+03	4.68799e-02	4.32917e+02
4723	4.35374e+02	4.72300e+03	4.62551e-02	4.33583e+02
4731	4.36039e+02	4.73100e+03	4.66698e-02	4.34250e+02
4739	4.36691e+02	4.73900e+03	4.70866e-02	4.34917e+02
4747	4.37348e+02	4.74700e+03	4.66663e-02	4.35583e+02
4755	4.37994e+02	4.75500e+03	4.64914e-02	4.36250e+02
4763	4.38648e+02	4.76300e+03	4.65667e-02	4.36917e+02
4771	4.39295e+02	4.77100e+03	4.66296e-02	4.37583e+02
4779	4.39946e+02	4.77900e+03	4.67042e-02	4.38250e+02
4787	4.40605e+02	4.78700e+03	4.65302e-02	4.38917e+02
4795	4.41258e+02	4.79500e+03	4.65259e-02	4.39583e+02
4803	4.41898e+02	4.80300e+03	4.65483e-02	4.40250e+02
4811	4.42558e+02	4.81100e+03	4.64753e-02	4.40917e+02
4819	4.43208e+02	4.81900e+03	4.59147e-02	4.41583e+02
4827	4.43858e+02	4.82700e+03	4.58287e-02	4.42250e+02
4835	4.44514e+02	4.83500e+03	4.62035e-02	4.42917e+02
4843	4.45161e+02	4.84300e+03	4.66486e-02	4.43583e+02
4851	4.45802e+02	4.85100e+03	4.68531e-02	4.44250e+02
4859	4.46451e+02	4.85900e+03	4.65399e-02	4.44917e+02
4867	4.47107e+02	4.86700e+03	4.64520e-02	4.45583e+02
4875	4.47742e+02	4.87500e+03	4.63464e-02	4.46250e+02
4883	4.48398e+02	4.88300e+03	4.65329e-02	4.46917e+02
4891	4.49050e+02	4.89100e+03	4.65190e-02	4.47583e+02
4899	4.49692e+02	4.89900e+03	4.63151e-02	4.48250e+02
4907	4.50350e+02	4.90700e+03	4.62586e-02	4.48917e+02
4915	4.50985e+02	4.91500e+03	4.62130e-02	4.49583e+02
4923	4.51636e+02	4.92300e+03	4.62049e-02	4.50250e+02
4931	4.52289e+02	4.93100e+03	4.61440e-02	4.50917e+02
4939	4.52935e+02	4.93900e+03	4.61524e-02	4.51583e+02
4947	4.53584e+02	4.94700e+03	4.61329e-02	4.52250e+02
4955	4.54227e+02	4.95500e+03	4.61806e-02	4.52917e+02
4963	4.54879e+02	4.96300e+03	4.61989e-02	4.53583e+02
4971	4.55539e+02	4.97100e+03	4.61643e-02	4.54250e+02
4979	4.56191e+02	4.97900e+03	4.61015e-02	4.54917e+02
4987	4.56846e+02	4.98700e+03	4.59840e-02	4.55583e+02
4995	4.57505e+02	4.99500e+03	4.60722e-02	4.56250e+02
5003	4.58167e+02	5.00300e+03	4.60516e-02	4.56917e+02
5011	4.58823e+02	5.01100e+03	4.60748e-02	4.57583e+02
5019	4.59479e+02	5.01900e+03	4.60914e-02	4.58250e+02
5027	4.60133e+02	5.02700e+03	4.61399e-02	4.58917e+02
5035	4.60799e+02	5.03500e+03	4.62107e-02	4.59583e+02
5043	4.61456e+02	5.04300e+03	4.61277e-02	4.60250e+02
5051	4.62114e+02	5.05100e+03	4.61332e-02	4.60917e+02
5059	4.62770e+02	5.05900e+03	4.61161e-02	4.61583e+02
5067	4.63426e+02	5.06700e+03	4.61781e-02	4.62250e+02
5075	4.64086e+02	5.07500e+03	4.60898e-02	4.62917e+02
5083	4.64743e+02	5.08300e+03	4.60420e-02	4.63583e+02
5091	4.65383e+02	5.09100e+03	4.59357e-02	4.64250e+02
5099	4.66058e+02	5.09900e+03	4.60167e-02	4.64917e+02
5107	4.66709e+02	5.10700e+03	4.61301e-02	4.65583e+02
5115	4.67352e+02	5.11500e+03	4.61472e-02	4.66250e+02
5123	4.68018e+02	5.12300e+03	4.61147e-02	4.66917e+02
5131	4.68676e+02	5.13100e+03	4.60907e-02	4.67583e+02
5139	4.69316e+02	5.13900e+03	4.61945e-02	4.68250e+02
5147	4.69974e+02	5.14700e+03	4.61115e-02	4.68917e+02
5155	4.70637e+02	5.15500e+03	4.60449e-02	4.69583e+02
5163	4.71287e+02	5.16300e+03	4.59686e-02	4.70250e+02
5171	4.71943e+02	5.17100e+03	4.58777e-02	4.70917e+02
5179	4.72583e+02	5.17900e+03	4.58871e-02	4.71583e+02
5187	4.73248e+02	5.18700e+03	4.59693e-02	4.72250e+02
5195	4.73899e+02	5.19500e+03	4.60221e-02	4.72917e+02
5203	4.74544e+02	5.20300e+03	4.60453e-02	4.73583e+02
5211	4.75211e+02	5.21100e+03	4.60501e-02	4.74250e+02
5219	4.75863e+02	5.21900e+03	4.59443e-02	4.74917e+02
5227	4.76520e+02	5.22700e+03	4.59743e-02	4.75583e+02
5235	4.77176e+02	5.23500e+03	4.60695e-02	4.76250e+02
5243	4.77828e+02	5.24300e+03	4.60573e-02	4.76917e+02
5251	4.78485e+02	5.25100e+03	4.59020e-02	4.77583e+02
5259	4.79141e+02	5.25900e+03	4.58942e-02	4.78250e+02
5267	4.79801e+02	5.26700e+03	4.59595e-02	4.78917e+02
5275	4.80457e+02	5.27500e+03	4.58993e-02	4.79583e+02
5283	4.81122e+02	5.28300e+03	4.59006e-02	4.80250e+02
5291	4.81780e+02	5.29100e+03	4.58459e-02	4.80917e+02
5299	4.82446e+02	5.29900e+03	4.58744e-02	4.81583e+02
5307	4.83103e+02	5.30700e+03	4.59788e-02	4.82250e+02
5315	4.83755e+02	5.31500e+03	4.60058e-02	4.82917e+02
5323	4.84411e+02	5.32300e+03	4.59244e-02	4.83583e+02
5331	4.85079e+02	5.33100e+03	4.59973e-02	4.84250e+02
5339	4.85743e+02	5.33900e+03	4.60320e-02	4.84917e+02
5347	4.86389e+02	5.34700e+03	4.59035e-02	4.85583e+02
5355	4.87057e+02	5.35500e+03	4.58805e-02	4.86250e+02
5363	4.87714e+02	5.36300e+03	4.58267e-02	4.86917e+02
5371	4.88376e+02	5.37100e+03	4.58130e-02	4.87583e+02
5379	4.89034e+02	5.37900e+03	4.58927e-02	4.88250e+02
5387	4.89686e+02	5.38700e+03	4.58431e-02	4.88917e+02
5395	4.90362e+02	5.39500e+03	4.58003e-02	4.89583e+02
5403	4.91028e+02	5.40300e+03	4.57315e-02	4.90250e+02
5411	4.91691e+02	5.41100e+03	4.57980e-02	4.90917e+02
5419	4.92347e+02	5.41900e+03	4.58678e-02	4.91583e+02
5427	4.93008e+02	5.42700e+03	4.57402e-02	4.92250e+02
5435	4.93671e+02	5.43500e+03	4.57458e-02	4.92917e+02
5443	4.94331e+02	5.44300e+03	4.56267e-02	4.93583e+02
5451	4.94983e+02	5.45100e+03	4.56148e-02	4.94250e+02
5459	4.95643e+02	5.45900e+03	4.56562e-02	4.94917e+02
5467	4.96303e+02	5.46700e+03	4.55632e-02	4.95583e+02
5475	4.96962e+02	5.47500e+03	4.55884e-02	4.96250e+02
5483	4.97635e+02	5.48300e+03	4.56389e-02	4.96917e+02
5491	4.98283e+02	5.49100e+03	4.56490e-02	4.97583e+02
5499	4.98965e+02	5.49900e+03	4.55381e-02	4.98250e+02
5507	4.99626e+02	5.50700e+03	4.54993e-02	4.98917e+02
5515	5.00275e+02	5.51500e+03	4.55272e-02	4.99583e+02
5523	5.00935e+02	5.52300e+03	4.55916e-02	5.00250e+02
5531	5.01614e+02	5.53100e+03	4.55838e-02	5.00917e+02
5539	5.02268e+02	5.53900e+03	4.55910e-02	5.01583e+02
5547	5.02916e+02	5.54700e+03	4.55485e-02	5.02250e+02
5555	5.03589e+02	5.55500e+03	4.56220e-02	5.02917e+02
5563	5.04238e+02	5.56300e+03	4.57719e-02	5.03583e+02
5571	5.04893e+02	5.57100e+03	4.59077e-02	5.04250e+02
5579	5.05541e+02	5.57900e+03	4.57353e-02	5.04917e+02
5587	5.06200e+02	5.58700e+03	4.56322e-02	5.05583e+02
5595	5.06846e+02	5.59500e+03	4.55981e-02	5.06250e+02
5603	5.07515e+02	5.60300e+03	4.55420e-02	5.06917e+02
5611	5.08168e+02	5.61100e+03	4.56115e-02	5.07583e+02
5619	5.08818e+02	5.61900e+03	4.57486e-02	5.08250e+02
5627	5.09470e+02	5.62700e+03	4.57659e-02	5.08917e+02
5635	5.10120e+02	5.63500e+03	4.58104e-02	5.09583e+02
5643	5.10793e+02	5.64300e+03	4.57592e-02	5.10250e+02
5651	5.11443e+02	5.65100e+03	4.56935e-02	5.10917e+02
5659	5.12096e+02	5.65900e+03	4.56615e-02	5.11583e+02
5667	5.12755e+02	5.66700e+03	4.57825e-02	5.12250e+02
5675	5.13417e+02	5.67500e+03	4.58181e-02	5.12917e+02
5683	5.14067e+02	5.68300e+03	4.57878e-02	5.13583e+02
5691	5.14736e+02	5.69100e+03	4.57583e-02	5.14250e+02
5699	5.15404e+02	5.69900e+03	4.57659e-02	5.14917e+02
5707	5.16057e+02	5.70700e+03	4.58614e-02	5.15583e+02
5715	5.16718e+02	5.71500e+03	4.57714e-02	5.16250e+02
5723	5.17388e+02	5.72300e+03	4.57315e-02	5.16917e+02
5731	5.18044e+02	5.73100e+03	4.57014e-02	5.17583e+02
5739	5.18705e+02	5.73900e+03	4.56516e-02	5.18250e+02
5747	5.19363e+02	5.74700e+03	4.55474e-02	5.18917e+02
5755	5.20019e+02	5.75500e+03	4.55802e-02	5.19583e+02
5763	5.20688e+02	5.76300e+03	4.55799e-02	5.20250e+02
5771	5.21345e+02	5.77100e+03	4.55388e-02	5.20917e+02
5779	5.22001e+02	5.77900e+03	4.54995e-02	5.21583e+02
5787	5.22671e+02	5.78700e+03	4.55120e-02	5.22250e+02
5795	5.23329e+02	5.79500e+03	4.54727e-02	5.22917e+02
5803	5.23992e+02	5.80300e+03	4.55659e-02	5.23583e+02
5811	5.24648e+02	5.81100e+03	4.54498e-02	5.24250e+02
5819	5.25301e+02	5.81900e+03	4.54600e-02	5.24917e+02
5827	5.25975e+02	5.82700e+03	4.55354e-02	5.25583e+02
5835	5.26618e+02	5.83500e+03	4.54619e-02	5.26250e+02
5843	5.27292e+02	5.84300e+03	4.53895e-02	5.26917e+02
5851	5.27950e+02	5.85100e+03	4.54106e-02	5.27583e+02
5859	5.28613e+02	5.85900e+03	4.55165e-02	5.28250e+02
5867	5.29270e+02	5.86700e+03	4.56308e-02	5.28917e+02
5875	5.29919e+02	5.87500e+03	4.56743e-02	5.29583e+02
5883	5.30576e+02	5.88300e+03	4.56651e-02	5.30250e+02
5891	5.31242e+02	5.89100e+03	4.57928e-02	5.30917e+02
5899	5.31896e+02	5.89900e+03	4.57313e-02	5.31583e+02
5907	5.32561e+02	5.90700e+03	4.56851e-02	5.32250e+02
5915	5.33222e+02	5.91500e+03	4.56634e-02	5.32917e+02
5923	5.33865e+02	5.92300e+03	4.56564e-02	5.33583e+02
5931	5.34524e+02	5.93100e+03	4.57164e-02	5.34250e+02
5939	5.35182e+02	5.93900e+03	4.56323e-02	5.34917e+02
5947	5.35850e+02	5.94700e+03	4.55126e-02	5.35583e+02
5955	5.36520e+02	5.95500e+03	4.54740e-02	5.36250e+02
5963	5.37175e+02	5.96300e+03	4.55616e-02	5.36917e+02
5971	5.37846e+02	5.97100e+03	4.57126e-02	5.37583e+02
5979	5.38506e+02	5.97900e+03	4.56572e-02	5.38250e+02
5987	5.39173e+02	5.98700e+03	4.54358e-02	5.38917e+02
5995	5.39832e+02	5.99500e+03	4.54529e-02	5.39583e+02
6003	5.40502e+02	6.00300e+03	4.56588e-02	5.40250e+02
6011	5.41166e+02	6.01100e+03	4.55850e-02	5.40917e+02
6019	5.41834e+02	6.01900e+03	4.55767e-02	5.41583e+02
6027	5.42503e+02	6.02700e+03	4.55431e-02	5.42250e+02
6035	5.43171e+02	6.03500e+03	4.55276e-02	5.42917e+02
6043	5.43831e+02	6.04300e+03	4.55670e-02	5.43583e+02
6051	5.44499e+02	6.05100e+03	4.55908e-02	5.44250e+02
6059	5.45162e+02	6.05900e+03	4.55674e-02	5.44917e+02
6067	5.45821e+02	6.06700e+03	4.55658e-02	5.45583e+02
6075	5.46490e+02	6.07500e+03	4.56548e-02	5.46250e+02
6083	5.47158e+02	6.08300e+03	4.57129e-02	5.46917e+02
6091	5.47822e+02	6.09100e+03	4.55319e-02	5.47583e+02
6099	5.48489e+02	6.09900e+03	4.54831e-02	5.48250e+02
6107	5.49155e+02	6.10700e+03	4.55784e-02	5.48917e+02
6115	5.49823e+02	6.11500e+03	4.56068e-02	5.49583e+02
6123	5.50487e+02	6.12300e+03	4.55574e-02	5.50250e+02
6131	5.51156e+02	6.13100e+03	4.55697e-02	5.50917e+02
6139	5.51824e+02	6.13900e+03	4.55119e-02	5.51583e+02
6147	5.52491e+02	6.14700e+03	4.54653e-02	5.52250e+02
6155	5.53156e+02	6.15500e+03	4.54853e-02	5.52917e+02
6163	5.53826e+02	6.16300e+03	4.55286e-02	5.53583e+02
6171	5.54486e+02	6.17100e+03	4.55498e-02	5.54250e+02
6179	5.55151e+02	6.17900e+03	4.56133e-02	5.54917e+02
6187	5.55821e+02	6.18700e+03	4.56177e-02	5.55583e+02
6195	5.56474e+02	6.19500e+03	4.55506e-02	5.56250e+02
6203	5.57128e+02	6.20300e+03	4.54954e-02	5.56917e+02
6211	5.57799e+02	6.21100e+03	4.54138e-02	5.57583e+02
6219	5.58462e+02	6.21900e+03	4.55399e-02	5.58250e+02
6227	5.59128e+02	6.22700e+03	4.55517e-02	5.58917e+02
6235	5.59798e+02	6.23500e+03	4.55316e-02	5.59583e+02
6243	5.60450e+02	6.24300e+03	4.55082e-02	5.60250e+02
6251	5.61118e+02	6.25100e+03	4.55089e-02	5.60917e+02
6259	5.61777e+02	6.25900e+03	4.56197e-02	5.61583e+02
6267	5.62436e+02	6.26700e+03	4.56668e-02	5.62250e+02
6275	5.63113e+02	6.27500e+03	4.55922e-02	5.62917e+02
6283	5.63785e+02	6.28300e+03	4.55516e-02	5.63583e+02
6291	5.64439e+02	6.29100e+03	4.55550e-02	5.64250e+02
6299	5.65106e+02	6.29900e+03	4.56592e-02	5.64917e+02
6307	5.65774e+02	6.30700e+03	4.54932e-02	5.65583e+02
6315	5.66443e+02	6.31500e+03	4.55574e-02	5.66250e+02
6323	5.67111e+02	6.32300e+03	4.55823e-02	5.66917e+02
6331	5.67795e+02	6.33100e+03	4.55269e-02	5.67583e+02
6339	5.68461e+02	6.33900e+03	4.55238e-02	5.68250e+02
6347	5.69139e+02	6.34700e+03	4.54795e-02	5.68917e+02
6355	5.69811e+02	6.35500e+03	4.55166e-02	5.69583e+02
6363	5.70489e+02	6.36300e+03	4.55168e-02	5.70250e+02
6371	5.71178e+02	6.37100e+03	4.54766e-02	5.70917e+02
6379	5.71852e+02	6.37900e+03	4.53987e-02	5.71583e+02
6387	5.72545e+02	6.38700e+03	4.54841e-02	5.72250e+02
6395	5.73218e+02	6.39500e+03	4.55344e-02	5.72917e+02
6403	5.73903e+02	6.40300e+03	4.55476e-02	5.73583e+02
6411	5.74579e+02	6.41100e+03	4.54545e-02	5.74250e+02
6419	5.75269e+02	6.41900e+03	4.54864e-02	5.74917e+02
6427	5.75938e+02	6.42700e+03	4.55167e-02	5.75583e+02
6435	5.76622e+02	6.43500e+03	4.55616e-02	5.76250e+02
6443	5.77297e+02	6.44300e+03	4.55023e-02	5.76917e+02
6451	5.77977e+02	6.45100e+03	4.54919e-02	5.77583e+02
6459	5.78667e+02	6.45900e+03	4.54811e-02	5.78250e+02
6467	5.79329e+02	6.46700e+03	4.54981e-02	5.78917e+02
6475	5.80009e+02	6.47500e+03	4.54606e-02	5.79583e+02
6483	5.80694e+02	6.48300e+03	4.54915e-02	5.80250e+02
6491	5.81381e+02	6.49100e+03	4.55592e-02	5.80917e+02
6499	5.82053e+02	6.49900e+03	4.55172e-02	5.81583e+02
6507	5.82740e+02	6.50700e+03	4.54702e-02	5.82250e+02
6515	5.83423e+02	6.51500e+03	4.54237e-02	5.82917e+02
6523	5.84105e+02	6.52300e+03	4.54429e-02	5.83583e+02
6531	5.84774e+02	6.53100e+03	4.55004e-02	5.84250e+02
6539	5.85460e+02	6.53900e+03	4.55475e-02	5.84917e+02
6547	5.86153e+02	6.54700e+03	4.55255e-02	5.85583e+02
6555	5.86804e+02	6.55500e+03	4.55367e-02	5.86250e+02
6563	5.87480e+02	6.56300e+03	4.55776e-02	5.86917e+02
6571	5.88158e+02	6.57100e+03	4.55656e-02	5.87583e+02
6579	5.88827e+02	6.57900e+03	4.55096e-02	5.88250e+02
6587	5.89495e+02	6.58700e+03	4.53877e-02	5.88917e+02
6595	5.90162e+02	6.59500e+03	4.54017e-02	5.89583e+02
6603	5.90836e+02	6.60300e+03	4.53899e-02	5.90250e+02
6611	5.91504e+02	6.61100e+03	4.53869e-02	5.90917e+02
6619	5.92196e+02	6.61900e+03	4.52880e-02	5.91583e+02
6627	5.92884e+02	6.62700e+03	4.53184e-02	5.92250e+02
6635	5.93546e+02	6.63500e+03	4.54724e-02	5.92917e+02
6643	5.94230e+02	6.64300e+03	4.54191e-02	5.93583e+02
6651	5.94906e+02	6.65100e+03	4.54321e-02	5.94250e+02
6659	5.95578e+02	6.65900e+03	4.53646e-02	5.94917e+02
6667	5.96242e+02	6.66700e+03	4.53024e-02	5.95583e+02
6675	5.96912e+02	6.67500e+03	4.52200e-02	5.96250e+02
6683	5.97583e+02	6.68300e+03	4.52386e-02	5.96917e+02
6691	5.98267e+02	6.69100e+03	4.51782e-02	5.97583e+02
6699	5.98934e+02	6.69900e+03	4.52026e-02	5.98250e+02
6707	5.99599e+02	6.70700e+03	4.52715e-02	5.98917e+02
6715	6.00275e+02	6.71500e+03	4.52027e-02	5.99583e+02
6723	6.00954e+02	6.72300e+03	4.51251e-02	6.00250e+02
6731	6.01622e+02	6.73100e+03	4.51714e-02	6.00917e+02
6739	6.02287e+02	6.73900e+03	4.52609e-02	6.01583e+02
6747	6.02948e+02	6.74700e+03	4.52012e-02	6.02250e+02
6755	6.03603e+02	6.75500e+03	4.51354e-02	6.02917e+02
6763	6.04261e+02	6.76300e+03	4.51258e-02	6.03583e+02
6771	6.04914e+02	6.77100e+03	4.50216e-02	6.04250e+02
6779	6.05567e+02	6.77900e+03	4.50920e-02	6.04917e+02
6787	6.06227e+02	6.78700e+03	4.51051e-02	6.05583e+02
6795	6.06882e+02	6.79500e+03	4.51015e-02	6.06250e+02
6803	6.07561e+02	6.80300e+03	4.50030e-02	6.06917e+02
6811	6.08220e+02	6.81100e+03	4.50631e-02	6.07583e+02
6819	6.08875e+02	6.81900e+03	4.50268e-02	6.08250e+02
6827	6.09554e+02	6.82700e+03	4.51072e-02	6.08917e+02
6835	6.10229e+02	6.83500e+03	4.50938e-02	6.09583e+02
6843	6.10886e+02	6.84300e+03	4.51298e-02	6.10250e+02
6851	6.11558e+02	6.85100e+03	4.51372e-02	6.10917e+02
6859	6.12212e+02	6.85900e+03	4.51516e-02	6.11583e+02
6867	6.12871e+02	6.86700e+03	4.51547e-02	6.12250e+02
6875	6.13538e+02	6.87500e+03	4.50957e-02	6.12917e+02
6883	6.14192e+02	6.88300e+03	4.50497e-02	6.13583e+02
6891	6.14862e+02	6.89100e+03	4.50494e-02	6.14250e+02
6899	6.15522e+02	6.89900e+03	4.50380e-02	6.14917e+02
6907	6.16186e+02	6.90700e+03	4.50327e-02	6.15583e+02
6915	6.16852e+02	6.91500e+03	4.49337e-02	6.16250e+02
6923	6.17506e+02	6.92300e+03	4.48997e-02	6.16917e+02
6931	6.18165e+02	6.93100e+03	4.49327e-02	6.17583e+02
6939	6.18832e+02	6.93900e+03	4.50259e-02	6.18250e+02
6947	6.19494e+02	6.94700e+03	4.50514e-02	6.18917e+02
6955	6.20157e+02	6.95500e+03	4.49403e-02	6.19583e+02
6963	6.20799e+02	6.96300e+03	4.49004e-02	6.20250e+02
6971	6.21472e+02	6.97100e+03	4.49094e-02	6.20917e+02
6979	6.22121e+02	6.97900e+03	4.49945e-02	6.21583e+02
6987	6.22782e+02	6.98700e+03	4.49693e-02	6.22250e+02
6995	6.23454e+02	6.99500e+03	4.48361e-02	6.22917e+02
7003	6.24122e+02	7.00300e+03	4.48169e-02	6.23583e+02
7011	6.24781e+02	7.01100e+03	4.48911e-02	6.24250e+02
7019	6.25444e+02	7.01900e+03	4.48725e-02	6.24917e+02
7027	6.26106e+02	7.02700e+03	4.48422e-02	6.25583e+02
7035	6.26767e+02	7.03500e+03	4.48115e-02	6.26250e+02
7043	6.27432e+02	7.04300e+03	4.47878e-02	6.26917e+02
7051	6.28094e+02	7.05100e+03	4.48201e-02	6.27583e+02
7059	6.28747e+02	7.05900e+03	4.47943e-02	6.28250e+02
7067	6.29407e+02	7.06700e+03	4.48076e-02	6.28917e+02
7075	6.30075e+02	7.07500e+03	4.48134e-02	6.29583e+02
7083	6.30717e+02	7.08300e+03	4.48255e-02	6.30250e+02
7091	6.31375e+02	7.09100e+03	4.48854e-02	6.30917e+02
7099	6.32038e+02	7.09900e+03	4.47448e-02	6.31583e+02
7107	6.32687e+02	7.10700e+03	4.47163e-02	6.32250e+02
7115	6.33352e+02	7.11500e+03	4.47184e-02	6.32917e+02
7123	6.34014e+02	7.12300e+03	4.47957e-02	6.33583e+02
7131	6.34674e+02	7.13100e+03	4.48169e-02	6.34250e+02
7139	6.35345e+02	7.13900e+03	4.48988e-02	6.34917e+02
7147	6.36000e+02	7.14700e+03	4.50022e-02	6.35583e+02
7155	6.36660e+02	7.15500e+03	4.48131e-02	6.36250e+02
7163	6.37327e+02	7.16300e+03	4.45867e-02	6.36917e+02
7171	6.37998e+02	7.17100e+03	4.47806e-02	6.37583e+02
7179	6.38661e+02	7.17900e+03	4.48949e-02	6.38250e+02
7187	6.39320e+02	7.18700e+03	4.49164e-02	6.38917e+02
7195	6.39988e+02	7.19500e+03	4.48680e-02	6.39583e+02
7203	6.40654e+02	7.20300e+03	4.47459e-02	6.40250e+02
7211	6.41302e+02	7.21100e+03	4.46864e-02	6.40917e+02
7219	6.41969e+02	7.21900e+03	4.47515e-02	6.41583e+02
7227	6.42628e+02	7.22700e+03	4.47655e-02	6.42250e+02
7235	6.43294e+02	7.23500e+03	4.46923e-02	6.42917e+02
7243	6.43968e+02	7.24300e+03	4.46126e-02	6.43583e+02
7251	6.44637e+02	7.25100e+03	4.46852e-02	6.44250e+02
7259	6.45304e+02	7.25900e+03	4.47028e-02	6.44917e+02
7267	6.45970e+02	7.26700e+03	4.45960e-02	6.45583e+02
7275	6.46628e+02	7.27500e+03	4.46678e-02	6.46250e+02
7283	6.47294e+02	7.28300e+03	4.47050e-02	6.46917e+02
7291	6.47966e+02	7.29100e+03	4.46573e-02	6.47583e+02
7299	6.48632e+02	7.29900e+03	4.46510e-02	6.48250e+02
7307	6.49299e+02	7.30700e+03	4.47315e-02	6.48917e+02
7315	6.49960e+02	7.31500e+03	4.47273e-02	6.49583e+02
7323	6.50627e+02	7.32300e+03	4.46290e-02	6.50250e+02
7331	6.51296e+02	7.33100e+03	4.46025e-02	6.50917e+02
7339	6.51957e+02	7.33900e+03	4.45410e-02	6.51583e+02
7347	6.52627e+02	7.34700e+03	4.45256e-02	6.52250e+02
7355	6.53288e+02	7.35500e+03	4.45409e-02	6.52917e+02
7363	6.53967e+02	7.36300e+03	4.45269e-02	6.53583e+02
7371	6.54628e+02	7.37100e+03	4.44975e-02	6.54250e+02
7379	6.55291e+02	7.37900e+03	4.45381e-02	6.54917e+02
7387	6.55954e+02	7.38700e+03	4.45356e-02	6.55583e+02
7395	6.56618e+02	7.39500e+03	4.45731e-02	6.56250e+02
7403	6.57273e+02	7.40300e+03	4.46500e-02	6.56917e+02
7411	6.57943e+02	7.41100e+03	4.46715e-02	6.57583e+02
7419	6.58614e+02	7.41900e+03	4.46130e-02	6.58250e+02
7427	6.59281e+02	7.42700e+03	4.45423e-02	6.58917e+02
7435	6.59947e+02	7.43500e+03	4.45410e-02	6.59583e+02
7443	6.60604e+02	7.44300e+03	4.44810e-02	6.60250e+02
7451	6.61279e+02	7.45100e+03	4.44369e-02	6.60917e+02
7459	6.61943e+02	7.45900e+03	4.44903e-02	6.61583e+02
7467	6.62599e+02	7.46700e+03	4.44729e-02	6.62250e+02
7475	6.63275e+02	7.47500e+03	4.45047e-02	6.62917e+02
7483	6.63952e+02	7.48300e+03	4.44260e-02	6.63583e+02
7491	6.64614e+02	7.49100e+03	4.44445e-02	6.64250e+02
7499	6.65279e+02	7.49900e+03	4.46098e-02	6.64917e+02
7507	6.65950e+02	7.50700e+03	4.46769e-02	6.65583e+02
7515	6.66614e+02	7.51500e+03	4.47268e-02	6.66250e+02
7523	6.67285e+02	7.52300e+03	4.47555e-02	6.66917e+02
7531	6.67950e+02	7.53100e+03	4.46973e-02	6.67583e+02
7539	6.68620e+02	7.53900e+03	4.46509e-02	6.68250e+02
7547	6.69295e+02	7.54700e+03	4.46646e-02	6.68917e+02
7555	6.69961e+02	7.55500e+03	4.46083e-02	6.69583e+02
7563	6.70627e+02	7.56300e+03	4.45572e-02	6.70250e+02
7571	6.71288e+02	7.57100e+03	4.45142e-02	6.70917e+02
7579	6.71956e+02	7.57900e+03	4.45886e-02	6.71583e+02
7587	6.72616e+02	7.58700e+03	4.45562e-02	6.72250e+02
7595	6.73284e+02	7.59500e+03	4.45376e-02	6.72917e+02
7603	6.73947e+02	7.60300e+03	4.45236e-02	6.73583e+02
7611	6.74624e+02	7.61100e+03	4.45279e-02	6.74250e+02
7619	6.75289e+02	7.61900e+03	4.45120e-02	6.74917e+02
7627	6.75951e+02	7.62700e+03	4.45039e-02	6.75583e+02
7635	6.76618e+02	7.63500e+03	4.43880e-02	6.76250e+02
7643	6.77281e+02	7.64300e+03	4.42617e-02	6.76917e+02
7651	6.77944e+02	7.65100e+03	4.44745e-02	6.77583e+02
7659	6.78608e+02	7.65900e+03	4.43820e-02	6.78250e+02
7667	6.79276e+02	7.66700e+03	4.43997e-02	6.78917e+02
7675	6.79947e+02	7.67500e+03	4.44769e-02	6.79583e+02
7683	6.80619e+02	7.68300e+03	4.44284e-02	6.80250e+02
7691	6.81273e+02	7.69100e+03	4.44286e-02	6.80917e+02
7699	6.81949e+02	7.69900e+03	4.44439e-02	6.81583e+02
7707	6.82621e+02	7.70700e+03	4.44996e-02	6.82250e+02
7715	6.83293e+02	7.71500e+03	4.44468e-02	6.82917e+02
7723	6.83959e+02	7.72300e+03	4.43142e-02	6.83583e+02
7731	6.84628e+02	7.73100e+03	4.43635e-02	6.84250e+02
7739	6.85307e+02	7.73900e+03	4.44615e-02	6.84917e+02
7747	6.85973e+02	7.74700e+03	4.43959e-02	6.85583e+02
7755	6.86652e+02	7.75500e+03	4.43842e-02	6.86250e+02
7763	6.87328e+02	7.76300e+03	4.44068e-02	6.86917e+02
7771	6.88002e+02	7.77100e+03	4.44415e-02	6.87583e+02
7779	6.88676e+02	7.77900e+03	4.43521e-02	6.88250e+02
7787	6.89349e+02	7.78700e+03	4.43202e-02	6.88917e+02
7795	6.90010e+02	7.79500e+03	4.43371e-02	6.89583e+02
7803	6.90684e+02	7.80300e+03	4.43547e-02	6.90250e+02
7811	6.91343e+02	7.81100e+03	4.43423e-02	6.90917e+02
7819	6.92013e+02	7.81900e+03	4.43328e-02	6.91583e+02
7827	6.92688e+02	7.82700e+03	4.42366e-02	6.92250e+02
7835	6.93348e+02	7.83500e+03	4.42116e-02	6.92917e+02
7843	6.94024e+02	7.84300e+03	4.42387e-02	6.93583e+02
7851	6.94698e+02	7.85100e+03	4.43303e-02	6.94250e+02
7859	6.95370e+02	7.85900e+03	4.42875e-02	6.94917e+02
7867	6.96039e+02	7.86700e+03	4.41049e-02	6.95583e+02
7875	6.96708e+02	7.87500e+03	4.40854e-02	6.96250e+02
7883	6.97384e+02	7.88300e+03	4.41807e-02	6.96917e+02
7891	6.98048e+02	7.89100e+03	4.42007e-02	6.97583e+02
7899	6.98566e+02	7.89900e+03	4.42643e-02	6.98250e+02
7907	6.99030e+02	7.90700e+03	4.42562e-02	6.98917e+02
7915	6.99388e+02	7.91500e+03	4.41065e-02	6.99583e+02
7920	6.99561e+02	7.92000e+03	4.40703e-02	7.00000e+02