File: Experiments/TGA/TUBS/tga_nonisotherm/tga_dynamic_n2_dyn10_powder_1mg_r1.txt
index	ts	t	weight	tr
[#]	[°C]	[s]	[mg]	[°C]
843	1.30647e+02	8.43000e+02	1.00858e+00	1.30500e+02
847	1.31318e+02	8.47000e+02	1.00863e+00	1.31167e+02
851	1.31999e+02	8.51000e+02	1.00865e+00	1.31833e+02
855	1.32672e+02	8.55000e+02	1.00864e+00	1.32500e+02
859	1.33328e+02	8.59000e+02	1.00854e+00	1.33167e+02
863	1.34020e+02	8.63000e+02	1.00838e+00	1.33833e+02
867	1.34686e+02	8.67000e+02	1.00822e+00	1.34500e+02
871	1.35353e+02	8.71000e+02	1.00800e+00	1.35167e+02
875	1.36033e+02	8.75000e+02	1.00760e+00	1.35833e+02
879	1.36698e+02	8.79000e+02	1.00744e+00	1.36500e+02
883	1.37368e+02	8.83000e+02	1.00769e+00	1.37167e+02
887	1.38047e+02	8.87000e+02	1.00789e+00	1.37833e+02
891	1.38738e+02	8.91000e+02	1.00797e+00	1.38500e+02
895	1.39406e+02	8.95000e+02	1.00797e+00	1.39167e+02
899	1.40071e+02	8.99000e+02	1.00787e+00	1.39833e+02
903	1.40759e+02	9.03000e+02	1.00770e+00	1.40500e+02
907	1.41435e+02	9.07000e+02	1.00753e+00	1.41167e+02
911	1.42095e+02	9.11000e+02	1.00742e+00	1.41833e+02
915	1.42786e+02	9.15000e+02	1.00743e+00	1.42500e+02
919	1.43469e+02	9.19000e+02	1.00742e+00	1.43167e+02
923	1.44126e+02	9.23000e+02	1.00712e+00	1.43833e+02
927	1.44801e+02	9.27000e+02	1.00685e+00	1.44500e+02
931	1.45482e+02	9.31000e+02	1.00705e+00	1.45167e+02
935	1.46165e+02	9.35000e+02	1.00724e+00	1.45833e+02
939	1.46834e+02	9.39000e+02	1.00708e+00	1.46500e+02
943	1.47497e+02	9.43000e+02	1.00690e+00	1.47167e+02
947	1.48199e+02	9.47000e+02	1.00674e+00	1.47833e+02
951	1.48869e+02	9.51000e+02	1.00655e+00	1.48500e+02
955	1.49545e+02	9.55000e+02	1.00634e+00	1.49167e+02
959	1.50214e+02	9.59000e+02	1.00611e+00	1.49833e+02
963	1.50889e+02	9.63000e+02	1.00582e+00	1.50500e+02
967	1.51567e+02	9.67000e+02	1.00555e+00	1.51167e+02
971	1.52237e+02	9.71000e+02	1.00544e+00	1.51833e+02
975	1.52910e+02	9.75000e+02	1.00536e+00	1.52500e+02
979	1.53614e+02	9.79000e+02	1.00524e+00	1.53167e+02
983	1.54269e+02	9.83000e+02	1.00511e+00	1.53833e+02
987	1.54951e+02	9.87000e+02	1.00495e+00	1.54500e+02
991	1.55617e+02	9.91000e+02	1.00481e+00	1.55167e+02
995	1.56300e+02	9.95000e+02	1.00465e+00	1.55833e+02
999	1.56993e+02	9.99000e+02	1.00439e+00	1.56500e+02
1003	1.57652e+02	1.00300e+03	1.00416e+00	1.57167e+02
1007	1.58339e+02	1.00700e+03	1.00406e+00	1.57833e+02
1011	1.59008e+02	1.01100e+03	1.00395e+00	1.58500e+02
1015	1.59685e+02	1.01500e+03	1.00371e+00	1.59167e+02
1019	1.60370e+02	1.01900e+03	1.00347e+00	1.59833e+02
1023	1.61040e+02	1.02300e+03	1.00329e+00	1.60500e+02
1027	1.61724e+02	1.02700e+03	1.00313e+00	1.61167e+02
1031	1.62405e+02	1.03100e+03	1.00296e+00	1.61833e+02
1035	1.63087e+02	1.03500e+03	1.00265e+00	1.62500e+02
1039	1.63750e+02	1.03900e+03	1.00224e+00	1.63167e+02
1043	1.64423e+02	1.04300e+03	1.00185e+00	1.63833e+02
1047	1.65115e+02	1.04700e+03	1.00144e+00	1.64500e+02
1051	1.65789e+02	1.05100e+03	1.00106e+00	1.65167e+02
1055	1.66461e+02	1.05500e+03	1.00076e+00	1.65833e+02
1059	1.67144e+02	1.05900e+03	1.00046e+00	1.66500e+02
1063	1.67820e+02	1.06300e+03	1.00007e+00	1.67167e+02
1067	1.68502e+02	1.06700e+03	9.99715e-01	1.67833e+02
1071	1.69169e+02	1.07100e+03	9.99482e-01	1.68500e+02
1075	1.69843e+02	1.07500e+03	9.99141e-01	1.69167e+02
1079	1.70525e+02	1.07900e+03	9.98559e-01	1.69833e+02
1083	1.71196e+02	1.08300e+03	9.97867e-01	1.70500e+02
1087	1.71875e+02	1.08700e+03	9.97163e-01	1.71167e+02
1091	1.72551e+02	1.09100e+03	9.96481e-01	1.71833e+02
1095	1.73235e+02	1.09500e+03	9.95809e-01	1.72500e+02
1099	1.73910e+02	1.09900e+03	9.95174e-01	1.73167e+02
1103	1.74580e+02	1.10300e+03	9.94603e-01	1.73833e+02
1107	1.75262e+02	1.10700e+03	9.93924e-01	1.74500e+02
1111	1.75940e+02	1.11100e+03	9.93152e-01	1.75167e+02
1115	1.76618e+02	1.11500e+03	9.92399e-01	1.75833e+02
1119	1.77303e+02	1.11900e+03	9.91625e-01	1.76500e+02
1123	1.77962e+02	1.12300e+03	9.90817e-01	1.77167e+02
1127	1.78650e+02	1.12700e+03	9.89930e-01	1.77833e+02
1131	1.79327e+02	1.13100e+03	9.88923e-01	1.78500e+02
1135	1.80002e+02	1.13500e+03	9.87941e-01	1.79167e+02
1139	1.80682e+02	1.13900e+03	9.87125e-01	1.79833e+02
1143	1.81365e+02	1.14300e+03	9.86294e-01	1.80500e+02
1147	1.82050e+02	1.14700e+03	9.85445e-01	1.81167e+02
1151	1.82715e+02	1.15100e+03	9.84821e-01	1.81833e+02
1155	1.83385e+02	1.15500e+03	9.84100e-01	1.82500e+02
1159	1.84068e+02	1.15900e+03	9.82852e-01	1.83167e+02
1163	1.84742e+02	1.16300e+03	9.81549e-01	1.83833e+02
1167	1.85440e+02	1.16700e+03	9.80742e-01	1.84500e+02
1171	1.86094e+02	1.17100e+03	9.80114e-01	1.85167e+02
1175	1.86779e+02	1.17500e+03	9.79382e-01	1.85833e+02
1179	1.87450e+02	1.17900e+03	9.78572e-01	1.86500e+02
1183	1.88140e+02	1.18300e+03	9.77813e-01	1.87167e+02
1187	1.88809e+02	1.18700e+03	9.77103e-01	1.87833e+02
1191	1.89486e+02	1.19100e+03	9.76367e-01	1.88500e+02
1195	1.90166e+02	1.19500e+03	9.75798e-01	1.89167e+02
1199	1.90860e+02	1.19900e+03	9.75362e-01	1.89833e+02
1203	1.91527e+02	1.20300e+03	9.74920e-01	1.90500e+02
1207	1.92196e+02	1.20700e+03	9.74396e-01	1.91167e+02
1211	1.92892e+02	1.21100e+03	9.73737e-01	1.91833e+02
1215	1.93561e+02	1.21500e+03	9.73059e-01	1.92500e+02
1219	1.94242e+02	1.21900e+03	9.72489e-01	1.93167e+02
1223	1.94911e+02	1.22300e+03	9.72019e-01	1.93833e+02
1227	1.95589e+02	1.22700e+03	9.71520e-01	1.94500e+02
1231	1.96280e+02	1.23100e+03	9.70989e-01	1.95167e+02
1235	1.96956e+02	1.23500e+03	9.70566e-01	1.95833e+02
1239	1.97621e+02	1.23900e+03	9.70477e-01	1.96500e+02
1243	1.98309e+02	1.24300e+03	9.70529e-01	1.97167e+02
1247	1.98972e+02	1.24700e+03	9.70286e-01	1.97833e+02
1251	1.99653e+02	1.25100e+03	9.69960e-01	1.98500e+02
1255	2.00331e+02	1.25500e+03	9.69646e-01	1.99167e+02
1259	2.01012e+02	1.25900e+03	9.69296e-01	1.99833e+02
1263	2.01700e+02	1.26300e+03	9.69039e-01	2.00500e+02
1267	2.02367e+02	1.26700e+03	9.68831e-01	2.01167e+02
1271	2.03036e+02	1.27100e+03	9.68714e-01	2.01833e+02
1275	2.03718e+02	1.27500e+03	9.68569e-01	2.02500e+02
1279	2.04400e+02	1.27900e+03	9.68343e-01	2.03167e+02
1283	2.05070e+02	1.28300e+03	9.68173e-01	2.03833e+02
1287	2.05753e+02	1.28700e+03	9.68023e-01	2.04500e+02
1291	2.06427e+02	1.29100e+03	9.67825e-01	2.05167e+02
1295	2.07100e+02	1.29500e+03	9.67554e-01	2.05833e+02
1299	2.07779e+02	1.29900e+03	9.67362e-01	2.06500e+02
1303	2.08460e+02	1.30300e+03	9.67324e-01	2.07167e+02
1307	2.09133e+02	1.30700e+03	9.67298e-01	2.07833e+02
1311	2.09803e+02	1.31100e+03	9.67102e-01	2.08500e+02
1315	2.10485e+02	1.31500e+03	9.66747e-01	2.09167e+02
1319	2.11161e+02	1.31900e+03	9.66669e-01	2.09833e+02
1323	2.11843e+02	1.32300e+03	9.66828e-01	2.10500e+02
1327	2.12518e+02	1.32700e+03	9.66759e-01	2.11167e+02
1331	2.13187e+02	1.33100e+03	9.66350e-01	2.11833e+02
1335	2.13865e+02	1.33500e+03	9.65799e-01	2.12500e+02
1339	2.14549e+02	1.33900e+03	9.65614e-01	2.13167e+02
1343	2.15219e+02	1.34300e+03	9.65702e-01	2.13833e+02
1347	2.15902e+02	1.34700e+03	9.65586e-01	2.14500e+02
1351	2.16575e+02	1.35100e+03	9.65357e-01	2.15167e+02
1355	2.17259e+02	1.35500e+03	9.65192e-01	2.15833e+02
1359	2.17923e+02	1.35900e+03	9.65000e-01	2.16500e+02
1363	2.18597e+02	1.36300e+03	9.64813e-01	2.17167e+02
1367	2.19270e+02	1.36700e+03	9.64684e-01	2.17833e+02
1371	2.19947e+02	1.37100e+03	9.64515e-01	2.18500e+02
1375	2.20622e+02	1.37500e+03	9.64442e-01	2.19167e+02
1379	2.21300e+02	1.37900e+03	9.64301e-01	2.19833e+02
1383	2.21988e+02	1.38300e+03	9.64091e-01	2.20500e+02
1387	2.22650e+02	1.38700e+03	9.64065e-01	2.21167e+02
1391	2.23335e+02	1.39100e+03	9.64007e-01	2.21833e+02
1395	2.24002e+02	1.39500e+03	9.63826e-01	2.22500e+02
1399	2.24676e+02	1.39900e+03	9.63658e-01	2.23167e+02
1403	2.25362e+02	1.40300e+03	9.63540e-01	2.23833e+02
1407	2.26026e+02	1.40700e+03	9.63407e-01	2.24500e+02
1411	2.26697e+02	1.41100e+03	9.63237e-01	2.25167e+02
1415	2.27371e+02	1.41500e+03	9.63076e-01	2.25833e+02
1419	2.28053e+02	1.41900e+03	9.62985e-01	2.26500e+02
1423	2.28710e+02	1.42300e+03	9.62949e-01	2.27167e+02
1427	2.29379e+02	1.42700e+03	9.62821e-01	2.27833e+02
1431	2.30058e+02	1.43100e+03	9.62630e-01	2.28500e+02
1435	2.30731e+02	1.43500e+03	9.62421e-01	2.29167e+02
1439	2.31407e+02	1.43900e+03	9.62293e-01	2.29833e+02
1443	2.32073e+02	1.44300e+03	9.62365e-01	2.30500e+02
1447	2.32747e+02	1.44700e+03	9.62405e-01	2.31167e+02
1451	2.33422e+02	1.45100e+03	9.62401e-01	2.31833e+02
1455	2.34097e+02	1.45500e+03	9.62318e-01	2.32500e+02
1459	2.34760e+02	1.45900e+03	9.62067e-01	2.33167e+02
1463	2.35439e+02	1.46300e+03	9.61956e-01	2.33833e+02
1467	2.36113e+02	1.46700e+03	9.61941e-01	2.34500e+02
1471	2.36768e+02	1.47100e+03	9.61892e-01	2.35167e+02
1475	2.37447e+02	1.47500e+03	9.61887e-01	2.35833e+02
1479	2.38125e+02	1.47900e+03	9.61892e-01	2.36500e+02
1483	2.38801e+02	1.48300e+03	9.61819e-01	2.37167e+02
1487	2.39465e+02	1.48700e+03	9.61864e-01	2.37833e+02
1491	2.40143e+02	1.49100e+03	9.61847e-01	2.38500e+02
1495	2.40814e+02	1.49500e+03	9.61380e-01	2.39167e+02
1499	2.41475e+02	1.49900e+03	9.61096e-01	2.39833e+02
1503	2.42147e+02	1.50300e+03	9.61212e-01	2.40500e+02
1507	2.42827e+02	1.50700e+03	9.61203e-01	2.41167e+02
1511	2.43494e+02	1.51100e+03	9.61026e-01	2.41833e+02
1515	2.44164e+02	1.51500e+03	9.60844e-01	2.42500e+02
1519	2.44834e+02	1.51900e+03	9.60859e-01	2.43167e+02
1523	2.45503e+02	1.52300e+03	9.61014e-01	2.43833e+02
1527	2.46173e+02	1.52700e+03	9.61048e-01	2.44500e+02
1531	2.46835e+02	1.53100e+03	9.60889e-01	2.45167e+02
1535	2.47508e+02	1.53500e+03	9.60707e-01	2.45833e+02
1539	2.48182e+02	1.53900e+03	9.60591e-01	2.46500e+02
1543	2.48853e+02	1.54300e+03	9.60412e-01	2.47167e+02
1547	2.49519e+02	1.54700e+03	9.60273e-01	2.47833e+02
1551	2.50196e+02	1.55100e+03	9.60225e-01	2.48500e+02
1555	2.50855e+02	1.55500e+03	9.60186e-01	2.49167e+02
1559	2.51528e+02	1.55900e+03	9.60129e-01	2.49833e+02
1563	2.52205e+02	1.56300e+03	9.60097e-01	2.50500e+02
1567	2.52870e+02	1.56700e+03	9.60125e-01	2.51167e+02
1571	2.53539e+02	1.57100e+03	9.60094e-01	2.51833e+02
1575	2.54216e+02	1.57500e+03	9.59936e-01	2.52500e+02
1579	2.54878e+02	1.57900e+03	9.59742e-01	2.53167e+02
1583	2.55548e+02	1.58300e+03	9.59558e-01	2.53833e+02
1587	2.56228e+02	1.58700e+03	9.59387e-01	2.54500e+02
1591	2.56899e+02	1.59100e+03	9.59305e-01	2.55167e+02
1595	2.57575e+02	1.59500e+03	9.59325e-01	2.55833e+02
1599	2.58240e+02	1.59900e+03	9.59357e-01	2.56500e+02
1603	2.58906e+02	1.60300e+03	9.59265e-01	2.57167e+02
1607	2.59581e+02	1.60700e+03	9.59074e-01	2.57833e+02
1611	2.60256e+02	1.61100e+03	9.58887e-01	2.58500e+02
1615	2.60923e+02	1.61500e+03	9.58731e-01	2.59167e+02
1619	2.61593e+02	1.61900e+03	9.58656e-01	2.59833e+02
1623	2.62254e+02	1.62300e+03	9.58561e-01	2.60500e+02
1627	2.62931e+02	1.62700e+03	9.58339e-01	2.61167e+02
1631	2.63586e+02	1.63100e+03	9.58088e-01	2.61833e+02
1635	2.64262e+02	1.63500e+03	9.57888e-01	2.62500e+02
1639	2.64943e+02	1.63900e+03	9.57677e-01	2.63167e+02
1643	2.65622e+02	1.64300e+03	9.57525e-01	2.63833e+02
1647	2.66277e+02	1.64700e+03	9.57483e-01	2.64500e+02
1651	2.66956e+02	1.65100e+03	9.57415e-01	2.65167e+02
1655	2.67619e+02	1.65500e+03	9.57152e-01	2.65833e+02
1659	2.68289e+02	1.65900e+03	9.56934e-01	2.66500e+02
1663	2.68960e+02	1.66300e+03	9.56701e-01	2.67167e+02
1667	2.69628e+02	1.66700e+03	9.56352e-01	2.67833e+02
1671	2.70300e+02	1.67100e+03	9.56187e-01	2.68500e+02
1675	2.70975e+02	1.67500e+03	9.55951e-01	2.69167e+02
1679	2.71635e+02	1.67900e+03	9.55550e-01	2.69833e+02
1683	2.72305e+02	1.68300e+03	9.55222e-01	2.70500e+02
1687	2.72977e+02	1.68700e+03	9.54943e-01	2.71167e+02
1691	2.73647e+02	1.69100e+03	9.54692e-01	2.71833e+02
1695	2.74309e+02	1.69500e+03	9.54503e-01	2.72500e+02
1699	2.74986e+02	1.69900e+03	9.54238e-01	2.73167e+02
1703	2.75662e+02	1.70300e+03	9.53844e-01	2.73833e+02
1707	2.76327e+02	1.70700e+03	9.53431e-01	2.74500e+02
1711	2.76997e+02	1.71100e+03	9.53040e-01	2.75167e+02
1715	2.77669e+02	1.71500e+03	9.52579e-01	2.75833e+02
1719	2.78334e+02	1.71900e+03	9.52104e-01	2.76500e+02
1723	2.79003e+02	1.72300e+03	9.51749e-01	2.77167e+02
1727	2.79672e+02	1.72700e+03	9.51450e-01	2.77833e+02
1731	2.80345e+02	1.73100e+03	9.51089e-01	2.78500e+02
1735	2.81015e+02	1.73500e+03	9.50657e-01	2.79167e+02
1739	2.81677e+02	1.73900e+03	9.50165e-01	2.79833e+02
1743	2.82349e+02	1.74300e+03	9.49625e-01	2.80500e+02
1747	2.83009e+02	1.74700e+03	9.49125e-01	2.81167e+02
1751	2.83687e+02	1.75100e+03	9.48623e-01	2.81833e+02
1755	2.84357e+02	1.75500e+03	9.48015e-01	2.82500e+02
1759	2.85020e+02	1.75900e+03	9.47414e-01	2.83167e+02
1763	2.85696e+02	1.76300e+03	9.46777e-01	2.83833e+02
1767	2.86371e+02	1.76700e+03	9.46271e-01	2.84500e+02
1771	2.87038e+02	1.77100e+03	9.45883e-01	2.85167e+02
1775	2.87710e+02	1.77500e+03	9.45002e-01	2.85833e+02
1779	2.88378e+02	1.77900e+03	9.44055e-01	2.86500e+02
1783	2.89036e+02	1.78300e+03	9.43419e-01	2.87167e+02
1787	2.89715e+02	1.78700e+03	9.42637e-01	2.87833e+02
1791	2.90375e+02	1.79100e+03	9.41746e-01	2.88500e+02
1795	2.91046e+02	1.79500e+03	9.40926e-01	2.89167e+02
1799	2.91725e+02	1.79900e+03	9.40050e-01	2.89833e+02
1803	2.92397e+02	1.80300e+03	9.39130e-01	2.90500e+02
1807	2.93073e+02	1.80700e+03	9.38229e-01	2.91167e+02
1811	2.93750e+02	1.81100e+03	9.37295e-01	2.91833e+02
1815	2.94414e+02	1.81500e+03	9.36244e-01	2.92500e+02
1819	2.95095e+02	1.81900e+03	9.35263e-01	2.93167e+02
1823	2.95771e+02	1.82300e+03	9.34483e-01	2.93833e+02
1827	2.96448e+02	1.82700e+03	9.33413e-01	2.94500e+02
1831	2.97113e+02	1.83100e+03	9.32080e-01	2.95167e+02
1835	2.97803e+02	1.83500e+03	9.30926e-01	2.95833e+02
1839	2.98470e+02	1.83900e+03	9.29898e-01	2.96500e+02
1843	2.99150e+02	1.84300e+03	9.28831e-01	2.97167e+02
1847	2.99821e+02	1.84700e+03	9.27732e-01	2.97833e+02
1851	3.00507e+02	1.85100e+03	9.26659e-01	2.98500e+02
1855	3.01198e+02	1.85500e+03	9.25610e-01	2.99167e+02
1859	3.01878e+02	1.85900e+03	9.24484e-01	2.99833e+02
1863	3.02559e+02	1.86300e+03	9.23264e-01	3.00500e+02
1867	3.03238e+02	1.86700e+03	9.22059e-01	3.01167e+02
1871	3.03923e+02	1.87100e+03	9.20880e-01	3.01833e+02
1875	3.04608e+02	1.87500e+03	9.19673e-01	3.02500e+02
1879	3.05284e+02	1.87900e+03	9.18467e-01	3.03167e+02
1883	3.05947e+02	1.88300e+03	9.17253e-01	3.03833e+02
1887	3.06629e+02	1.88700e+03	9.16024e-01	3.04500e+02
1891	3.07291e+02	1.89100e+03	9.14790e-01	3.05167e+02
1895	3.07989e+02	1.89500e+03	9.13546e-01	3.05833e+02
1899	3.08667e+02	1.89900e+03	9.12310e-01	3.06500e+02
1903	3.09358e+02	1.90300e+03	9.11193e-01	3.07167e+02
1907	3.10063e+02	1.90700e+03	9.10105e-01	3.07833e+02
1911	3.10735e+02	1.91100e+03	9.08692e-01	3.08500e+02
1915	3.11421e+02	1.91500e+03	9.07280e-01	3.09167e+02
1919	3.12098e+02	1.91900e+03	9.06230e-01	3.09833e+02
1923	3.12769e+02	1.92300e+03	9.05155e-01	3.10500e+02
1927	3.13431e+02	1.92700e+03	9.03886e-01	3.11167e+02
1931	3.14115e+02	1.93100e+03	9.02595e-01	3.11833e+02
1935	3.14775e+02	1.93500e+03	9.01428e-01	3.12500e+02
1939	3.15459e+02	1.93900e+03	9.00299e-01	3.13167e+02
1943	3.16127e+02	1.94300e+03	8.98961e-01	3.13833e+02
1947	3.16804e+02	1.94700e+03	8.97466e-01	3.14500e+02
1951	3.17495e+02	1.95100e+03	8.95995e-01	3.15167e+02
1955	3.18168e+02	1.95500e+03	8.94519e-01	3.15833e+02
1959	3.18835e+02	1.95900e+03	8.92912e-01	3.16500e+02
1963	3.19508e+02	1.96300e+03	8.91311e-01	3.17167e+02
1967	3.20181e+02	1.96700e+03	8.89759e-01	3.17833e+02
1971	3.20853e+02	1.97100e+03	8.88150e-01	3.18500e+02
1975	3.21519e+02	1.97500e+03	8.86516e-01	3.19167e+02
1979	3.22171e+02	1.97900e+03	8.84737e-01	3.19833e+02
1983	3.22843e+02	1.98300e+03	8.82719e-01	3.20500e+02
1987	3.23518e+02	1.98700e+03	8.80650e-01	3.21167e+02
1991	3.24172e+02	1.99100e+03	8.78992e-01	3.21833e+02
1995	3.24849e+02	1.99500e+03	8.77349e-01	3.22500e+02
1999	3.25500e+02	1.99900e+03	8.74978e-01	3.23167e+02
2003	3.26179e+02	2.00300e+03	8.72195e-01	3.23833e+02
2007	3.26849e+02	2.00700e+03	8.69667e-01	3.24500e+02
2011	3.27521e+02	2.01100e+03	8.67422e-01	3.25167e+02
2015	3.28202e+02	2.01500e+03	8.65064e-01	3.25833e+02
2019	3.28890e+02	2.01900e+03	8.62571e-01	3.26500e+02
2023	3.29554e+02	2.02300e+03	8.59861e-01	3.27167e+02
2027	3.30229e+02	2.02700e+03	8.56934e-01	3.27833e+02
2031	3.30917e+02	2.03100e+03	8.53908e-01	3.28500e+02
2035	3.31594e+02	2.03500e+03	8.50715e-01	3.29167e+02
2039	3.32269e+02	2.03900e+03	8.47429e-01	3.29833e+02
2043	3.32952e+02	2.04300e+03	8.44308e-01	3.30500e+02
2047	3.33624e+02	2.04700e+03	8.41157e-01	3.31167e+02
2051	3.34341e+02	2.05100e+03	8.37355e-01	3.31833e+02
2055	3.34985e+02	2.05500e+03	8.32987e-01	3.32500e+02
2059	3.35662e+02	2.05900e+03	8.28808e-01	3.33167e+02
2063	3.36342e+02	2.06300e+03	8.25093e-01	3.33833e+02
2067	3.37020e+02	2.06700e+03	8.21260e-01	3.34500e+02
2071	3.37720e+02	2.07100e+03	8.16793e-01	3.35167e+02
2075	3.38410e+02	2.07500e+03	8.11754e-01	3.35833e+02
2079	3.39085e+02	2.07900e+03	8.06679e-01	3.36500e+02
2083	3.39762e+02	2.08300e+03	8.01742e-01	3.37167e+02
2087	3.40425e+02	2.08700e+03	7.96589e-01	3.37833e+02
2091	3.41091e+02	2.09100e+03	7.91127e-01	3.38500e+02
2095	3.41736e+02	2.09500e+03	7.85447e-01	3.39167e+02
2099	3.42406e+02	2.09900e+03	7.79556e-01	3.39833e+02
2103	3.43073e+02	2.10300e+03	7.73374e-01	3.40500e+02
2107	3.43737e+02	2.10700e+03	7.67222e-01	3.41167e+02
2111	3.44401e+02	2.11100e+03	7.60940e-01	3.41833e+02
2115	3.45066e+02	2.11500e+03	7.53845e-01	3.42500e+02
2119	3.45733e+02	2.11900e+03	7.46473e-01	3.43167e+02
2123	3.46393e+02	2.12300e+03	7.39485e-01	3.43833e+02
2127	3.47062e+02	2.12700e+03	7.32270e-01	3.44500e+02
2131	3.47714e+02	2.13100e+03	7.24747e-01	3.45167e+02
2135	3.48389e+02	2.13500e+03	7.17364e-01	3.45833e+02
2139	3.49061e+02	2.13900e+03	7.09964e-01	3.46500e+02
2143	3.49727e+02	2.14300e+03	7.02106e-01	3.47167e+02
2147	3.50404e+02	2.14700e+03	6.93644e-01	3.47833e+02
2151	3.51079e+02	2.15100e+03	6.84952e-01	3.48500e+02
2155	3.51773e+02	2.15500e+03	6.76144e-01	3.49167e+02
2159	3.52438e+02	2.15900e+03	6.67091e-01	3.49833e+02
2163	3.53118e+02	2.16300e+03	6.57851e-01	3.50500e+02
2167	3.53792e+02	2.16700e+03	6.48533e-01	3.51167e+02
2171	3.54467e+02	2.17100e+03	6.39119e-01	3.51833e+02
2175	3.55144e+02	2.17500e+03	6.29564e-01	3.52500e+02
2179	3.55815e+02	2.17900e+03	6.19799e-01	3.53167e+02
2183	3.56473e+02	2.18300e+03	6.09795e-01	3.53833e+02
2187	3.57138e+02	2.18700e+03	5.99631e-01	3.54500e+02
2191	3.57799e+02	2.19100e+03	5.89310e-01	3.55167e+02
2195	3.58458e+02	2.19500e+03	5.78862e-01	3.55833e+02
2199	3.59134e+02	2.19900e+03	5.68321e-01	3.56500e+02
2203	3.59788e+02	2.20300e+03	5.57611e-01	3.57167e+02
2207	3.60469e+02	2.20700e+03	5.46635e-01	3.57833e+02
2211	3.61150e+02	2.21100e+03	5.35522e-01	3.58500e+02
2215	3.61815e+02	2.21500e+03	5.24546e-01	3.59167e+02
2219	3.62461e+02	2.21900e+03	5.13600e-01	3.59833e+02
2223	3.63122e+02	2.22300e+03	5.02438e-01	3.60500e+02
2227	3.63786e+02	2.22700e+03	4.91142e-01	3.61167e+02
2231	3.64447e+02	2.23100e+03	4.79801e-01	3.61833e+02
2235	3.65130e+02	2.23500e+03	4.68439e-01	3.62500e+02
2239	3.65788e+02	2.23900e+03	4.57095e-01	3.63167e+02
2243	3.66445e+02	2.24300e+03	4.45782e-01	3.63833e+02
2247	3.67100e+02	2.24700e+03	4.34403e-01	3.64500e+02
2251	3.67768e+02	2.25100e+03	4.22805e-01	3.65167e+02
2255	3.68435e+02	2.25500e+03	4.11202e-01	3.65833e+02
2259	3.69088e+02	2.25900e+03	3.99831e-01	3.66500e+02
2263	3.69750e+02	2.26300e+03	3.88542e-01	3.67167e+02
2267	3.70421e+02	2.26700e+03	3.76972e-01	3.67833e+02
2271	3.71083e+02	2.27100e+03	3.65125e-01	3.68500e+02
2275	3.71756e+02	2.27500e+03	3.53243e-01	3.69167e+02
2279	3.72413e+02	2.27900e+03	3.41510e-01	3.69833e+02
2283	3.73081e+02	2.28300e+03	3.30003e-01	3.70500e+02
2287	3.73754e+02	2.28700e+03	3.18565e-01	3.71167e+02
2291	3.74429e+02	2.29100e+03	3.07216e-01	3.71833e+02
2295	3.75098e+02	2.29500e+03	2.96157e-01	3.72500e+02
2299	3.75769e+02	2.29900e+03	2.85359e-01	3.73167e+02
2303	3.76445e+02	2.30300e+03	2.74664e-01	3.73833e+02
2307	3.77113e+02	2.30700e+03	2.64141e-01	3.74500e+02
2311	3.77776e+02	2.31100e+03	2.53801e-01	3.75167e+02
2315	3.78452e+02	2.31500e+03	2.43556e-01	3.75833e+02
2319	3.79125e+02	2.31900e+03	2.33595e-01	3.76500e+02
2323	3.79797e+02	2.32300e+03	2.24032e-01	3.77167e+02
2327	3.80483e+02	2.32700e+03	2.14589e-01	3.77833e+02
2331	3.81151e+02	2.33100e+03	2.05166e-01	3.78500e+02
2335	3.81815e+02	2.33500e+03	1.95947e-01	3.79167e+02
2339	3.82483e+02	2.33900e+03	1.87047e-01	3.79833e+02
2343	3.83157e+02	2.34300e+03	1.78437e-01	3.80500e+02
2347	3.83832e+02	2.34700e+03	1.70141e-01	3.81167e+02
2351	3.84480e+02	2.35100e+03	1.62150e-01	3.81833e+02
2355	3.85174e+02	2.35500e+03	1.54504e-01	3.82500e+02
2359	3.85835e+02	2.35900e+03	1.47107e-01	3.83167e+02
2363	3.86495e+02	2.36300e+03	1.39699e-01	3.83833e+02
2367	3.87185e+02	2.36700e+03	1.32399e-01	3.84500e+02
2371	3.87853e+02	2.37100e+03	1.25575e-01	3.85167e+02
2375	3.88530e+02	2.37500e+03	1.19447e-01	3.85833e+02
2379	3.89205e+02	2.37900e+03	1.13545e-01	3.86500e+02
2383	3.89881e+02	2.38300e+03	1.07486e-01	3.87167e+02
2387	3.90558e+02	2.38700e+03	1.01695e-01	3.87833e+02
2391	3.91207e+02	2.39100e+03	9.63486e-02	3.88500e+02
2395	3.91858e+02	2.39500e+03	9.11708e-02	3.89167e+02
2399	3.92520e+02	2.39900e+03	8.61183e-02	3.89833e+02
2403	3.93161e+02	2.40300e+03	8.12746e-02	3.90500e+02
2407	3.93813e+02	2.40700e+03	7.66558e-02	3.91167e+02
2411	3.94451e+02	2.41100e+03	7.23574e-02	3.91833e+02
2415	3.95083e+02	2.41500e+03	6.83223e-02	3.92500e+02
2419	3.95728e+02	2.41900e+03	6.44071e-02	3.93167e+02
2423	3.96370e+02	2.42300e+03	6.07206e-02	3.93833e+02
2427	3.97028e+02	2.42700e+03	5.73241e-02	3.94500e+02
2431	3.97673e+02	2.43100e+03	5.41101e-02	3.95167e+02
2435	3.98322e+02	2.43500e+03	5.10384e-02	3.95833e+02
2439	3.98974e+02	2.43900e+03	4.83286e-02	3.96500e+02
2443	3.99615e+02	2.44300e+03	4.58781e-02	3.97167e+02
2447	4.00266e+02	2.44700e+03	4.32214e-02	3.97833e+02
2451	4.00920e+02	2.45100e+03	4.03670e-02	3.98500e+02
2455	4.01572e+02	2.45500e+03	3.78911e-02	3.99167e+02
2459	4.02236e+02	2.45900e+03	3.59487e-02	3.99833e+02
2463	4.02890e+02	2.46300e+03	3.40597e-02	4.00500e+02
2467	4.03546e+02	2.46700e+03	3.22559e-02	4.01167e+02
2471	4.04214e+02	2.47100e+03	3.07748e-02	4.01833e+02
2475	4.04892e+02	2.47500e+03	2.93752e-02	4.02500e+02
2479	4.05544e+02	2.47900e+03	2.77087e-02	4.03167e+02
2483	4.06194e+02	2.48300e+03	2.58727e-02	4.03833e+02
2487	4.06873e+02	2.48700e+03	2.43618e-02	4.04500e+02
2491	4.07542e+02	2.49100e+03	2.32912e-02	4.05167e+02
2495	4.08197e+02	2.49500e+03	2.23512e-02	4.05833e+02
2499	4.08847e+02	2.49900e+03	2.14350e-02	4.06500e+02
2503	4.09512e+02	2.50300e+03	2.04588e-02	4.07167e+02
2507	4.10178e+02	2.50700e+03	1.94140e-02	4.07833e+02
2511	4.10837e+02	2.51100e+03	1.85417e-02	4.08500e+02
2515	4.11499e+02	2.51500e+03	1.76757e-02	4.09167e+02
2519	4.12147e+02	2.51900e+03	1.68821e-02	4.09833e+02
2523	4.12809e+02	2.52300e+03	1.62388e-02	4.10500e+02
2527	4.13469e+02	2.52700e+03	1.55898e-02	4.11167e+02
2531	4.14130e+02	2.53100e+03	1.52086e-02	4.11833e+02
2535	4.14775e+02	2.53500e+03	1.47418e-02	4.12500e+02
2539	4.15436e+02	2.53900e+03	1.38239e-02	4.13167e+02
2543	4.16078e+02	2.54300e+03	1.30668e-02	4.13833e+02
2547	4.16740e+02	2.54700e+03	1.26899e-02	4.14500e+02
2551	4.17395e+02	2.55100e+03	1.23341e-02	4.15167e+02
2555	4.18043e+02	2.55500e+03	1.19227e-02	4.15833e+02
2559	4.18689e+02	2.55900e+03	1.13816e-02	4.16500e+02
2563	4.19344e+02	2.56300e+03	1.08753e-02	4.17167e+02
2567	4.19969e+02	2.56700e+03	1.06339e-02	4.17833e+02
2571	4.20611e+02	2.57100e+03	1.05239e-02	4.18500e+02
2575	4.21272e+02	2.57500e+03	1.02219e-02	4.19167e+02
2579	4.21926e+02	2.57900e+03	9.65518e-03	4.19833e+02
2583	4.22593e+02	2.58300e+03	9.39977e-03	4.20500e+02
2587	4.23255e+02	2.58700e+03	9.09080e-03	4.21167e+02
2591	4.23906e+02	2.59100e+03	8.62409e-03	4.21833e+02
2595	4.24578e+02	2.59500e+03	8.47584e-03	4.22500e+02
2599	4.25241e+02	2.59900e+03	8.29767e-03	4.23167e+02
2603	4.25901e+02	2.60300e+03	8.00264e-03	4.23833e+02
2607	4.26564e+02	2.60700e+03	7.68547e-03	4.24500e+02
2611	4.27231e+02	2.61100e+03	7.39787e-03	4.25167e+02
2615	4.27874e+02	2.61500e+03	7.35212e-03	4.25833e+02
2619	4.28530e+02	2.61900e+03	7.42924e-03	4.26500e+02
2623	4.29196e+02	2.62300e+03	7.45830e-03	4.27167e+02
2627	4.29863e+02	2.62700e+03	7.69618e-03	4.27833e+02
2631	4.30511e+02	2.63100e+03	7.65849e-03	4.28500e+02
2635	4.31160e+02	2.63500e+03	7.06283e-03	4.29167e+02
2639	4.31797e+02	2.63900e+03	6.65943e-03	4.29833e+02
2643	4.32461e+02	2.64300e+03	6.64451e-03	4.30500e+02
2647	4.33105e+02	2.64700e+03	6.87112e-03	4.31167e+02
2651	4.33752e+02	2.65100e+03	7.15062e-03	4.31833e+02
2655	4.34384e+02	2.65500e+03	6.92987e-03	4.32500e+02
2659	4.35029e+02	2.65900e+03	6.30336e-03	4.33167e+02
2663	4.35662e+02	2.66300e+03	5.99221e-03	4.33833e+02
2667	4.36306e+02	2.66700e+03	6.05352e-03	4.34500e+02
2671	4.36954e+02	2.67100e+03	6.21678e-03	4.35167e+02
2675	4.37615e+02	2.67500e+03	6.25294e-03	4.35833e+02
2679	4.38272e+02	2.67900e+03	6.18892e-03	4.36500e+02
2683	4.38924e+02	2.68300e+03	6.23739e-03	4.37167e+02
2687	4.39546e+02	2.68700e+03	6.25649e-03	4.37833e+02
2691	4.40093e+02	2.69100e+03	6.15371e-03	4.38500e+02
2695	4.40685e+02	2.69500e+03	5.98801e-03	4.39167e+02
2699	4.41311e+02	2.69900e+03	5.98006e-03	4.39833e+02
2703	4.41935e+02	2.70300e+03	6.13390e-03	4.40500e+02
2707	4.42579e+02	2.70700e+03	6.08286e-03	4.41167e+02
2711	4.43226e+02	2.71100e+03	5.95820e-03	4.41833e+02
2715	4.43887e+02	2.71500e+03	5.96521e-03	4.42500e+02
2719	4.44534e+02	2.71900e+03	5.89899e-03	4.43167e+02
2723	4.45191e+02	2.72300e+03	5.90392e-03	4.43833e+02
2727	4.45842e+02	2.72700e+03	5.80956e-03	4.44500e+02
2731	4.46497e+02	2.73100e+03	5.74398e-03	4.45167e+02
2735	4.47152e+02	2.73500e+03	5.94355e-03	4.45833e+02
2739	4.47807e+02	2.73900e+03	6.03651e-03	4.46500e+02
2743	4.48456e+02	2.74300e+03	5.88613e-03	4.47167e+02
2747	4.49116e+02	2.74700e+03	5.75676e-03	4.47833e+02
2751	4.49763e+02	2.75100e+03	5.78714e-03	4.48500e+02
2755	4.50426e+02	2.75500e+03	5.77711e-03	4.49167e+02
2759	4.51082e+02	2.75900e+03	5.72064e-03	4.49833e+02
2763	4.51733e+02	2.76300e+03	5.71427e-03	4.50500e+02
2767	4.52392e+02	2.76700e+03	5.73086e-03	4.51167e+02
2771	4.53044e+02	2.77100e+03	5.70990e-03	4.51833e+02
2775	4.53700e+02	2.77500e+03	5.70701e-03	4.52500e+02
2779	4.54360e+02	2.77900e+03	5.66258e-03	4.53167e+02
2783	4.55013e+02	2.78300e+03	5.56063e-03	4.53833e+02
2787	4.55672e+02	2.78700e+03	5.55786e-03	4.54500e+02
2791	4.56324e+02	2.79100e+03	5.65574e-03	4.55167e+02
2795	4.56976e+02	2.79500e+03	5.73454e-03	4.55833e+02
2799	4.57629e+02	2.79900e+03	5.71186e-03	4.56500e+02
2803	4.58280e+02	2.80300e+03	5.58980e-03	4.57167e+02
2807	4.58931e+02	2.80700e+03	5.46054e-03	4.57833e+02
2811	4.59581e+02	2.81100e+03	5.40171e-03	4.58500e+02
2815	4.60236e+02	2.81500e+03	5.39178e-03	4.59167e+02
2819	4.60888e+02	2.81900e+03	5.39027e-03	4.59833e+02
2823	4.61549e+02	2.82300e+03	5.46877e-03	4.60500e+02
2827	4.62206e+02	2.82700e+03	5.56878e-03	4.61167e+02
2831	4.62856e+02	2.83100e+03	5.54028e-03	4.61833e+02
2835	4.63499e+02	2.83500e+03	5.40380e-03	4.62500e+02
2839	4.64149e+02	2.83900e+03	5.29060e-03	4.63167e+02
2843	4.64807e+02	2.84300e+03	5.23628e-03	4.63833e+02
2847	4.65455e+02	2.84700e+03	5.23343e-03	4.64500e+02
2851	4.66104e+02	2.85100e+03	5.28972e-03	4.65167e+02
2855	4.66755e+02	2.85500e+03	5.28574e-03	4.65833e+02
2859	4.67404e+02	2.85900e+03	5.26063e-03	4.66500e+02
2863	4.68068e+02	2.86300e+03	5.33651e-03	4.67167e+02
2867	4.68729e+02	2.86700e+03	5.37259e-03	4.67833e+02
2871	4.69384e+02	2.87100e+03	5.30855e-03	4.68500e+02
2875	4.70025e+02	2.87500e+03	5.28255e-03	4.69167e+02
2879	4.70693e+02	2.87900e+03	5.33251e-03	4.69833e+02
2883	4.71347e+02	2.88300e+03	5.36773e-03	4.70500e+02
2887	4.71996e+02	2.88700e+03	5.19688e-03	4.71167e+02
2891	4.72653e+02	2.89100e+03	4.99315e-03	4.71833e+02
2895	4.73317e+02	2.89500e+03	5.05716e-03	4.72500e+02
2899	4.73965e+02	2.89900e+03	5.20875e-03	4.73167e+02
2903	4.74621e+02	2.90300e+03	5.17559e-03	4.73833e+02
2907	4.75280e+02	2.90700e+03	5.11552e-03	4.74500e+02
2911	4.75937e+02	2.91100e+03	5.18775e-03	4.75167e+02
2915	4.76591e+02	2.91500e+03	5.25123e-03	4.75833e+02
2919	4.77254e+02	2.91900e+03	5.19569e-03	4.76500e+02
2923	4.77909e+02	2.92300e+03	5.06751e-03	4.77167e+02
2927	4.78568e+02	2.92700e+03	4.96411e-03	4.77833e+02
2931	4.79224e+02	2.93100e+03	4.99574e-03	4.78500e+02
2935	4.79889e+02	2.93500e+03	5.12313e-03	4.79167e+02
2939	4.80548e+02	2.93900e+03	5.13780e-03	4.79833e+02
2943	4.81206e+02	2.94300e+03	5.15318e-03	4.80500e+02
2947	4.81869e+02	2.94700e+03	5.15652e-03	4.81167e+02
2951	4.82526e+02	2.95100e+03	5.02853e-03	4.81833e+02
2955	4.83185e+02	2.95500e+03	4.97209e-03	4.82500e+02
2959	4.83841e+02	2.95900e+03	5.01235e-03	4.83167e+02
2963	4.84497e+02	2.96300e+03	5.07616e-03	4.83833e+02
2967	4.85157e+02	2.96700e+03	5.07806e-03	4.84500e+02
2971	4.85810e+02	2.97100e+03	5.03624e-03	4.85167e+02
2975	4.86456e+02	2.97500e+03	5.05379e-03	4.85833e+02
2979	4.87120e+02	2.97900e+03	5.02243e-03	4.86500e+02
2983	4.87775e+02	2.98300e+03	4.88568e-03	4.87167e+02
2987	4.88435e+02	2.98700e+03	4.79496e-03	4.87833e+02
2991	4.89085e+02	2.99100e+03	4.81466e-03	4.88500e+02
2995	4.89751e+02	2.99500e+03	4.87189e-03	4.89167e+02
2999	4.90398e+02	2.99900e+03	4.91619e-03	4.89833e+02
3003	4.91053e+02	3.00300e+03	4.95325e-03	4.90500e+02
3007	4.91702e+02	3.00700e+03	5.02946e-03	4.91167e+02
3011	4.92358e+02	3.01100e+03	5.03189e-03	4.91833e+02
3015	4.93003e+02	3.01500e+03	4.94623e-03	4.92500e+02
3019	4.93658e+02	3.01900e+03	4.90836e-03	4.93167e+02
3023	4.94305e+02	3.02300e+03	4.97951e-03	4.93833e+02
3027	4.94971e+02	3.02700e+03	5.11341e-03	4.94500e+02
3031	4.95638e+02	3.03100e+03	5.24222e-03	4.95167e+02
3035	4.96288e+02	3.03500e+03	5.26141e-03	4.95833e+02
3039	4.96943e+02	3.03900e+03	5.18591e-03	4.96500e+02
3043	4.97597e+02	3.04300e+03	5.15453e-03	4.97167e+02
3047	4.98256e+02	3.04700e+03	5.12951e-03	4.97833e+02
3051	4.98904e+02	3.05100e+03	5.10420e-03	4.98500e+02
3055	4.99565e+02	3.05500e+03	5.09041e-03	4.99167e+02
3059	5.00231e+02	3.05900e+03	5.09027e-03	4.99833e+02
3063	5.00887e+02	3.06300e+03	5.11101e-03	5.00500e+02
3067	5.01541e+02	3.06700e+03	5.08275e-03	5.01167e+02
3071	5.02192e+02	3.07100e+03	4.98690e-03	5.01833e+02
3075	5.02856e+02	3.07500e+03	4.94642e-03	5.02500e+02
3079	5.03517e+02	3.07900e+03	4.97337e-03	5.03167e+02
3083	5.04168e+02	3.08300e+03	4.92880e-03	5.03833e+02
3087	5.04829e+02	3.08700e+03	4.93571e-03	5.04500e+02
3091	5.05472e+02	3.09100e+03	4.99549e-03	5.05167e+02
3095	5.06138e+02	3.09500e+03	4.97169e-03	5.05833e+02
3099	5.06789e+02	3.09900e+03	4.91858e-03	5.06500e+02
3103	5.07460e+02	3.10300e+03	4.87702e-03	5.07167e+02
3107	5.08107e+02	3.10700e+03	4.93700e-03	5.07833e+02
3111	5.08754e+02	3.11100e+03	5.12298e-03	5.08500e+02
3115	5.09415e+02	3.11500e+03	5.10513e-03	5.09167e+02
3119	5.10067e+02	3.11900e+03	4.89019e-03	5.09833e+02
3123	5.10723e+02	3.12300e+03	4.76385e-03	5.10500e+02
3127	5.11377e+02	3.12700e+03	4.73665e-03	5.11167e+02
3131	5.12037e+02	3.13100e+03	4.77854e-03	5.11833e+02
3135	5.12700e+02	3.13500e+03	4.86927e-03	5.12500e+02
3139	5.13353e+02	3.13900e+03	4.97148e-03	5.13167e+02
3143	5.13997e+02	3.14300e+03	5.04450e-03	5.13833e+02
3147	5.14652e+02	3.14700e+03	5.08683e-03	5.14500e+02
3151	5.15297e+02	3.15100e+03	5.14615e-03	5.15167e+02
3155	5.15959e+02	3.15500e+03	5.21141e-03	5.15833e+02
3159	5.16599e+02	3.15900e+03	5.17102e-03	5.16500e+02
3163	5.17277e+02	3.16300e+03	5.06727e-03	5.17167e+02
3167	5.17936e+02	3.16700e+03	4.99330e-03	5.17833e+02
3171	5.18589e+02	3.17100e+03	5.00063e-03	5.18500e+02
3175	5.19258e+02	3.17500e+03	5.06578e-03	5.19167e+02
3179	5.19904e+02	3.17900e+03	5.04841e-03	5.19833e+02
3183	5.20557e+02	3.18300e+03	4.97988e-03	5.20500e+02
3187	5.21209e+02	3.18700e+03	4.96768e-03	5.21167e+02
3191	5.21866e+02	3.19100e+03	4.89132e-03	5.21833e+02
3195	5.22529e+02	3.19500e+03	4.75608e-03	5.22500e+02
3199	5.23177e+02	3.19900e+03	4.70359e-03	5.23167e+02
3203	5.23838e+02	3.20300e+03	4.78321e-03	5.23833e+02
3207	5.24491e+02	3.20700e+03	4.91200e-03	5.24500e+02
3211	5.25148e+02	3.21100e+03	4.99488e-03	5.25167e+02
3215	5.25811e+02	3.21500e+03	5.00035e-03	5.25833e+02
3219	5.26467e+02	3.21900e+03	4.95344e-03	5.26500e+02
3223	5.27118e+02	3.22300e+03	4.97656e-03	5.27167e+02
3227	5.27783e+02	3.22700e+03	4.95040e-03	5.27833e+02
3231	5.28439e+02	3.23100e+03	4.81821e-03	5.28500e+02
3235	5.29108e+02	3.23500e+03	4.72431e-03	5.29167e+02
3239	5.29759e+02	3.23900e+03	4.72720e-03	5.29833e+02
3243	5.30407e+02	3.24300e+03	4.78658e-03	5.30500e+02
3247	5.31079e+02	3.24700e+03	4.85116e-03	5.31167e+02
3251	5.31721e+02	3.25100e+03	4.89067e-03	5.31833e+02
3255	5.32383e+02	3.25500e+03	4.87951e-03	5.32500e+02
3259	5.33031e+02	3.25900e+03	4.90262e-03	5.33167e+02
3263	5.33707e+02	3.26300e+03	4.95015e-03	5.33833e+02
3267	5.34356e+02	3.26700e+03	4.96965e-03	5.34500e+02
3271	5.35018e+02	3.27100e+03	4.93864e-03	5.35167e+02
3275	5.35666e+02	3.27500e+03	4.83292e-03	5.35833e+02
3279	5.36326e+02	3.27900e+03	4.69151e-03	5.36500e+02
3283	5.36973e+02	3.28300e+03	4.59102e-03	5.37167e+02
3287	5.37631e+02	3.28700e+03	4.59527e-03	5.37833e+02
3291	5.38275e+02	3.29100e+03	4.72360e-03	5.38500e+02
3295	5.38949e+02	3.29500e+03	4.71117e-03	5.39167e+02
3299	5.39592e+02	3.29900e+03	4.75020e-03	5.39833e+02
3303	5.40268e+02	3.30300e+03	4.93041e-03	5.40500e+02
3307	5.40911e+02	3.30700e+03	4.89393e-03	5.41167e+02
3311	5.41574e+02	3.31100e+03	4.79522e-03	5.41833e+02
3315	5.42237e+02	3.31500e+03	4.64909e-03	5.42500e+02
3319	5.42904e+02	3.31900e+03	4.43344e-03	5.43167e+02
3323	5.43554e+02	3.32300e+03	4.45230e-03	5.43833e+02
3327	5.44208e+02	3.32700e+03	4.79727e-03	5.44500e+02
3331	5.44851e+02	3.33100e+03	5.06471e-03	5.45167e+02
3335	5.45518e+02	3.33500e+03	5.00205e-03	5.45833e+02
3339	5.46169e+02	3.33900e+03	4.85737e-03	5.46500e+02
3343	5.46832e+02	3.34300e+03	4.83459e-03	5.47167e+02
3347	5.47497e+02	3.34700e+03	4.81972e-03	5.47833e+02
3351	5.48156e+02	3.35100e+03	4.73117e-03	5.48500e+02
3355	5.48805e+02	3.35500e+03	4.73298e-03	5.49167e+02
3359	5.49476e+02	3.35900e+03	4.82741e-03	5.49833e+02
3363	5.50130e+02	3.36300e+03	4.84726e-03	5.50500e+02
3367	5.50808e+02	3.36700e+03	4.85857e-03	5.51167e+02
3371	5.51463e+02	3.37100e+03	4.83979e-03	5.51833e+02
3375	5.52128e+02	3.37500e+03	4.69366e-03	5.52500e+02
3379	5.52786e+02	3.37900e+03	4.61298e-03	5.53167e+02
3383	5.53445e+02	3.38300e+03	4.70116e-03	5.53833e+02
3387	5.54104e+02	3.38700e+03	4.83870e-03	5.54500e+02
3391	5.54770e+02	3.39100e+03	4.93240e-03	5.55167e+02
3395	5.55427e+02	3.39500e+03	4.90602e-03	5.55833e+02
3399	5.56089e+02	3.39900e+03	4.77979e-03	5.56500e+02
3403	5.56746e+02	3.40300e+03	4.67088e-03	5.57167e+02
3407	5.57418e+02	3.40700e+03	4.63019e-03	5.57833e+02
3411	5.58071e+02	3.41100e+03	4.65191e-03	5.58500e+02
3415	5.58736e+02	3.41500e+03	4.72618e-03	5.59167e+02
3419	5.59397e+02	3.41900e+03	4.81244e-03	5.59833e+02
3423	5.60062e+02	3.42300e+03	4.89646e-03	5.60500e+02
3427	5.60724e+02	3.42700e+03	4.90804e-03	5.61167e+02
3431	5.61372e+02	3.43100e+03	4.80472e-03	5.61833e+02
3435	5.62046e+02	3.43500e+03	4.67032e-03	5.62500e+02
3439	5.62697e+02	3.43900e+03	4.56511e-03	5.63167e+02
3443	5.63361e+02	3.44300e+03	4.55646e-03	5.63833e+02
3447	5.64008e+02	3.44700e+03	4.66589e-03	5.64500e+02
3451	5.64659e+02	3.45100e+03	4.78347e-03	5.65167e+02
3455	5.65330e+02	3.45500e+03	4.74846e-03	5.65833e+02
3459	5.65997e+02	3.45900e+03	4.64353e-03	5.66500e+02
3463	5.66643e+02	3.46300e+03	4.64747e-03	5.67167e+02
3467	5.67310e+02	3.46700e+03	4.66640e-03	5.67833e+02
3471	5.67969e+02	3.47100e+03	4.63399e-03	5.68500e+02
3475	5.68644e+02	3.47500e+03	4.62688e-03	5.69167e+02
3479	5.69308e+02	3.47900e+03	4.62028e-03	5.69833e+02
3483	5.69951e+02	3.48300e+03	4.60050e-03	5.70500e+02
3487	5.70614e+02	3.48700e+03	4.62130e-03	5.71167e+02
3491	5.71268e+02	3.49100e+03	4.65825e-03	5.71833e+02
3495	5.71926e+02	3.49500e+03	4.67405e-03	5.72500e+02
3499	5.72586e+02	3.49900e+03	4.66391e-03	5.73167e+02
3503	5.73250e+02	3.50300e+03	4.68130e-03	5.73833e+02
3507	5.73906e+02	3.50700e+03	4.66531e-03	5.74500e+02
3511	5.74565e+02	3.51100e+03	4.48014e-03	5.75167e+02
3515	5.75211e+02	3.51500e+03	4.31143e-03	5.75833e+02
3519	5.75874e+02	3.51900e+03	4.33687e-03	5.76500e+02
3523	5.76534e+02	3.52300e+03	4.36915e-03	5.77167e+02
3527	5.77195e+02	3.52700e+03	4.40713e-03	5.77833e+02
3531	5.77856e+02	3.53100e+03	4.48958e-03	5.78500e+02
3535	5.78514e+02	3.53500e+03	4.52797e-03	5.79167e+02
3539	5.79175e+02	3.53900e+03	4.55805e-03	5.79833e+02
3543	5.79831e+02	3.54300e+03	4.57015e-03	5.80500e+02
3547	5.80502e+02	3.54700e+03	4.53827e-03	5.81167e+02
3551	5.81159e+02	3.55100e+03	4.49906e-03	5.81833e+02
3555	5.81820e+02	3.55500e+03	4.45291e-03	5.82500e+02
3559	5.82491e+02	3.55900e+03	4.42346e-03	5.83167e+02
3563	5.83148e+02	3.56300e+03	4.45914e-03	5.83833e+02
3567	5.83812e+02	3.56700e+03	4.50112e-03	5.84500e+02
3571	5.84471e+02	3.57100e+03	4.47541e-03	5.85167e+02
3575	5.85130e+02	3.57500e+03	4.36550e-03	5.85833e+02
3579	5.85797e+02	3.57900e+03	4.23647e-03	5.86500e+02
3583	5.86456e+02	3.58300e+03	4.21049e-03	5.87167e+02
3587	5.87114e+02	3.58700e+03	4.33253e-03	5.87833e+02
3591	5.87775e+02	3.59100e+03	4.43486e-03	5.88500e+02
3595	5.88432e+02	3.59500e+03	4.35730e-03	5.89167e+02
3599	5.89093e+02	3.59900e+03	4.20062e-03	5.89833e+02
3603	5.89747e+02	3.60300e+03	4.14844e-03	5.90500e+02
3607	5.90405e+02	3.60700e+03	4.21174e-03	5.91167e+02
3611	5.91067e+02	3.61100e+03	4.27383e-03	5.91833e+02
3615	5.91734e+02	3.61500e+03	4.31755e-03	5.92500e+02
3619	5.92399e+02	3.61900e+03	4.36131e-03	5.93167e+02
3623	5.93057e+02	3.62300e+03	4.40017e-03	5.93833e+02
3627	5.93718e+02	3.62700e+03	4.42484e-03	5.94500e+02
3631	5.94375e+02	3.63100e+03	4.40125e-03	5.95167e+02
3635	5.95035e+02	3.63500e+03	4.32802e-03	5.95833e+02
3639	5.95687e+02	3.63900e+03	4.28703e-03	5.96500e+02
3643	5.96349e+02	3.64300e+03	4.28208e-03	5.97167e+02
3647	5.97015e+02	3.64700e+03	4.20913e-03	5.97833e+02
3651	5.97685e+02	3.65100e+03	4.32543e-03	5.98500e+02
3655	5.98331e+02	3.65500e+03	4.66491e-03	5.99167e+02
3659	5.98994e+02	3.65900e+03	4.44403e-03	5.99833e+02
3663	5.99659e+02	3.66300e+03	3.97680e-03	6.00500e+02
3667	6.00322e+02	3.66700e+03	3.97645e-03	6.01167e+02
3671	6.00990e+02	3.67100e+03	4.07162e-03	6.01833e+02
3675	6.01640e+02	3.67500e+03	4.08407e-03	6.02500e+02
3679	6.02307e+02	3.67900e+03	4.08489e-03	6.03167e+02
3683	6.02969e+02	3.68300e+03	4.14323e-03	6.03833e+02
3687	6.03632e+02	3.68700e+03	4.14959e-03	6.04500e+02
3691	6.04300e+02	3.69100e+03	4.04246e-03	6.05167e+02
3695	6.04963e+02	3.69500e+03	4.09382e-03	6.05833e+02
3699	6.05617e+02	3.69900e+03	4.22373e-03	6.06500e+02
3703	6.06284e+02	3.70300e+03	4.19161e-03	6.07167e+02
3707	6.06944e+02	3.70700e+03	4.10762e-03	6.07833e+02
3711	6.07599e+02	3.71100e+03	4.08068e-03	6.08500e+02
3715	6.08269e+02	3.71500e+03	4.08832e-03	6.09167e+02
3719	6.08926e+02	3.71900e+03	4.10247e-03	6.09833e+02
3723	6.09598e+02	3.72300e+03	4.06950e-03	6.10500e+02
3727	6.10242e+02	3.72700e+03	4.06935e-03	6.11167e+02
3731	6.10910e+02	3.73100e+03	4.12327e-03	6.11833e+02
3735	6.11574e+02	3.73500e+03	4.10323e-03	6.12500e+02
3739	6.12238e+02	3.73900e+03	4.08829e-03	6.13167e+02
3743	6.12888e+02	3.74300e+03	4.12534e-03	6.13833e+02
3747	6.13554e+02	3.74700e+03	4.07588e-03	6.14500e+02
3751	6.14218e+02	3.75100e+03	3.95578e-03	6.15167e+02
3755	6.14879e+02	3.75500e+03	3.89433e-03	6.15833e+02
3759	6.15547e+02	3.75900e+03	3.87709e-03	6.16500e+02
3763	6.16197e+02	3.76300e+03	3.90442e-03	6.17167e+02
3767	6.16854e+02	3.76700e+03	3.99139e-03	6.17833e+02
3771	6.17518e+02	3.77100e+03	3.99070e-03	6.18500e+02
3775	6.18180e+02	3.77500e+03	3.93936e-03	6.19167e+02
3779	6.18840e+02	3.77900e+03	4.03683e-03	6.19833e+02
3783	6.19505e+02	3.78300e+03	4.17513e-03	6.20500e+02
3787	6.20172e+02	3.78700e+03	4.13956e-03	6.21167e+02
3791	6.20823e+02	3.79100e+03	3.98517e-03	6.21833e+02
3795	6.21496e+02	3.79500e+03	3.92998e-03	6.22500e+02
3799	6.22158e+02	3.79900e+03	3.99595e-03	6.23167e+02
3803	6.22812e+02	3.80300e+03	3.99754e-03	6.23833e+02
3807	6.23477e+02	3.80700e+03	3.94291e-03	6.24500e+02
3811	6.24140e+02	3.81100e+03	4.04043e-03	6.25167e+02
3815	6.24807e+02	3.81500e+03	4.16539e-03	6.25833e+02
3819	6.25467e+02	3.81900e+03	4.21893e-03	6.26500e+02
3823	6.26142e+02	3.82300e+03	4.18281e-03	6.27167e+02
3827	6.26796e+02	3.82700e+03	4.18597e-03	6.27833e+02
3831	6.27462e+02	3.83100e+03	4.16101e-03	6.28500e+02
3835	6.28127e+02	3.83500e+03	3.93810e-03	6.29167e+02
3839	6.28791e+02	3.83900e+03	3.84301e-03	6.29833e+02
3843	6.29465e+02	3.84300e+03	4.05749e-03	6.30500e+02
3847	6.30122e+02	3.84700e+03	4.23908e-03	6.31167e+02
3851	6.30777e+02	3.85100e+03	4.14031e-03	6.31833e+02
3855	6.31449e+02	3.85500e+03	4.04893e-03	6.32500e+02
3859	6.32113e+02	3.85900e+03	4.05018e-03	6.33167e+02
3863	6.32771e+02	3.86300e+03	4.03979e-03	6.33833e+02
3867	6.33430e+02	3.86700e+03	3.98781e-03	6.34500e+02
3871	6.34093e+02	3.87100e+03	3.97817e-03	6.35167e+02
3875	6.34758e+02	3.87500e+03	4.08760e-03	6.35833e+02
3879	6.35418e+02	3.87900e+03	4.08879e-03	6.36500e+02
3883	6.36081e+02	3.88300e+03	3.99900e-03	6.37167e+02
3887	6.36745e+02	3.88700e+03	4.02618e-03	6.37833e+02
3891	6.37395e+02	3.89100e+03	3.96949e-03	6.38500e+02
3895	6.38064e+02	3.89500e+03	3.95410e-03	6.39167e+02
3899	6.38723e+02	3.89900e+03	4.06707e-03	6.39833e+02
3903	6.39405e+02	3.90300e+03	3.95020e-03	6.40500e+02
3907	6.40061e+02	3.90700e+03	4.17634e-03	6.41167e+02
3911	6.40716e+02	3.91100e+03	4.39357e-03	6.41833e+02
3915	6.41389e+02	3.91500e+03	3.87384e-03	6.42500e+02
3919	6.42048e+02	3.91900e+03	3.60228e-03	6.43167e+02
3923	6.42718e+02	3.92300e+03	3.81053e-03	6.43833e+02
3927	6.43379e+02	3.92700e+03	3.87782e-03	6.44500e+02
3931	6.44044e+02	3.93100e+03	3.76114e-03	6.45167e+02
3935	6.44711e+02	3.93500e+03	3.69297e-03	6.45833e+02
3939	6.45370e+02	3.93900e+03	3.65238e-03	6.46500e+02
3943	6.46030e+02	3.94300e+03	3.31196e-03	6.47167e+02
3947	6.46699e+02	3.94700e+03	3.21715e-03	6.47833e+02
3951	6.47359e+02	3.95100e+03	3.72948e-03	6.48500e+02
3955	6.48030e+02	3.95500e+03	4.10381e-03	6.49167e+02
3959	6.48698e+02	3.95900e+03	4.00883e-03	6.49833e+02
3963	6.49357e+02	3.96300e+03	3.89179e-03	6.50500e+02
3967	6.50028e+02	3.96700e+03	3.93292e-03	6.51167e+02
3971	6.50687e+02	3.97100e+03	3.86125e-03	6.51833e+02
3975	6.51345e+02	3.97500e+03	3.80870e-03	6.52500e+02
3979	6.52008e+02	3.97900e+03	3.85803e-03	6.53167e+02
3983	6.52685e+02	3.98300e+03	3.86467e-03	6.53833e+02
3987	6.53340e+02	3.98700e+03	3.83996e-03	6.54500e+02
3991	6.54010e+02	3.99100e+03	3.90383e-03	6.55167e+02
3995	6.54681e+02	3.99500e+03	4.01023e-03	6.55833e+02
3999	6.55346e+02	3.99900e+03	4.03820e-03	6.56500e+02
4003	6.56011e+02	4.00300e+03	3.95513e-03	6.57167e+02
4007	6.56672e+02	4.00700e+03	3.87585e-03	6.57833e+02
4011	6.57347e+02	4.01100e+03	3.85135e-03	6.58500e+02
4015	6.58008e+02	4.01500e+03	3.81636e-03	6.59167e+02
4019	6.58662e+02	4.01900e+03	3.75461e-03	6.59833e+02
4023	6.59343e+02	4.02300e+03	3.71995e-03	6.60500e+02
4027	6.59999e+02	4.02700e+03	3.75044e-03	6.61167e+02
4031	6.60672e+02	4.03100e+03	3.80189e-03	6.61833e+02
4035	6.61338e+02	4.03500e+03	3.83891e-03	6.62500e+02
4039	6.62005e+02	4.03900e+03	3.85486e-03	6.63167e+02
4043	6.62671e+02	4.04300e+03	3.87665e-03	6.63833e+02
4047	6.63328e+02	4.04700e+03	3.86284e-03	6.64500e+02
4051	6.63999e+02	4.05100e+03	3.77265e-03	6.65167e+02
4055	6.64664e+02	4.05500e+03	3.74646e-03	6.65833e+02
4059	6.65329e+02	4.05900e+03	3.80224e-03	6.66500e+02
4063	6.65998e+02	4.06300e+03	3.85349e-03	6.67167e+02
4067	6.66653e+02	4.06700e+03	3.86056e-03	6.67833e+02
4071	6.67325e+02	4.07100e+03	3.86801e-03	6.68500e+02
4075	6.67985e+02	4.07500e+03	3.89484e-03	6.69167e+02
4079	6.68660e+02	4.07900e+03	3.85621e-03	6.69833e+02
4083	6.69318e+02	4.08300e+03	3.77756e-03	6.70500e+02
4087	6.69984e+02	4.08700e+03	3.74977e-03	6.71167e+02
4091	6.70651e+02	4.09100e+03	3.71625e-03	6.71833e+02
4095	6.71314e+02	4.09500e+03	3.70044e-03	6.72500e+02
4099	6.71967e+02	4.09900e+03	3.80227e-03	6.73167e+02
4103	6.72645e+02	4.10300e+03	3.93143e-03	6.73833e+02
4107	6.73311e+02	4.10700e+03	3.99512e-03	6.74500e+02
4111	6.73980e+02	4.11100e+03	3.98475e-03	6.75167e+02
4115	6.74648e+02	4.11500e+03	3.92561e-03	6.75833e+02
4119	6.75310e+02	4.11900e+03	3.88603e-03	6.76500e+02
4123	6.75981e+02	4.12300e+03	3.87972e-03	6.77167e+02
4127	6.76643e+02	4.12700e+03	3.84854e-03	6.77833e+02
4131	6.77295e+02	4.13100e+03	3.80491e-03	6.78500e+02
4135	6.77970e+02	4.13500e+03	3.76281e-03	6.79167e+02
4139	6.78641e+02	4.13900e+03	3.69749e-03	6.79833e+02
4143	6.79308e+02	4.14300e+03	3.62367e-03	6.80500e+02
4147	6.79971e+02	4.14700e+03	3.57510e-03	6.81167e+02
4151	6.80644e+02	4.15100e+03	3.56874e-03	6.81833e+02
4155	6.81307e+02	4.15500e+03	3.62860e-03	6.82500e+02
4159	6.81971e+02	4.15900e+03	3.70921e-03	6.83167e+02
4163	6.82638e+02	4.16300e+03	3.73680e-03	6.83833e+02
4167	6.83302e+02	4.16700e+03	3.72194e-03	6.84500e+02
4171	6.83974e+02	4.17100e+03	3.71569e-03	6.85167e+02
4175	6.84641e+02	4.17500e+03	3.72202e-03	6.85833e+02
4179	6.85317e+02	4.17900e+03	3.67185e-03	6.86500e+02
4183	6.85977e+02	4.18300e+03	3.57471e-03	6.87167e+02
4187	6.86641e+02	4.18700e+03	3.54058e-03	6.87833e+02
4191	6.87309e+02	4.19100e+03	3.59501e-03	6.88500e+02
4195	6.87984e+02	4.19500e+03	3.69260e-03	6.89167e+02
4199	6.88654e+02	4.19900e+03	3.77506e-03	6.89833e+02
4203	6.89311e+02	4.20300e+03	3.88136e-03	6.90500e+02
4207	6.89980e+02	4.20700e+03	3.99158e-03	6.91167e+02
4211	6.90638e+02	4.21100e+03	4.01231e-03	6.91833e+02
4215	6.91306e+02	4.21500e+03	3.94185e-03	6.92500e+02
4219	6.91975e+02	4.21900e+03	3.87304e-03	6.93167e+02
4223	6.92641e+02	4.22300e+03	3.87351e-03	6.93833e+02
4227	6.93309e+02	4.22700e+03	3.84826e-03	6.94500e+02
4231	6.93981e+02	4.23100e+03	3.80285e-03	6.95167e+02
4235	6.94566e+02	4.23500e+03	3.77514e-03	6.95833e+02
4239	6.95013e+02	4.23900e+03	3.76124e-03	6.96500e+02
4243	6.95494e+02	4.24300e+03	3.80844e-03	6.97167e+02
4247	6.95917e+02	4.24700e+03	3.89301e-03	6.97833e+02
4251	6.96290e+02	4.25100e+03	3.98497e-03	6.98500e+02
4255	6.96625e+02	4.25500e+03	4.02589e-03	6.99167e+02
4259	6.96924e+02	4.25900e+03	3.94858e-03	6.99833e+02
4260	6.96986e+02	4.26000e+03	3.90562e-03	7.00000e+02