File: Experiments/TGA/TUBS/tga_nonisotherm/tga_dynamic_n2high50_dyn30_powder_3mg_r3.txt
Index	Ts	t	Weight	Tr
[#]	[°C]	[s]	[mg]	[°C]
681	1.30112e+02	6.81000e+02	2.99863	130.5
683	1.31131e+02	6.83000e+02	2.9986	131.5
685	1.32151e+02	6.85000e+02	2.9986	132.5
687	1.33203e+02	6.87000e+02	2.99857	133.5
689	1.34195e+02	6.89000e+02	2.99853	134.5
691	1.35206e+02	6.91000e+02	2.99848	135.5
693	1.36225e+02	6.93000e+02	2.99839	136.5
695	1.37226e+02	6.95000e+02	2.99828	137.5
697	1.38250e+02	6.97000e+02	2.99812	138.5
699	1.39253e+02	6.99000e+02	2.99796	139.5
701	1.40264e+02	7.01000e+02	2.99775	140.5
703	1.41260e+02	7.03000e+02	2.99756	141.5
705	1.42274e+02	7.05000e+02	2.99736	142.5
707	1.43278e+02	7.07000e+02	2.99716	143.5
709	1.44290e+02	7.09000e+02	2.99693	144.5
711	1.45306e+02	7.11000e+02	2.99668	145.5
713	1.46311e+02	7.13000e+02	2.99638	146.5
715	1.47324e+02	7.15000e+02	2.99608	147.5
717	1.48327e+02	7.17000e+02	2.99573	148.5
719	1.49345e+02	7.19000e+02	2.99538	149.5
721	1.50344e+02	7.21000e+02	2.99503	150.5
723	1.51348e+02	7.23000e+02	2.99469	151.5
725	1.52357e+02	7.25000e+02	2.99434	152.5
727	1.53365e+02	7.27000e+02	2.99397	153.5
729	1.54375e+02	7.29000e+02	2.99354	154.5
731	1.55376e+02	7.31000e+02	2.99309	155.5
733	1.56375e+02	7.33000e+02	2.99262	156.5
735	1.57384e+02	7.35000e+02	2.99217	157.5
737	1.58385e+02	7.37000e+02	2.99171	158.5
739	1.59397e+02	7.39000e+02	2.99125	159.5
741	1.60418e+02	7.41000e+02	2.99078	160.5
743	1.61421e+02	7.43000e+02	2.9903	161.5
745	1.62427e+02	7.45000e+02	2.98978	162.5
747	1.63443e+02	7.47000e+02	2.98924	163.5
749	1.64433e+02	7.49000e+02	2.98863	164.5
751	1.65455e+02	7.51000e+02	2.988	165.5
753	1.66461e+02	7.53000e+02	2.9873	166.5
755	1.67477e+02	7.55000e+02	2.98658	167.5
757	1.68495e+02	7.57000e+02	2.98578	168.5
759	1.69507e+02	7.59000e+02	2.98498	169.5
761	1.70526e+02	7.61000e+02	2.98411	170.5
763	1.71542e+02	7.63000e+02	2.9832	171.5
765	1.72551e+02	7.65000e+02	2.98217	172.5
767	1.73571e+02	7.67000e+02	2.9811	173.5
769	1.74584e+02	7.69000e+02	2.97989	174.5
771	1.75603e+02	7.71000e+02	2.97866	175.5
773	1.76612e+02	7.73000e+02	2.9773	176.5
775	1.77629e+02	7.75000e+02	2.97588	177.5
777	1.78651e+02	7.77000e+02	2.97423	178.5
779	1.79667e+02	7.79000e+02	2.97249	179.5
781	1.80690e+02	7.81000e+02	2.97046	180.5
783	1.81692e+02	7.83000e+02	2.96839	181.5
785	1.82717e+02	7.85000e+02	2.96607	182.5
787	1.83731e+02	7.87000e+02	2.96371	183.5
789	1.84744e+02	7.89000e+02	2.96115	184.5
791	1.85755e+02	7.91000e+02	2.95854	185.5
793	1.86773e+02	7.93000e+02	2.95574	186.5
795	1.87794e+02	7.95000e+02	2.9529	187.5
797	1.88819e+02	7.97000e+02	2.94988	188.5
799	1.89832e+02	7.99000e+02	2.94682	189.5
801	1.90846e+02	8.01000e+02	2.94359	190.5
803	1.91866e+02	8.03000e+02	2.9403	191.5
805	1.92893e+02	8.05000e+02	2.93686	192.5
807	1.93910e+02	8.07000e+02	2.93342	193.5
809	1.94932e+02	8.09000e+02	2.92992	194.5
811	1.95952e+02	8.11000e+02	2.92644	195.5
813	1.96974e+02	8.13000e+02	2.92295	196.5
815	1.97980e+02	8.15000e+02	2.91949	197.5
817	1.98996e+02	8.17000e+02	2.91608	198.5
819	2.00021e+02	8.19000e+02	2.91275	199.5
821	2.01040e+02	8.21000e+02	2.90961	200.5
823	2.02058e+02	8.23000e+02	2.90657	201.5
825	2.03072e+02	8.25000e+02	2.90379	202.5
827	2.04109e+02	8.27000e+02	2.90106	203.5
829	2.05122e+02	8.29000e+02	2.89856	204.5
831	2.06137e+02	8.31000e+02	2.89611	205.5
833	2.07153e+02	8.33000e+02	2.89389	206.5
835	2.08172e+02	8.35000e+02	2.89176	207.5
837	2.09201e+02	8.37000e+02	2.88992	208.5
839	2.10231e+02	8.39000e+02	2.88816	209.5
841	2.11255e+02	8.41000e+02	2.88669	210.5
843	2.12273e+02	8.43000e+02	2.88526	211.5
845	2.13296e+02	8.45000e+02	2.88403	212.5
847	2.14320e+02	8.47000e+02	2.88284	213.5
849	2.15335e+02	8.49000e+02	2.88183	214.5
851	2.16354e+02	8.51000e+02	2.88084	215.5
853	2.17375e+02	8.53000e+02	2.87997	216.5
855	2.18384e+02	8.55000e+02	2.8791	217.5
857	2.19410e+02	8.57000e+02	2.8783	218.5
859	2.20430e+02	8.59000e+02	2.87753	219.5
861	2.21433e+02	8.61000e+02	2.87681	220.5
863	2.22449e+02	8.63000e+02	2.87609	221.5
865	2.23457e+02	8.65000e+02	2.87538	222.5
867	2.24474e+02	8.67000e+02	2.87467	223.5
869	2.25469e+02	8.69000e+02	2.87394	224.5
871	2.26487e+02	8.71000e+02	2.87321	225.5
873	2.27478e+02	8.73000e+02	2.87249	226.5
875	2.28486e+02	8.75000e+02	2.87179	227.5
877	2.29472e+02	8.77000e+02	2.87111	228.5
879	2.30455e+02	8.79000e+02	2.87044	229.5
881	2.31454e+02	8.81000e+02	2.86977	230.5
883	2.32450e+02	8.83000e+02	2.86909	231.5
885	2.33445e+02	8.85000e+02	2.86838	232.5
887	2.34459e+02	8.87000e+02	2.86767	233.5
889	2.35470e+02	8.89000e+02	2.86697	234.5
891	2.36474e+02	8.91000e+02	2.86629	235.5
893	2.37483e+02	8.93000e+02	2.86564	236.5
895	2.38483e+02	8.95000e+02	2.86498	237.5
897	2.39505e+02	8.97000e+02	2.8643	238.5
899	2.40514e+02	8.99000e+02	2.86359	239.5
901	2.41530e+02	9.01000e+02	2.86285	240.5
903	2.42535e+02	9.03000e+02	2.86214	241.5
905	2.43542e+02	9.05000e+02	2.86146	242.5
907	2.44537e+02	9.07000e+02	2.8608	243.5
909	2.45551e+02	9.09000e+02	2.86021	244.5
911	2.46557e+02	9.11000e+02	2.85963	245.5
913	2.47564e+02	9.13000e+02	2.85907	246.5
915	2.48578e+02	9.15000e+02	2.85851	247.5
917	2.49581e+02	9.17000e+02	2.85796	248.5
919	2.50596e+02	9.19000e+02	2.85742	249.5
921	2.51638e+02	9.21000e+02	2.85692	250.5
923	2.52643e+02	9.23000e+02	2.85641	251.5
925	2.53725e+02	9.25000e+02	2.85593	252.5
927	2.54771e+02	9.27000e+02	2.85544	253.5
929	2.55766e+02	9.29000e+02	2.85496	254.5
931	2.56777e+02	9.31000e+02	2.85448	255.5
933	2.57816e+02	9.33000e+02	2.85397	256.5
935	2.58915e+02	9.35000e+02	2.85346	257.5
937	2.59966e+02	9.37000e+02	2.85296	258.5
939	2.60997e+02	9.39000e+02	2.85249	259.5
941	2.62022e+02	9.41000e+02	2.85207	260.5
943	2.63085e+02	9.43000e+02	2.85165	261.5
945	2.64137e+02	9.45000e+02	2.85125	262.5
947	2.65209e+02	9.47000e+02	2.85082	263.5
949	2.66218e+02	9.49000e+02	2.85036	264.5
951	2.67221e+02	9.51000e+02	2.84986	265.5
953	2.68225e+02	9.53000e+02	2.84929	266.5
955	2.69229e+02	9.55000e+02	2.84869	267.5
957	2.70261e+02	9.57000e+02	2.84803	268.5
959	2.71267e+02	9.59000e+02	2.8474	269.5
961	2.72280e+02	9.61000e+02	2.8468	270.5
963	2.73292e+02	9.63000e+02	2.8462	271.5
965	2.74309e+02	9.65000e+02	2.8456	272.5
967	2.75320e+02	9.67000e+02	2.84498	273.5
969	2.76320e+02	9.69000e+02	2.84433	274.5
971	2.77336e+02	9.71000e+02	2.84366	275.5
973	2.78346e+02	9.73000e+02	2.84294	276.5
975	2.79357e+02	9.75000e+02	2.84219	277.5
977	2.80362e+02	9.77000e+02	2.84137	278.5
979	2.81397e+02	9.79000e+02	2.84053	279.5
981	2.82439e+02	9.81000e+02	2.83959	280.5
983	2.83458e+02	9.83000e+02	2.83863	281.5
985	2.84480e+02	9.85000e+02	2.83755	282.5
987	2.85500e+02	9.87000e+02	2.83644	283.5
989	2.86537e+02	9.89000e+02	2.83524	284.5
991	2.87549e+02	9.91000e+02	2.834	285.5
993	2.88612e+02	9.93000e+02	2.83263	286.5
995	2.89627e+02	9.95000e+02	2.83121	287.5
997	2.90582e+02	9.97000e+02	2.82963	288.5
999	2.91556e+02	9.99000e+02	2.82801	289.5
1001	2.92541e+02	1.00100e+03	2.82622	290.5
1003	2.93579e+02	1.00300e+03	2.82438	291.5
1005	2.94603e+02	1.00500e+03	2.82236	292.5
1007	2.95626e+02	1.00700e+03	2.82027	293.5
1009	2.96664e+02	1.00900e+03	2.81798	294.5
1011	2.97706e+02	1.01100e+03	2.81563	295.5
1013	2.98786e+02	1.01300e+03	2.81305	296.5
1015	2.99812e+02	1.01500e+03	2.81044	297.5
1017	3.00837e+02	1.01700e+03	2.8076	298.5
1019	3.01896e+02	1.01900e+03	2.80469	299.5
1021	3.02868e+02	1.02100e+03	2.80154	300.5
1023	3.03926e+02	1.02300e+03	2.79832	301.5
1025	3.04927e+02	1.02500e+03	2.79488	302.5
1027	3.05918e+02	1.02700e+03	2.79141	303.5
1029	3.06994e+02	1.02900e+03	2.78778	304.5
1031	3.07950e+02	1.03100e+03	2.78411	305.5
1033	3.08940e+02	1.03300e+03	2.78029	306.5
1035	3.09963e+02	1.03500e+03	2.77644	307.5
1037	3.10991e+02	1.03700e+03	2.77245	308.5
1039	3.12050e+02	1.03900e+03	2.76842	309.5
1041	3.13131e+02	1.04100e+03	2.76424	310.5
1043	3.14255e+02	1.04300e+03	2.76005	311.5
1045	3.15246e+02	1.04500e+03	2.75575	312.5
1047	3.16243e+02	1.04700e+03	2.75146	313.5
1049	3.17308e+02	1.04900e+03	2.74714	314.5
1051	3.18276e+02	1.05100e+03	2.74284	315.5
1053	3.19242e+02	1.05300e+03	2.73854	316.5
1055	3.20217e+02	1.05500e+03	2.7342	317.5
1057	3.21197e+02	1.05700e+03	2.72983	318.5
1059	3.22236e+02	1.05900e+03	2.72545	319.5
1061	3.23252e+02	1.06100e+03	2.72101	320.5
1063	3.24244e+02	1.06300e+03	2.71654	321.5
1065	3.25293e+02	1.06500e+03	2.71196	322.5
1067	3.26329e+02	1.06700e+03	2.70732	323.5
1069	3.27347e+02	1.06900e+03	2.7025	324.5
1071	3.28367e+02	1.07100e+03	2.6976	325.5
1073	3.29302e+02	1.07300e+03	2.69246	326.5
1075	3.30329e+02	1.07500e+03	2.68724	327.5
1077	3.31310e+02	1.07700e+03	2.68172	328.5
1079	3.32351e+02	1.07900e+03	2.67608	329.5
1081	3.33367e+02	1.08100e+03	2.66995	330.5
1083	3.34375e+02	1.08300e+03	2.66358	331.5
1085	3.35392e+02	1.08500e+03	2.65651	332.5
1087	3.36412e+02	1.08700e+03	2.64924	333.5
1089	3.37434e+02	1.08900e+03	2.64121	334.5
1091	3.38451e+02	1.09100e+03	2.63303	335.5
1093	3.39482e+02	1.09300e+03	2.62409	336.5
1095	3.40522e+02	1.09500e+03	2.61492	337.5
1097	3.41542e+02	1.09700e+03	2.60488	338.5
1099	3.42613e+02	1.09900e+03	2.59456	339.5
1101	3.43681e+02	1.10100e+03	2.58321	340.5
1103	3.44730e+02	1.10300e+03	2.57157	341.5
1105	3.45749e+02	1.10500e+03	2.55877	342.5
1107	3.46693e+02	1.10700e+03	2.54562	343.5
1109	3.47659e+02	1.10900e+03	2.53117	344.5
1111	3.48649e+02	1.11100e+03	2.51639	345.5
1113	3.49683e+02	1.11300e+03	2.50024	346.5
1115	3.50680e+02	1.11500e+03	2.48374	347.5
1117	3.51708e+02	1.11700e+03	2.46579	348.5
1119	3.52722e+02	1.11900e+03	2.44744	349.5
1121	3.53733e+02	1.12100e+03	2.42751	350.5
1123	3.54711e+02	1.12300e+03	2.40714	351.5
1125	3.55723e+02	1.12500e+03	2.38508	352.5
1127	3.56680e+02	1.12700e+03	2.3626	353.5
1129	3.57681e+02	1.12900e+03	2.3384	354.5
1131	3.58648e+02	1.13100e+03	2.31382	355.5
1133	3.59602e+02	1.13300e+03	2.28751	356.5
1135	3.60586e+02	1.13500e+03	2.26081	357.5
1137	3.61558e+02	1.13700e+03	2.2324	358.5
1139	3.62523e+02	1.13900e+03	2.20365	359.5
1141	3.63476e+02	1.14100e+03	2.17326	360.5
1143	3.64455e+02	1.14300e+03	2.14249	361.5
1145	3.65428e+02	1.14500e+03	2.11013	362.5
1147	3.66402e+02	1.14700e+03	2.07743	363.5
1149	3.67377e+02	1.14900e+03	2.04322	364.5
1151	3.68366e+02	1.15100e+03	2.0087	365.5
1153	3.69352e+02	1.15300e+03	1.97281	366.5
1155	3.70344e+02	1.15500e+03	1.93664	367.5
1157	3.71320e+02	1.15700e+03	1.89912	368.5
1159	3.72316e+02	1.15900e+03	1.86124	369.5
1161	3.73274e+02	1.16100e+03	1.82195	370.5
1163	3.74284e+02	1.16300e+03	1.78236	371.5
1165	3.75293e+02	1.16500e+03	1.74145	372.5
1167	3.76281e+02	1.16700e+03	1.7003	373.5
1169	3.77295e+02	1.16900e+03	1.65802	374.5
1171	3.78270e+02	1.17100e+03	1.61558	375.5
1173	3.79253e+02	1.17300e+03	1.57217	376.5
1175	3.80258e+02	1.17500e+03	1.52854	377.5
1177	3.81248e+02	1.17700e+03	1.48391	378.5
1179	3.82259e+02	1.17900e+03	1.43909	379.5
1181	3.83278e+02	1.18100e+03	1.3934	380.5
1183	3.84260e+02	1.18300e+03	1.3477	381.5
1185	3.85238e+02	1.18500e+03	1.30157	382.5
1187	3.86228e+02	1.18700e+03	1.25562	383.5
1189	3.87222e+02	1.18900e+03	1.2098	384.5
1191	3.88202e+02	1.19100e+03	1.16423	385.5
1193	3.89155e+02	1.19300e+03	1.11913	386.5
1195	3.90130e+02	1.19500e+03	1.07415	387.5
1197	3.91078e+02	1.19700e+03	1.02961	388.5
1199	3.92054e+02	1.19900e+03	0.985158	389.5
1201	3.93036e+02	1.20100e+03	0.941171	390.5
1203	3.94025e+02	1.20300e+03	0.897343	391.5
1205	3.95017e+02	1.20500e+03	0.854188	392.5
1207	3.95998e+02	1.20700e+03	0.81134	393.5
1209	3.96996e+02	1.20900e+03	0.769483	394.5
1211	3.97998e+02	1.21100e+03	0.728009	395.5
1213	3.98989e+02	1.21300e+03	0.687923	396.5
1215	3.99981e+02	1.21500e+03	0.648396	397.5
1217	4.01006e+02	1.21700e+03	0.610714	398.5
1219	4.02014e+02	1.21900e+03	0.573603	399.5
1221	4.03027e+02	1.22100e+03	0.538675	400.5
1223	4.04026e+02	1.22300e+03	0.50438	401.5
1225	4.05035e+02	1.22500e+03	0.472498	402.5
1227	4.06056e+02	1.22700e+03	0.441228	403.5
1229	4.07064e+02	1.22900e+03	0.412449	404.5
1231	4.08082e+02	1.23100e+03	0.384264	405.5
1233	4.09092e+02	1.23300e+03	0.35858	406.5
1235	4.10085e+02	1.23500e+03	0.333482	407.5
1237	4.11108e+02	1.23700e+03	0.310823	408.5
1239	4.12108e+02	1.23900e+03	0.288661	409.5
1241	4.13114e+02	1.24100e+03	0.268783	410.5
1243	4.14121e+02	1.24300e+03	0.249381	411.5
1245	4.15127e+02	1.24500e+03	0.232095	412.5
1247	4.16135e+02	1.24700e+03	0.215217	413.5
1249	4.17169e+02	1.24900e+03	0.200289	414.5
1251	4.18248e+02	1.25100e+03	0.185769	415.5
1253	4.19301e+02	1.25300e+03	0.173095	416.5
1255	4.20320e+02	1.25500e+03	0.160794	417.5
1257	4.21368e+02	1.25700e+03	0.150199	418.5
1259	4.22441e+02	1.25900e+03	0.139922	419.5
1261	4.23594e+02	1.26100e+03	0.131163	420.5
1263	4.24885e+02	1.26300e+03	0.122671	421.5
1265	4.25877e+02	1.26500e+03	0.115506	422.5
1267	4.26955e+02	1.26700e+03	0.108578	423.5
1269	4.28044e+02	1.26900e+03	0.102824	424.5
1271	4.28989e+02	1.27100e+03	0.0972859	425.5
1273	4.29916e+02	1.27300e+03	0.0927669	426.5
1275	4.30954e+02	1.27500e+03	0.0883941	427.5
1277	4.31940e+02	1.27700e+03	0.0848503	428.5
1279	4.32986e+02	1.27900e+03	0.0814272	429.5
1281	4.33996e+02	1.28100e+03	0.0786734	430.5
1283	4.34952e+02	1.28300e+03	0.0760048	431.5
1285	4.35922e+02	1.28500e+03	0.0738495	432.5
1287	4.36855e+02	1.28700e+03	0.0717519	433.5
1289	4.37823e+02	1.28900e+03	0.070053	434.5
1291	4.38708e+02	1.29100e+03	0.0684186	435.5
1293	4.39659e+02	1.29300e+03	0.0671091	436.5
1295	4.40620e+02	1.29500e+03	0.065829	437.5
1297	4.41606e+02	1.29700e+03	0.0647801	438.5
1299	4.42608e+02	1.29900e+03	0.0637609	439.5
1301	4.43662e+02	1.30100e+03	0.0629295	440.5
1303	4.44645e+02	1.30300e+03	0.0621435	441.5
1305	4.45663e+02	1.30500e+03	0.0615355	442.5
1307	4.46661e+02	1.30700e+03	0.0609608	443.5
1309	4.47613e+02	1.30900e+03	0.0605516	444.5
1311	4.48660e+02	1.31100e+03	0.0601557	445.5
1313	4.49572e+02	1.31300e+03	0.0598565	446.5
1315	4.50609e+02	1.31500e+03	0.0595385	447.5
1317	4.51643e+02	1.31700e+03	0.0592528	448.5
1319	4.52690e+02	1.31900e+03	0.0589772	449.5
1321	4.53704e+02	1.32100e+03	0.0587348	450.5
1323	4.54593e+02	1.32300e+03	0.0584964	451.5
1325	4.55854e+02	1.32500e+03	0.0582873	452.5
1327	4.56775e+02	1.32700e+03	0.0580911	453.5
1329	4.57729e+02	1.32900e+03	0.0579562	454.5
1331	4.58632e+02	1.33100e+03	0.0578579	455.5
1333	4.59547e+02	1.33300e+03	0.057846	456.5
1335	4.60440e+02	1.33500e+03	0.0578339	457.5
1337	4.61387e+02	1.33700e+03	0.0578497	458.5
1339	4.62331e+02	1.33900e+03	0.057834	459.5
1341	4.63296e+02	1.34100e+03	0.057775	460.5
1343	4.64266e+02	1.34300e+03	0.057708	461.5
1345	4.65221e+02	1.34500e+03	0.0576186	462.5
1347	4.66161e+02	1.34700e+03	0.0575534	463.5
1349	4.67132e+02	1.34900e+03	0.0575184	464.5
1351	4.68094e+02	1.35100e+03	0.0574905	465.5
1353	4.69040e+02	1.35300e+03	0.0574761	466.5
1355	4.70001e+02	1.35500e+03	0.0574433	467.5
1357	4.70960e+02	1.35700e+03	0.0573836	468.5
1359	4.71927e+02	1.35900e+03	0.0573183	469.5
1361	4.72879e+02	1.36100e+03	0.057256	470.5
1363	4.73848e+02	1.36300e+03	0.0572291	471.5
1365	4.74800e+02	1.36500e+03	0.0572607	472.5
1367	4.75764e+02	1.36700e+03	0.0572984	473.5
1369	4.76724e+02	1.36900e+03	0.0573623	474.5
1371	4.77676e+02	1.37100e+03	0.0574036	475.5
1373	4.78683e+02	1.37300e+03	0.057409	476.5
1375	4.79638e+02	1.37500e+03	0.057397	477.5
1377	4.80599e+02	1.37700e+03	0.0573451	478.5
1379	4.81490e+02	1.37900e+03	0.0573101	479.5
1381	4.82483e+02	1.38100e+03	0.0572952	480.5
1383	4.83455e+02	1.38300e+03	0.0573004	481.5
1385	4.84398e+02	1.38500e+03	0.0573278	482.5
1387	4.85347e+02	1.38700e+03	0.0573265	483.5
1389	4.86236e+02	1.38900e+03	0.0572836	484.5
1391	4.87130e+02	1.39100e+03	0.0572293	485.5
1393	4.88082e+02	1.39300e+03	0.0571436	486.5
1395	4.89041e+02	1.39500e+03	0.0570719	487.5
1397	4.90013e+02	1.39700e+03	0.0570044	488.5
1399	4.90991e+02	1.39900e+03	0.0569361	489.5
1401	4.91989e+02	1.40100e+03	0.0568771	490.5
1403	4.92960e+02	1.40300e+03	0.0568292	491.5
1405	4.93958e+02	1.40500e+03	0.0568008	492.5
1407	4.94930e+02	1.40700e+03	0.0567725	493.5
1409	4.95908e+02	1.40900e+03	0.056756	494.5
1411	4.96897e+02	1.41100e+03	0.0567382	495.5
1413	4.97883e+02	1.41300e+03	0.0567298	496.5
1415	4.98870e+02	1.41500e+03	0.0567249	497.5
1417	4.99880e+02	1.41700e+03	0.0567329	498.5
1419	5.00907e+02	1.41900e+03	0.056735	499.5
1421	5.01923e+02	1.42100e+03	0.0567345	500.5
1423	5.02953e+02	1.42300e+03	0.0567283	501.5
1425	5.04003e+02	1.42500e+03	0.0567029	502.5
1427	5.04985e+02	1.42700e+03	0.0566689	503.5
1429	5.06034e+02	1.42900e+03	0.056617	504.5
1431	5.07107e+02	1.43100e+03	0.0565782	505.5
1433	5.08189e+02	1.43300e+03	0.056551	506.5
1435	5.09276e+02	1.43500e+03	0.056532	507.5
1437	5.10286e+02	1.43700e+03	0.0565349	508.5
1439	5.11265e+02	1.43900e+03	0.0565413	509.5
1441	5.12230e+02	1.44100e+03	0.0565624	510.5
1443	5.13257e+02	1.44300e+03	0.0565744	511.5
1445	5.14274e+02	1.44500e+03	0.0565691	512.5
1447	5.15339e+02	1.44700e+03	0.0565503	513.5
1449	5.16309e+02	1.44900e+03	0.0565056	514.5
1451	5.17326e+02	1.45100e+03	0.056473	515.5
1453	5.18334e+02	1.45300e+03	0.0564509	516.5
1455	5.19356e+02	1.45500e+03	0.0564411	517.5
1457	5.20424e+02	1.45700e+03	0.0564547	518.5
1459	5.21429e+02	1.45900e+03	0.0564613	519.5
1461	5.22456e+02	1.46100e+03	0.0564639	520.5
1463	5.23551e+02	1.46300e+03	0.0564548	521.5
1465	5.24520e+02	1.46500e+03	0.0564302	522.5
1467	5.25415e+02	1.46700e+03	0.0564137	523.5
1469	5.26313e+02	1.46900e+03	0.0564056	524.5
1471	5.27194e+02	1.47100e+03	0.056401	525.5
1473	5.28075e+02	1.47300e+03	0.0564085	526.5
1475	5.29023e+02	1.47500e+03	0.0564124	527.5
1477	5.29973e+02	1.47700e+03	0.0564105	528.5
1479	5.30924e+02	1.47900e+03	0.0563982	529.5
1481	5.31859e+02	1.48100e+03	0.056372	530.5
1483	5.32767e+02	1.48300e+03	0.0563481	531.5
1485	5.33693e+02	1.48500e+03	0.0563177	532.5
1487	5.34645e+02	1.48700e+03	0.0562906	533.5
1489	5.35614e+02	1.48900e+03	0.0562707	534.5
1491	5.36594e+02	1.49100e+03	0.05626	535.5
1493	5.37577e+02	1.49300e+03	0.0562678	536.5
1495	5.38549e+02	1.49500e+03	0.0562797	537.5
1497	5.39507e+02	1.49700e+03	0.0563075	538.5
1499	5.40472e+02	1.49900e+03	0.0563353	539.5
1501	5.41406e+02	1.50100e+03	0.0563641	540.5
1503	5.42366e+02	1.50300e+03	0.0563808	541.5
1505	5.43343e+02	1.50500e+03	0.0563781	542.5
1507	5.44349e+02	1.50700e+03	0.0563711	543.5
1509	5.45328e+02	1.50900e+03	0.0563494	544.5
1511	5.46300e+02	1.51100e+03	0.0563348	545.5
1513	5.47292e+02	1.51300e+03	0.0563282	546.5
1515	5.48297e+02	1.51500e+03	0.0563299	547.5
1517	5.49252e+02	1.51700e+03	0.056349	548.5
1519	5.50243e+02	1.51900e+03	0.0563602	549.5
1521	5.51244e+02	1.52100e+03	0.0563632	550.5
1523	5.52256e+02	1.52300e+03	0.0563468	551.5
1525	5.53196e+02	1.52500e+03	0.0563035	552.5
1527	5.54159e+02	1.52700e+03	0.0562652	553.5
1529	5.55100e+02	1.52900e+03	0.0562265	554.5
1531	5.56031e+02	1.53100e+03	0.0561934	555.5
1533	5.56920e+02	1.53300e+03	0.056163	556.5
1535	5.57867e+02	1.53500e+03	0.0561278	557.5
1537	5.58805e+02	1.53700e+03	0.0560897	558.5
1539	5.59753e+02	1.53900e+03	0.0560605	559.5
1541	5.60723e+02	1.54100e+03	0.0560395	560.5
1543	5.61664e+02	1.54300e+03	0.0560177	561.5
1545	5.62634e+02	1.54500e+03	0.055987	562.5
1547	5.63602e+02	1.54700e+03	0.0559524	563.5
1549	5.64552e+02	1.54900e+03	0.0559211	564.5
1551	5.65506e+02	1.55100e+03	0.0559122	565.5
1553	5.66467e+02	1.55300e+03	0.0559382	566.5
1555	5.67426e+02	1.55500e+03	0.0559638	567.5
1557	5.68396e+02	1.55700e+03	0.0559998	568.5
1559	5.69346e+02	1.55900e+03	0.0560236	569.5
1561	5.70316e+02	1.56100e+03	0.0560321	570.5
1563	5.71293e+02	1.56300e+03	0.0560377	571.5
1565	5.72255e+02	1.56500e+03	0.0560358	572.5
1567	5.73229e+02	1.56700e+03	0.0560377	573.5
1569	5.74196e+02	1.56900e+03	0.0560417	574.5
1571	5.75160e+02	1.57100e+03	0.0560462	575.5
1573	5.76135e+02	1.57300e+03	0.0560516	576.5
1575	5.77110e+02	1.57500e+03	0.0560537	577.5
1577	5.78100e+02	1.57700e+03	0.0560466	578.5
1579	5.79075e+02	1.57900e+03	0.056043	579.5
1581	5.80057e+02	1.58100e+03	0.0560466	580.5
1583	5.81031e+02	1.58300e+03	0.0560645	581.5
1585	5.82007e+02	1.58500e+03	0.0560966	582.5
1587	5.82981e+02	1.58700e+03	0.0561139	583.5
1589	5.83964e+02	1.58900e+03	0.0561131	584.5
1591	5.84945e+02	1.59100e+03	0.0561022	585.5
1593	5.85919e+02	1.59300e+03	0.056081	586.5
1595	5.86905e+02	1.59500e+03	0.0560718	587.5
1597	5.87863e+02	1.59700e+03	0.0560738	588.5
1599	5.88848e+02	1.59900e+03	0.0560705	589.5
1601	5.89841e+02	1.60100e+03	0.0560603	590.5
1603	5.90850e+02	1.60300e+03	0.0560513	591.5
1605	5.91859e+02	1.60500e+03	0.0560397	592.5
1607	5.92837e+02	1.60700e+03	0.0560387	593.5
1609	5.93818e+02	1.60900e+03	0.0560541	594.5
1611	5.94837e+02	1.61100e+03	0.056069	595.5
1613	5.95893e+02	1.61300e+03	0.0560936	596.5
1615	5.96923e+02	1.61500e+03	0.0561155	597.5
1617	5.99417e+02	1.61700e+03	0.056132	598.5
1619	6.00104e+02	1.61900e+03	0.0561331	599.5
1621	6.00994e+02	1.62100e+03	0.0561089	600.5
1623	6.01914e+02	1.62300e+03	0.0560856	601.5
1625	6.02856e+02	1.62500e+03	0.0560633	602.5
1627	6.03835e+02	1.62700e+03	0.056061	603.5
1629	6.04815e+02	1.62900e+03	0.056091	604.5
1631	6.05808e+02	1.63100e+03	0.0561133	605.5
1633	6.06773e+02	1.63300e+03	0.0561346	606.5
1635	6.07742e+02	1.63500e+03	0.0561356	607.5
1637	6.08716e+02	1.63700e+03	0.0561104	608.5
1639	6.09696e+02	1.63900e+03	0.0560979	609.5
1641	6.10678e+02	1.64100e+03	0.0560943	610.5
1643	6.11648e+02	1.64300e+03	0.0561063	611.5
1645	6.12602e+02	1.64500e+03	0.0561325	612.5
1647	6.13566e+02	1.64700e+03	0.0561379	613.5
1649	6.14569e+02	1.64900e+03	0.0561158	614.5
1651	6.15560e+02	1.65100e+03	0.0560804	615.5
1653	6.16566e+02	1.65300e+03	0.0560213	616.5
1655	6.17550e+02	1.65500e+03	0.055971	617.5
1657	6.18519e+02	1.65700e+03	0.0559245	618.5
1659	6.19464e+02	1.65900e+03	0.0558905	619.5
1661	6.20466e+02	1.66100e+03	0.0558813	620.5
1663	6.21454e+02	1.66300e+03	0.0558886	621.5
1665	6.22417e+02	1.66500e+03	0.055928	622.5
1667	6.23382e+02	1.66700e+03	0.0559625	623.5
1669	6.24301e+02	1.66900e+03	0.0559968	624.5
1671	6.25210e+02	1.67100e+03	0.0560066	625.5
1673	6.26138e+02	1.67300e+03	0.0559873	626.5
1675	6.27079e+02	1.67500e+03	0.055973	627.5
1677	6.28032e+02	1.67700e+03	0.0559536	628.5
1679	6.28996e+02	1.67900e+03	0.0559502	629.5
1681	6.29952e+02	1.68100e+03	0.0559594	630.5
1683	6.30920e+02	1.68300e+03	0.0559493	631.5
1685	6.31899e+02	1.68500e+03	0.0559353	632.5
1687	6.32867e+02	1.68700e+03	0.0559165	633.5
1689	6.33854e+02	1.68900e+03	0.0558999	634.5
1691	6.34824e+02	1.69100e+03	0.0558951	635.5
1693	6.35824e+02	1.69300e+03	0.0559065	636.5
1695	6.36806e+02	1.69500e+03	0.0559247	637.5
1697	6.37793e+02	1.69700e+03	0.0559507	638.5
1699	6.38779e+02	1.69900e+03	0.0559599	639.5
1701	6.39760e+02	1.70100e+03	0.055946	640.5
1703	6.40742e+02	1.70300e+03	0.0559223	641.5
1705	6.41734e+02	1.70500e+03	0.0558914	642.5
1707	6.42714e+02	1.70700e+03	0.055879	643.5
1709	6.43702e+02	1.70900e+03	0.0558753	644.5
1711	6.44683e+02	1.71100e+03	0.0558589	645.5
1713	6.45680e+02	1.71300e+03	0.0558272	646.5
1715	6.46661e+02	1.71500e+03	0.055805	647.5
1717	6.47662e+02	1.71700e+03	0.0558019	648.5
1719	6.48646e+02	1.71900e+03	0.0558186	649.5
1721	6.49629e+02	1.72100e+03	0.0558615	650.5
1723	6.50630e+02	1.72300e+03	0.0558852	651.5
1725	6.51608e+02	1.72500e+03	0.0559023	652.5
1727	6.52590e+02	1.72700e+03	0.0559149	653.5
1729	6.53583e+02	1.72900e+03	0.0559079	654.5
1731	6.54560e+02	1.73100e+03	0.0558967	655.5
1733	6.55553e+02	1.73300e+03	0.0558786	656.5
1735	6.56539e+02	1.73500e+03	0.055881	657.5
1737	6.57517e+02	1.73700e+03	0.0559075	658.5
1739	6.58504e+02	1.73900e+03	0.0559319	659.5
1741	6.59509e+02	1.74100e+03	0.0559653	660.5
1743	6.60512e+02	1.74300e+03	0.0559824	661.5
1745	6.61513e+02	1.74500e+03	0.0559763	662.5
1747	6.62514e+02	1.74700e+03	0.055967	663.5
1749	6.63531e+02	1.74900e+03	0.0559486	664.5
1751	6.64517e+02	1.75100e+03	0.0559493	665.5
1753	6.65522e+02	1.75300e+03	0.0559773	666.5
1755	6.66518e+02	1.75500e+03	0.0560137	667.5
1757	6.67514e+02	1.75700e+03	0.0560562	668.5
1759	6.68503e+02	1.75900e+03	0.0560767	669.5
1761	6.69488e+02	1.76100e+03	0.056068	670.5
1763	6.70494e+02	1.76300e+03	0.0560563	671.5
1765	6.71473e+02	1.76500e+03	0.0560345	672.5
1767	6.72456e+02	1.76700e+03	0.0560206	673.5
1769	6.73446e+02	1.76900e+03	0.0560241	674.5
1771	6.74447e+02	1.77100e+03	0.0560386	675.5
1773	6.75437e+02	1.77300e+03	0.056089	676.5
1775	6.76428e+02	1.77500e+03	0.0561501	677.5
1777	6.77420e+02	1.77700e+03	0.0562372	678.5
1779	6.78409e+02	1.77900e+03	0.0563075	679.5
1781	6.79395e+02	1.78100e+03	0.0563425	680.5
1783	6.80381e+02	1.78300e+03	0.0563533	681.5
1785	6.81361e+02	1.78500e+03	0.0563015	682.5
1787	6.82338e+02	1.78700e+03	0.0562517	683.5
1789	6.83310e+02	1.78900e+03	0.0561794	684.5
1791	6.84311e+02	1.79100e+03	0.0561192	685.5
1793	6.85281e+02	1.79300e+03	0.056074	686.5
1795	6.85987e+02	1.79500e+03	0.0560369	687.5
1797	6.86468e+02	1.79700e+03	0.0560343	688.5
1799	6.87190e+02	1.79900e+03	0.0560379	689.5
1801	6.87897e+02	1.80100e+03	0.0560752	690.5
1803	6.88541e+02	1.80300e+03	0.0560829	691.5
1805	6.89175e+02	1.80500e+03	0.0560754	692.5
1807	6.89735e+02	1.80700e+03	0.0560573	693.5
1809	6.90286e+02	1.80900e+03	0.0560184	694.5
1811	6.90798e+02	1.81100e+03	0.055997	695.5
1813	6.91270e+02	1.81300e+03	0.0559894	696.5
1815	6.91722e+02	1.81500e+03	0.0559858	697.5
1817	6.92150e+02	1.81700e+03	0.0560021	698.5
1819	6.92547e+02	1.81900e+03	0.0560322	699.5
1821	6.92909e+02	1.82100e+03	0.0560903	700.0
1823	6.93253e+02	1.82300e+03	0.0561328	700.0
1825	6.93582e+02	1.82500e+03	0.0561616	700.0
1827	6.93879e+02	1.82700e+03	0.0561625	700.0
1829	6.94172e+02	1.82900e+03	0.0561196	700.0
1831	6.94434e+02	1.83100e+03	0.0561002	700.0
1833	6.94694e+02	1.83300e+03	0.0560858	700.0
1835	6.94936e+02	1.83500e+03	0.0560859	700.0
1837	6.95173e+02	1.83700e+03	0.0561076	700.0
1839	6.95385e+02	1.83900e+03	0.0561298	700.0
1841	6.95587e+02	1.84100e+03	0.0561576	700.0
1843	6.95783e+02	1.84300e+03	0.0561898	700.0
1845	6.95962e+02	1.84500e+03	0.0562341	700.0
1847	6.96134e+02	1.84700e+03	0.0562704	700.0
1849	6.96297e+02	1.84900e+03	0.0562942	700.0
1851	6.96452e+02	1.85100e+03	0.0562988	700.0
1853	6.96598e+02	1.85300e+03	0.0562723	700.0
1855	6.96738e+02	1.85500e+03	0.0562558	700.0
1857	6.96878e+02	1.85700e+03	0.0562412	700.0
1859	6.97005e+02	1.85900e+03	0.0562387	700.0
1861	6.97120e+02	1.86100e+03	0.0562568	700.0
1863	6.97244e+02	1.86300e+03	0.0562737	700.0
1865	6.97353e+02	1.86500e+03	0.0562822	700.0
1867	6.97462e+02	1.86700e+03	0.0562768	700.0
1869	6.97556e+02	1.86900e+03	0.0562511	700.0
1871	6.97654e+02	1.87100e+03	0.056234	700.0
1873	6.97753e+02	1.87300e+03	0.0562216	700.0
1875	6.97828e+02	1.87500e+03	0.0562212	700.0
1877	6.97904e+02	1.87700e+03	0.0562478	700.0
1879	6.97986e+02	1.87900e+03	0.0562711	700.0
1881	6.98059e+02	1.88100e+03	0.0563015	700.0
1883	6.98132e+02	1.88300e+03	0.0563184	700.0
1885	6.98183e+02	1.88500e+03	0.0563188	700.0
1887	6.98251e+02	1.88700e+03	0.0563185	700.0
1889	6.98310e+02	1.88900e+03	0.0563096	700.0
1891	6.98376e+02	1.89100e+03	0.0563049	700.0
1893	6.98416e+02	1.89300e+03	0.0563087	700.0
1895	6.98475e+02	1.89500e+03	0.0563213	700.0
1897	6.98531e+02	1.89700e+03	0.0563497	700.0
1899	6.98577e+02	1.89900e+03	0.0563731	700.0
1901	6.98622e+02	1.90100e+03	0.0563938	700.0
1903	6.98662e+02	1.90300e+03	0.0564094	700.0
1905	6.98700e+02	1.90500e+03	0.0564154	700.0
1907	6.98741e+02	1.90700e+03	0.0564203	700.0
1909	6.98777e+02	1.90900e+03	0.0563997	700.0
1911	6.98818e+02	1.91100e+03	0.0563696	700.0
1913	6.98856e+02	1.91300e+03	0.0563139	700.0
1915	6.98880e+02	1.91500e+03	0.0562674	700.0
1917	6.98913e+02	1.91700e+03	0.0562283	700.0
1919	6.98945e+02	1.91900e+03	0.0562052	700.0
1921	6.98972e+02	1.92100e+03	0.0562241	700.0
1923	6.98997e+02	1.92300e+03	0.0562451	700.0
1925	6.99030e+02	1.92500e+03	0.0562855	700.0
1927	6.99051e+02	1.92700e+03	0.0563061	700.0
1929	6.99079e+02	1.92900e+03	0.0563007	700.0
1931	6.99091e+02	1.93100e+03	0.0562862	700.0
1933	6.99116e+02	1.93300e+03	0.0562402	700.0
1935	6.99150e+02	1.93500e+03	0.0561935	700.0
1937	6.99165e+02	1.93700e+03	0.0561367	700.0
1939	6.99189e+02	1.93900e+03	0.0560926	700.0
1941	6.99200e+02	1.94100e+03	0.0560659	700.0
1943	6.99222e+02	1.94300e+03	0.0560435	700.0
1945	6.99243e+02	1.94500e+03	0.0560373	700.0
1947	6.99259e+02	1.94700e+03	0.0560325	700.0
1949	6.99282e+02	1.94900e+03	0.0560437	700.0
1951	6.99292e+02	1.95100e+03	0.0560662	700.0
1953	6.99301e+02	1.95300e+03	0.0561247	700.0
1955	6.99323e+02	1.95500e+03	0.0561808	700.0
1957	6.99331e+02	1.95700e+03	0.0562441	700.0
1959	6.99353e+02	1.95900e+03	0.056286	700.0
1961	6.99355e+02	1.96100e+03	0.0562963	700.0
1963	6.99372e+02	1.96300e+03	0.0563038	700.0
1965	6.99376e+02	1.96500e+03	0.0562977	700.0
1967	6.99400e+02	1.96700e+03	0.0563104	700.0
1969	6.99404e+02	1.96900e+03	0.0563362	700.0
1971	6.99422e+02	1.97100e+03	0.0563687	700.0
1973	6.99425e+02	1.97300e+03	0.0564237	700.0
1975	6.99440e+02	1.97500e+03	0.0564788	700.0
1977	6.99448e+02	1.97700e+03	0.0565369	700.0
1979	6.99453e+02	1.97900e+03	0.0565838	700.0
1981	6.99468e+02	1.98100e+03	0.0566056	700.0
1983	6.99471e+02	1.98300e+03	0.0566068	700.0
1985	6.99477e+02	1.98500e+03	0.0565639	700.0
1987	6.99485e+02	1.98700e+03	0.0565176	700.0
1989	6.99502e+02	1.98900e+03	0.0564524	700.0
1991	6.99504e+02	1.99100e+03	0.0564087	700.0
1993	6.99508e+02	1.99300e+03	0.0563894	700.0
1995	6.99516e+02	1.99500e+03	0.0563636	700.0
1997	6.99518e+02	1.99700e+03	0.0563358	700.0
1999	6.99529e+02	1.99900e+03	0.0562947	700.0
2001	6.99531e+02	2.00100e+03	0.0562448	700.0
2003	6.99536e+02	2.00300e+03	0.0562124	700.0
2005	6.99541e+02	2.00500e+03	0.0562053	700.0
2007	6.99547e+02	2.00700e+03	0.0562009	700.0
2009	6.99545e+02	2.00900e+03	0.0562111	700.0
2011	6.99549e+02	2.01100e+03	0.0562228	700.0
2013	6.99553e+02	2.01300e+03	0.0562343	700.0
2015	6.99557e+02	2.01500e+03	0.0562357	700.0
2017	6.99566e+02	2.01700e+03	0.0562243	700.0
2019	6.99565e+02	2.01900e+03	0.0562113	700.0
2021	6.99573e+02	2.02100e+03	0.0561931	700.0
2023	6.99573e+02	2.02300e+03	0.0561782	700.0
2025	6.99585e+02	2.02500e+03	0.0561635	700.0
2027	6.99578e+02	2.02700e+03	0.0561545	700.0
2029	6.99579e+02	2.02900e+03	0.0561415	700.0
2031	6.99586e+02	2.03100e+03	0.0561265	700.0
2033	6.99595e+02	2.03300e+03	0.0561165	700.0
2035	6.99595e+02	2.03500e+03	0.0561189	700.0
2037	6.99598e+02	2.03700e+03	0.0561338	700.0
2039	6.99603e+02	2.03900e+03	0.0561501	700.0
2041	6.99609e+02	2.04100e+03	0.0561747	700.0
2043	6.99608e+02	2.04300e+03	0.0561933	700.0
2045	6.99605e+02	2.04500e+03	0.0562058	700.0
2047	6.99598e+02	2.04700e+03	0.0562185	700.0
2049	6.99600e+02	2.04900e+03	0.0562284	700.0
2051	6.99617e+02	2.05100e+03	0.0562321	700.0
2053	6.99609e+02	2.05300e+03	0.0562106	700.0
2055	6.99612e+02	2.05500e+03	0.0561745	700.0
2057	6.99617e+02	2.05700e+03	0.0561167	700.0
2059	6.99618e+02	2.05900e+03	0.0560845	700.0
2061	6.99625e+02	2.06100e+03	0.0560909	700.0
2063	6.99623e+02	2.06300e+03	0.0561065	700.0
2065	6.99623e+02	2.06500e+03	0.0561531	700.0
2067	6.99621e+02	2.06700e+03	0.0561777	700.0
2069	6.99620e+02	2.06900e+03	0.0561811	700.0
2071	6.99618e+02	2.07100e+03	0.0561766	700.0
2073	6.99630e+02	2.07300e+03	0.0561517	700.0
2075	6.99619e+02	2.07500e+03	0.0561314	700.0
2077	6.99627e+02	2.07700e+03	0.0561092	700.0
2079	6.99635e+02	2.07900e+03	0.0560992	700.0
2081	6.99625e+02	2.08100e+03	0.0560947	700.0
2083	6.99628e+02	2.08300e+03	0.0560894	700.0
2085	6.99624e+02	2.08500e+03	0.0560948	700.0
2087	6.99626e+02	2.08700e+03	0.0561179	700.0
2089	6.99630e+02	2.08900e+03	0.0561653	700.0
2091	6.99636e+02	2.09100e+03	0.0562143	700.0
2093	6.99633e+02	2.09300e+03	0.0562723	700.0
2095	6.99635e+02	2.09500e+03	0.0563133	700.0
2097	6.99629e+02	2.09700e+03	0.0563382	700.0
2099	6.99635e+02	2.09900e+03	0.0563539	700.0
2101	6.99636e+02	2.10100e+03	0.0563456	700.0
2103	6.99627e+02	2.10300e+03	0.0563398	700.0
2105	6.99636e+02	2.10500e+03	0.0563165	700.0
2107	6.99636e+02	2.10700e+03	0.0562989	700.0
2109	6.99633e+02	2.10900e+03	0.0562894	700.0
2111	6.99634e+02	2.11100e+03	0.0562881	700.0
2113	6.99633e+02	2.11300e+03	0.0562873	700.0
2115	6.99628e+02	2.11500e+03	0.0562806	700.0
2117	6.99629e+02	2.11700e+03	0.0562653	700.0
2119	6.99636e+02	2.11900e+03	0.0562533	700.0
2121	6.99632e+02	2.12100e+03	0.0562416	700.0
2123	6.99640e+02	2.12300e+03	0.056229	700.0
2125	6.99630e+02	2.12500e+03	0.0562131	700.0
2127	6.99638e+02	2.12700e+03	0.0561969	700.0
2129	6.99637e+02	2.12900e+03	0.0561895	700.0
2131	6.99633e+02	2.13100e+03	0.0561927	700.0
2133	6.99633e+02	2.13300e+03	0.0562122	700.0
2135	6.99631e+02	2.13500e+03	0.0562168	700.0
2137	6.99642e+02	2.13700e+03	0.0562084	700.0
2139	6.99626e+02	2.13900e+03	0.0561936	700.0
2141	6.99632e+02	2.14100e+03	0.0561483	700.0
2143	6.99634e+02	2.14300e+03	0.0561062	700.0
2145	6.99625e+02	2.14500e+03	0.0560682	700.0
2147	6.99626e+02	2.14700e+03	0.0560406	700.0
2149	6.99635e+02	2.14900e+03	0.05603	700.0
2151	6.99627e+02	2.15100e+03	0.0560166	700.0
2153	6.99623e+02	2.15300e+03	0.0560033	700.0
2155	6.99629e+02	2.15500e+03	0.0560012	700.0
2157	6.99631e+02	2.15700e+03	0.0560006	700.0
2159	6.99635e+02	2.15900e+03	0.0559931	700.0
2161	6.99621e+02	2.16100e+03	0.0559824	700.0
2163	6.99636e+02	2.16300e+03	0.0559844	700.0
2165	6.99619e+02	2.16500e+03	0.0559936	700.0
2167	6.99630e+02	2.16700e+03	0.0560033	700.0
2169	6.99626e+02	2.16900e+03	0.0560169	700.0
2171	6.99629e+02	2.17100e+03	0.0560283	700.0
2173	6.99622e+02	2.17300e+03	0.0560499	700.0
2175	6.99629e+02	2.17500e+03	0.0560733	700.0
2177	6.99618e+02	2.17700e+03	0.0561018	700.0
2179	6.99617e+02	2.17900e+03	0.0561181	700.0
2181	6.99613e+02	2.18100e+03	0.0561191	700.0
2183	6.99613e+02	2.18300e+03	0.0561192	700.0
2185	6.99611e+02	2.18500e+03	0.0561066	700.0
2187	6.99621e+02	2.18700e+03	0.0560888	700.0
2189	6.99600e+02	2.18900e+03	0.0560563	700.0
2191	6.99622e+02	2.19100e+03	0.0560249	700.0
2193	6.99613e+02	2.19300e+03	0.0559916	700.0
2195	6.99624e+02	2.19500e+03	0.0559644	700.0
2197	6.99612e+02	2.19700e+03	0.0559439	700.0
2199	6.99609e+02	2.19900e+03	0.0559217	700.0
2201	6.99604e+02	2.20100e+03	0.0558995	700.0
2203	6.99613e+02	2.20300e+03	0.0558769	700.0
2205	6.99609e+02	2.20500e+03	0.0558583	700.0
2207	6.99607e+02	2.20700e+03	0.0558563	700.0
2209	6.99602e+02	2.20900e+03	0.0558788	700.0
2211	6.99605e+02	2.21100e+03	0.0559131	700.0
2213	6.99611e+02	2.21300e+03	0.0559933	700.0
2215	6.99609e+02	2.21500e+03	0.0560704	700.0
2217	6.99605e+02	2.21700e+03	0.0561558	700.0
2219	6.99600e+02	2.21900e+03	0.0562129	700.0
2221	6.99610e+02	2.22100e+03	0.0562175	700.0
2223	6.99600e+02	2.22300e+03	0.0562037	700.0
2225	6.99597e+02	2.22500e+03	0.0561322	700.0
2227	6.99600e+02	2.22700e+03	0.0560628	700.0
2229	6.99602e+02	2.22900e+03	0.055974	700.0
2231	6.99599e+02	2.23100e+03	0.0559048	700.0
2233	6.99597e+02	2.23300e+03	0.0558697	700.0
2235	6.99603e+02	2.23500e+03	0.0558422	700.0
2237	6.99596e+02	2.23700e+03	0.0558445	700.0
2239	6.99607e+02	2.23900e+03	0.0558371	700.0
2241	6.99599e+02	2.24100e+03	0.0558324	700.0
2243	6.99609e+02	2.24300e+03	0.0558318	700.0
2245	6.99595e+02	2.24500e+03	0.0558511	700.0
2247	6.99613e+02	2.24700e+03	0.0558717	700.0
2249	6.99597e+02	2.24900e+03	0.0559007	700.0
2251	6.99603e+02	2.25100e+03	0.0559169	700.0
2253	6.99599e+02	2.25300e+03	0.0559197	700.0
2255	6.99603e+02	2.25500e+03	0.0559242	700.0
2257	6.99599e+02	2.25700e+03	0.0559302	700.0
2259	6.99603e+02	2.25900e+03	0.0559498	700.0
2261	6.99600e+02	2.26100e+03	0.0559752	700.0
2263	6.99602e+02	2.26300e+03	0.0560009	700.0
2265	6.99599e+02	2.26500e+03	0.0560084	700.0
2267	6.99602e+02	2.26700e+03	0.0559921	700.0
2269	6.99598e+02	2.26900e+03	0.0559314	700.0
2271	6.99592e+02	2.27100e+03	0.0558794	700.0
2273	6.99593e+02	2.27300e+03	0.0558309	700.0
2275	6.99591e+02	2.27500e+03	0.0558213	700.0
2277	6.99592e+02	2.27700e+03	0.0558601	700.0
2279	6.99593e+02	2.27900e+03	0.0558947	700.0
2281	6.99585e+02	2.28100e+03	0.0559494	700.0
2283	6.99595e+02	2.28300e+03	0.0559939	700.0
2285	6.99586e+02	2.28500e+03	0.0560241	700.0
2287	6.99593e+02	2.28700e+03	0.0560386	700.0
2289	6.99591e+02	2.28900e+03	0.0560179	700.0
2291	6.99584e+02	2.29100e+03	0.0560003	700.0
2293	6.99589e+02	2.29300e+03	0.0559697	700.0
2295	6.99583e+02	2.29500e+03	0.0559435	700.0
2297	6.99576e+02	2.29700e+03	0.0559189	700.0
2299	6.99586e+02	2.29900e+03	0.055891	700.0
2301	6.99589e+02	2.30100e+03	0.0558653	700.0
2303	6.99586e+02	2.30300e+03	0.0558492	700.0
2305	6.99584e+02	2.30500e+03	0.0558516	700.0
2307	6.99577e+02	2.30700e+03	0.0558522	700.0
2309	6.99583e+02	2.30900e+03	0.0558487	700.0
2311	6.99575e+02	2.31100e+03	0.0558416	700.0
2313	6.99578e+02	2.31300e+03	0.0558267	700.0
2315	6.99572e+02	2.31500e+03	0.055821	700.0
2317	6.99579e+02	2.31700e+03	0.0558294	700.0
2319	6.99572e+02	2.31900e+03	0.0558489	700.0
2321	6.99590e+02	2.32100e+03	0.0558907	700.0
2323	6.99570e+02	2.32300e+03	0.055938	700.0
2325	6.99579e+02	2.32500e+03	0.0559951	700.0
2327	6.99583e+02	2.32700e+03	0.0560398	700.0
2329	6.99575e+02	2.32900e+03	0.056068	700.0
2331	6.99565e+02	2.33100e+03	0.0560873	700.0
2333	6.99573e+02	2.33300e+03	0.056078	700.0
2335	6.99569e+02	2.33500e+03	0.0560627	700.0
2337	6.99575e+02	2.33700e+03	0.0560251	700.0
2339	6.99571e+02	2.33900e+03	0.0559929	700.0
2341	6.99575e+02	2.34100e+03	0.0559602	700.0
2343	6.99563e+02	2.34300e+03	0.0559446	700.0
2345	6.99577e+02	2.34500e+03	0.0559421	700.0
2347	6.99575e+02	2.34700e+03	0.0559373	700.0
2349	6.99574e+02	2.34900e+03	0.0559383	700.0
2351	6.99570e+02	2.35100e+03	0.0559354	700.0
2353	6.99576e+02	2.35300e+03	0.0559306	700.0
2355	6.99569e+02	2.35500e+03	0.0559264	700.0
2357	6.99572e+02	2.35700e+03	0.0559188	700.0
2359	6.99573e+02	2.35900e+03	0.0559073	700.0
2361	6.99575e+02	2.36100e+03	0.0558883	700.0
2363	6.99574e+02	2.36300e+03	0.0558803	700.0
2365	6.99571e+02	2.36500e+03	0.0558683	700.0
2367	6.99579e+02	2.36700e+03	0.0558471	700.0
2369	6.99568e+02	2.36900e+03	0.0558121	700.0
2371	6.99577e+02	2.37100e+03	0.055777	700.0
2373	6.99567e+02	2.37300e+03	0.0557485	700.0
2375	6.99568e+02	2.37500e+03	0.0557401	700.0
2377	6.99577e+02	2.37700e+03	0.0557699	700.0
2379	6.99571e+02	2.37900e+03	0.0558036	700.0
2381	6.99563e+02	2.38100e+03	0.0558572	700.0
2383	6.99572e+02	2.38300e+03	0.055899	700.0
2385	6.99574e+02	2.38500e+03	0.0559259	700.0
2387	6.99567e+02	2.38700e+03	0.0559416	700.0
2389	6.99578e+02	2.38900e+03	0.055929	700.0
2391	6.99563e+02	2.39100e+03	0.0559126	700.0
2393	6.99576e+02	2.39300e+03	0.0558746	700.0
2395	6.99562e+02	2.39500e+03	0.0558396	700.0
2397	6.99570e+02	2.39700e+03	0.0558069	700.0
2399	6.99567e+02	2.39900e+03	0.05578	700.0
2401	6.99569e+02	2.40100e+03	0.0557542	700.0
2403	6.99570e+02	2.40300e+03	0.0557259	700.0
2405	6.99571e+02	2.40500e+03	0.0556973	700.0
2407	6.99562e+02	2.40700e+03	0.0556868	700.0
2409	6.99565e+02	2.40900e+03	0.0556985	700.0
2411	6.99560e+02	2.41100e+03	0.0557125	700.0
2413	6.99569e+02	2.41300e+03	0.0557342	700.0
2415	6.99561e+02	2.41500e+03	0.0557493	700.0
2417	6.99558e+02	2.41700e+03	0.055763	700.0
2419	6.99556e+02	2.41900e+03	0.0557792	700.0
2421	6.99561e+02	2.42100e+03	0.0558114	700.0
2423	6.99557e+02	2.42300e+03	0.0558452	700.0
2425	6.99564e+02	2.42500e+03	0.0558756	700.0
2427	6.99564e+02	2.42700e+03	0.0558861	700.0
2429	6.99557e+02	2.42900e+03	0.0558615	700.0
2431	6.99565e+02	2.43100e+03	0.0558322	700.0
2433	6.99553e+02	2.43300e+03	0.0557828	700.0
2435	6.99563e+02	2.43500e+03	0.0557451	700.0
2437	6.99563e+02	2.43700e+03	0.0557243	700.0
2439	6.99560e+02	2.43900e+03	0.0557165	700.0
2441	6.99561e+02	2.44100e+03	0.0557348	700.0
2443	6.99561e+02	2.44300e+03	0.0557484	700.0
2445	6.99562e+02	2.44500e+03	0.0557762	700.0
2447	6.99560e+02	2.44700e+03	0.0557984	700.0
2449	6.99556e+02	2.44900e+03	0.0558173	700.0
2451	6.99557e+02	2.45100e+03	0.0558279	700.0
2453	6.99565e+02	2.45300e+03	0.0558262	700.0
2455	6.99558e+02	2.45500e+03	0.0558273	700.0
2457	6.99556e+02	2.45700e+03	0.055826	700.0
2459	6.99564e+02	2.45900e+03	0.0558256	700.0
2461	6.99558e+02	2.46100e+03	0.0558414	700.0
2463	6.99559e+02	2.46300e+03	0.0558627	700.0
2465	6.99562e+02	2.46500e+03	0.0558887	700.0
2467	6.99561e+02	2.46700e+03	0.0558891	700.0
2469	6.99565e+02	2.46900e+03	0.0558542	700.0
2471	6.99555e+02	2.47100e+03	0.0558258	700.0
2473	6.99566e+02	2.47300e+03	0.0558004	700.0
2475	6.99561e+02	2.47500e+03	0.0557873	700.0
2477	6.99562e+02	2.47700e+03	0.0557906	700.0
2479	6.99554e+02	2.47900e+03	0.055782	700.0
2481	6.99565e+02	2.48100e+03	0.0557712	700.0
2483	6.99563e+02	2.48300e+03	0.0557678	700.0
2485	6.99566e+02	2.48500e+03	0.0557713	700.0
2487	6.99569e+02	2.48700e+03	0.0557696	700.0
2489	6.99561e+02	2.48900e+03	0.0557621	700.0
2491	6.99566e+02	2.49100e+03	0.0557534	700.0
2493	6.99560e+02	2.49300e+03	0.0557421	700.0
2495	6.99565e+02	2.49500e+03	0.0557343	700.0
2497	6.99558e+02	2.49700e+03	0.0557305	700.0
2499	6.99560e+02	2.49900e+03	0.0557264	700.0
2501	6.99565e+02	2.50100e+03	0.0557201	700.0
2503	6.99560e+02	2.50300e+03	0.0557095	700.0
2505	6.99571e+02	2.50500e+03	0.0556902	700.0
2507	6.99562e+02	2.50700e+03	0.0556717	700.0
2509	6.99567e+02	2.50900e+03	0.0556683	700.0
2511	6.99564e+02	2.51100e+03	0.0556773	700.0
2513	6.99571e+02	2.51300e+03	0.0557074	700.0
2515	6.99559e+02	2.51500e+03	0.0557301	700.0
2517	6.99561e+02	2.51700e+03	0.0557341	700.0
2519	6.99562e+02	2.51900e+03	0.0557275	700.0
2521	6.99565e+02	2.52100e+03	0.0556979	700.0
2523	6.99566e+02	2.52300e+03	0.0556763	700.0
2525	6.99566e+02	2.52500e+03	0.0556568	700.0
2527	6.99558e+02	2.52700e+03	0.0556419	700.0
2529	6.99564e+02	2.52900e+03	0.0556355	700.0
2531	6.99566e+02	2.53100e+03	0.0556287	700.0
2533	6.99569e+02	2.53300e+03	0.0556225	700.0
2535	6.99563e+02	2.53500e+03	0.0556117	700.0
2537	6.99563e+02	2.53700e+03	0.0555932	700.0
2539	6.99561e+02	2.53900e+03	0.0555746	700.0
2541	6.99564e+02	2.54100e+03	0.0555556	700.0
2543	6.99556e+02	2.54300e+03	0.0555414	700.0
2545	6.99562e+02	2.54500e+03	0.0555348	700.0
2547	6.99558e+02	2.54700e+03	0.0555271	700.0
2549	6.99563e+02	2.54900e+03	0.0555201	700.0
2551	6.99558e+02	2.55100e+03	0.0555136	700.0
2553	6.99558e+02	2.55300e+03	0.0555142	700.0
2555	6.99564e+02	2.55500e+03	0.0555255	700.0
2557	6.99565e+02	2.55700e+03	0.0555629	700.0
2559	6.99554e+02	2.55900e+03	0.055611	700.0
2561	6.99564e+02	2.56100e+03	0.0556653	700.0
2563	6.99562e+02	2.56300e+03	0.0557005	700.0
2565	6.99558e+02	2.56500e+03	0.0557047	700.0
2567	6.99562e+02	2.56700e+03	0.0556961	700.0
2569	6.99564e+02	2.56900e+03	0.0556487	700.0
2571	6.99560e+02	2.57100e+03	0.0556021	700.0
2573	6.99562e+02	2.57300e+03	0.0555431	700.0
2575	6.99559e+02	2.57500e+03	0.0554951	700.0
2577	6.99564e+02	2.57700e+03	0.0554582	700.0
2579	6.99560e+02	2.57900e+03	0.0554246	700.0
2581	6.99564e+02	2.58100e+03	0.0554058	700.0
2583	6.99559e+02	2.58300e+03	0.0553936	700.0
2585	6.99563e+02	2.58500e+03	0.0554064	700.0
2587	6.99563e+02	2.58700e+03	0.0554269	700.0
2589	6.99558e+02	2.58900e+03	0.0554723	700.0
2591	6.99557e+02	2.59100e+03	0.0555242	700.0
2593	6.99561e+02	2.59300e+03	0.0555784	700.0
2595	6.99559e+02	2.59500e+03	0.0556168	700.0
2597	6.99562e+02	2.59700e+03	0.0556319	700.0
2599	6.99560e+02	2.59900e+03	0.0556344	700.0
2601	6.99560e+02	2.60100e+03	0.055598	700.0
2603	6.99555e+02	2.60300e+03	0.0555642	700.0
2605	6.99553e+02	2.60500e+03	0.0555149	700.0
2607	6.99560e+02	2.60700e+03	0.0554795	700.0
2609	6.99560e+02	2.60900e+03	0.0554761	700.0
2611	6.99551e+02	2.61100e+03	0.0554801	700.0
2613	6.99561e+02	2.61300e+03	0.0555082	700.0
2615	6.99562e+02	2.61500e+03	0.0555337	700.0
2617	6.99555e+02	2.61700e+03	0.0555766	700.0
2619	6.99566e+02	2.61900e+03	0.055616	700.0
2621	6.99571e+02	2.62100e+03	0.0556522	700.0
2623	6.99557e+02	2.62300e+03	0.0556688	700.0
2625	6.99564e+02	2.62500e+03	0.0556523	700.0
2627	6.99564e+02	2.62700e+03	0.0556344	700.0
2629	6.99572e+02	2.62900e+03	0.0555974	700.0
2631	6.99566e+02	2.63100e+03	0.0555651	700.0
2633	6.99558e+02	2.63300e+03	0.0555364	700.0
2635	6.99566e+02	2.63500e+03	0.0555179	700.0
2637	6.99559e+02	2.63700e+03	0.0555191	700.0
2639	6.99553e+02	2.63900e+03	0.0555248	700.0
2641	6.99562e+02	2.64100e+03	0.0555512	700.0
2643	6.99552e+02	2.64300e+03	0.0555809	700.0
2645	6.99563e+02	2.64500e+03	0.0556205	700.0
2647	6.99559e+02	2.64700e+03	0.0556489	700.0
2649	6.99565e+02	2.64900e+03	0.0556561	700.0
2651	6.99564e+02	2.65100e+03	0.0556523	700.0
2653	6.99556e+02	2.65300e+03	0.0556231	700.0
2655	6.99565e+02	2.65500e+03	0.0555989	700.0
2657	6.99559e+02	2.65700e+03	0.055563	700.0
2659	6.99562e+02	2.65900e+03	0.055534	700.0
2661	6.99563e+02	2.66100e+03	0.0555103	700.0
2663	6.99565e+02	2.66300e+03	0.0554992	700.0
2665	6.99552e+02	2.66500e+03	0.0555262	700.0
2667	6.99563e+02	2.66700e+03	0.0555588	700.0
2669	6.99557e+02	2.66900e+03	0.0556152	700.0
2671	6.99561e+02	2.67100e+03	0.0556563	700.0
2673	6.99561e+02	2.67300e+03	0.0556806	700.0
2675	6.99556e+02	2.67500e+03	0.0556941	700.0
2677	6.99561e+02	2.67700e+03	0.0556776	700.0
2679	6.99563e+02	2.67900e+03	0.0556569	700.0
2681	6.99563e+02	2.68100e+03	0.0556177	700.0
2683	6.99564e+02	2.68300e+03	0.0555867	700.0
2685	6.99562e+02	2.68500e+03	0.0555621	700.0
2687	6.99571e+02	2.68700e+03	0.055543	700.0
2689	6.99566e+02	2.68900e+03	0.0555192	700.0
2691	6.99564e+02	2.69100e+03	0.0554902	700.0
2693	6.99568e+02	2.69300e+03	0.0554584	700.0
2695	6.99568e+02	2.69500e+03	0.0554388	700.0
2697	6.99557e+02	2.69700e+03	0.0554388	700.0
2699	6.99565e+02	2.69900e+03	0.0554419	700.0
2701	6.99563e+02	2.70100e+03	0.0554607	700.0
2703	6.99574e+02	2.70300e+03	0.0554776	700.0
2705	6.99565e+02	2.70500e+03	0.0554963	700.0
2707	6.99570e+02	2.70700e+03	0.0555088	700.0
2709	6.99570e+02	2.70900e+03	0.0555132	700.0
2711	6.99572e+02	2.71100e+03	0.0555265	700.0
2713	6.99563e+02	2.71300e+03	0.0555362	700.0
2715	6.99560e+02	2.71500e+03	0.0555421	700.0
2717	6.99566e+02	2.71700e+03	0.0555558	700.0
2719	6.99563e+02	2.71900e+03	0.0555648	700.0
2720	6.99566e+02	2.72000e+03	0.0555662	700.0