File: Experiments/TGA/TUBS/tga_nonisotherm/tga_dynamic_n2low20_dyn30_piece_3mg_r1.txt
Index	Ts	t	Weight	Tr
[#]	[°C]	[s]	[mg]	[°C]
681	1.30394e+02	6.81000e+02	3.02487	130.5
683	1.31434e+02	6.83000e+02	3.02481	131.5
685	1.32443e+02	6.85000e+02	3.02474	132.5
687	1.33465e+02	6.87000e+02	3.0247	133.5
689	1.34471e+02	6.89000e+02	3.0247	134.5
691	1.35477e+02	6.91000e+02	3.0247	135.5
693	1.36503e+02	6.93000e+02	3.02474	136.5
695	1.37514e+02	6.95000e+02	3.02477	137.5
697	1.38529e+02	6.97000e+02	3.02479	138.5
699	1.39538e+02	6.99000e+02	3.02477	139.5
701	1.40558e+02	7.01000e+02	3.02468	140.5
703	1.41574e+02	7.03000e+02	3.02458	141.5
705	1.42597e+02	7.05000e+02	3.02443	142.5
707	1.43594e+02	7.07000e+02	3.02429	143.5
709	1.44618e+02	7.09000e+02	3.02416	144.5
711	1.45629e+02	7.11000e+02	3.02409	145.5
713	1.46659e+02	7.13000e+02	3.02413	146.5
715	1.47674e+02	7.15000e+02	3.0242	147.5
717	1.48681e+02	7.17000e+02	3.02435	148.5
719	1.49697e+02	7.19000e+02	3.02444	149.5
721	1.50712e+02	7.21000e+02	3.02447	150.5
723	1.51742e+02	7.23000e+02	3.02443	151.5
725	1.52743e+02	7.25000e+02	3.02428	152.5
727	1.53759e+02	7.27000e+02	3.02414	153.5
729	1.54774e+02	7.29000e+02	3.02397	154.5
731	1.55787e+02	7.31000e+02	3.02384	155.5
733	1.56820e+02	7.33000e+02	3.02375	156.5
735	1.57825e+02	7.35000e+02	3.02364	157.5
737	1.58861e+02	7.37000e+02	3.02356	158.5
739	1.59869e+02	7.39000e+02	3.02349	159.5
741	1.60884e+02	7.41000e+02	3.02343	160.5
743	1.61898e+02	7.43000e+02	3.02335	161.5
745	1.62916e+02	7.45000e+02	3.02326	162.5
747	1.63940e+02	7.47000e+02	3.02317	163.5
749	1.64954e+02	7.49000e+02	3.0231	164.5
751	1.65956e+02	7.51000e+02	3.02302	165.5
753	1.66987e+02	7.53000e+02	3.02297	166.5
755	1.68005e+02	7.55000e+02	3.02291	167.5
757	1.69019e+02	7.57000e+02	3.02284	168.5
759	1.70037e+02	7.59000e+02	3.02276	169.5
761	1.71053e+02	7.61000e+02	3.02267	170.5
763	1.72071e+02	7.63000e+02	3.02258	171.5
765	1.73086e+02	7.65000e+02	3.02248	172.5
767	1.74126e+02	7.67000e+02	3.02237	173.5
769	1.75138e+02	7.69000e+02	3.02224	174.5
771	1.76160e+02	7.71000e+02	3.02211	175.5
773	1.77184e+02	7.73000e+02	3.02197	176.5
775	1.78215e+02	7.75000e+02	3.02181	177.5
777	1.79219e+02	7.77000e+02	3.02165	178.5
779	1.80245e+02	7.79000e+02	3.0215	179.5
781	1.81266e+02	7.81000e+02	3.02137	180.5
783	1.82290e+02	7.83000e+02	3.02122	181.5
785	1.83306e+02	7.85000e+02	3.02106	182.5
787	1.84323e+02	7.87000e+02	3.02091	183.5
789	1.85344e+02	7.89000e+02	3.02076	184.5
791	1.86360e+02	7.91000e+02	3.02061	185.5
793	1.87388e+02	7.93000e+02	3.02048	186.5
795	1.88413e+02	7.95000e+02	3.02036	187.5
797	1.89435e+02	7.97000e+02	3.02021	188.5
799	1.90455e+02	7.99000e+02	3.02004	189.5
801	1.91469e+02	8.01000e+02	3.01979	190.5
803	1.92488e+02	8.03000e+02	3.01952	191.5
805	1.93514e+02	8.05000e+02	3.01921	192.5
807	1.94531e+02	8.07000e+02	3.01891	193.5
809	1.95556e+02	8.09000e+02	3.01862	194.5
811	1.96581e+02	8.11000e+02	3.01832	195.5
813	1.97615e+02	8.13000e+02	3.018	196.5
815	1.98625e+02	8.15000e+02	3.01764	197.5
817	1.99641e+02	8.17000e+02	3.0172	198.5
819	2.00679e+02	8.19000e+02	3.01675	199.5
821	2.01688e+02	8.21000e+02	3.01625	200.5
823	2.02715e+02	8.23000e+02	3.01574	201.5
825	2.03737e+02	8.25000e+02	3.01521	202.5
827	2.04760e+02	8.27000e+02	3.01468	203.5
829	2.05781e+02	8.29000e+02	3.01411	204.5
831	2.06820e+02	8.31000e+02	3.01353	205.5
833	2.07830e+02	8.33000e+02	3.01291	206.5
835	2.08857e+02	8.35000e+02	3.01228	207.5
837	2.09886e+02	8.37000e+02	3.01162	208.5
839	2.10904e+02	8.39000e+02	3.01096	209.5
841	2.11930e+02	8.41000e+02	3.01028	210.5
843	2.12954e+02	8.43000e+02	3.00958	211.5
845	2.13989e+02	8.45000e+02	3.00885	212.5
847	2.15020e+02	8.47000e+02	3.00816	213.5
849	2.16046e+02	8.49000e+02	3.00747	214.5
851	2.17059e+02	8.51000e+02	3.00677	215.5
853	2.18089e+02	8.53000e+02	3.00605	216.5
855	2.19119e+02	8.55000e+02	3.00532	217.5
857	2.20140e+02	8.57000e+02	3.00458	218.5
859	2.21152e+02	8.59000e+02	3.00384	219.5
861	2.22180e+02	8.61000e+02	3.00315	220.5
863	2.23210e+02	8.63000e+02	3.00249	221.5
865	2.24223e+02	8.65000e+02	3.00186	222.5
867	2.25262e+02	8.67000e+02	3.00119	223.5
869	2.26272e+02	8.69000e+02	3.00048	224.5
871	2.27300e+02	8.71000e+02	2.99977	225.5
873	2.28312e+02	8.73000e+02	2.99905	226.5
875	2.29345e+02	8.75000e+02	2.99835	227.5
877	2.30358e+02	8.77000e+02	2.99766	228.5
879	2.31382e+02	8.79000e+02	2.99696	229.5
881	2.32415e+02	8.81000e+02	2.99624	230.5
883	2.33429e+02	8.83000e+02	2.99549	231.5
885	2.34453e+02	8.85000e+02	2.9947	232.5
887	2.35489e+02	8.87000e+02	2.99393	233.5
889	2.36507e+02	8.89000e+02	2.99317	234.5
891	2.37530e+02	8.91000e+02	2.99241	235.5
893	2.38553e+02	8.93000e+02	2.99166	236.5
895	2.39565e+02	8.95000e+02	2.9909	237.5
897	2.40596e+02	8.97000e+02	2.9901	238.5
899	2.41621e+02	8.99000e+02	2.98929	239.5
901	2.42658e+02	9.01000e+02	2.98845	240.5
903	2.43695e+02	9.03000e+02	2.9876	241.5
905	2.44724e+02	9.05000e+02	2.98675	242.5
907	2.45744e+02	9.07000e+02	2.98591	243.5
909	2.46800e+02	9.09000e+02	2.98507	244.5
911	2.47831e+02	9.11000e+02	2.98422	245.5
913	2.48901e+02	9.13000e+02	2.98337	246.5
915	2.49958e+02	9.15000e+02	2.98251	247.5
917	2.50977e+02	9.17000e+02	2.98167	248.5
919	2.51988e+02	9.19000e+02	2.98084	249.5
921	2.52982e+02	9.21000e+02	2.98003	250.5
923	2.54000e+02	9.23000e+02	2.97923	251.5
925	2.55037e+02	9.25000e+02	2.97841	252.5
927	2.56051e+02	9.27000e+02	2.97755	253.5
929	2.57123e+02	9.29000e+02	2.97664	254.5
931	2.58153e+02	9.31000e+02	2.97575	255.5
933	2.59173e+02	9.33000e+02	2.97483	256.5
935	2.60191e+02	9.35000e+02	2.9739	257.5
937	2.61224e+02	9.37000e+02	2.97294	258.5
939	2.62251e+02	9.39000e+02	2.972	259.5
941	2.63301e+02	9.41000e+02	2.97105	260.5
943	2.64338e+02	9.43000e+02	2.9701	261.5
945	2.65361e+02	9.45000e+02	2.96913	262.5
947	2.66411e+02	9.47000e+02	2.96816	263.5
949	2.67480e+02	9.49000e+02	2.96718	264.5
951	2.68517e+02	9.51000e+02	2.96617	265.5
953	2.69544e+02	9.53000e+02	2.96516	266.5
955	2.70609e+02	9.55000e+02	2.96417	267.5
957	2.71674e+02	9.57000e+02	2.96319	268.5
959	2.72715e+02	9.59000e+02	2.96218	269.5
961	2.73742e+02	9.61000e+02	2.96114	270.5
963	2.74733e+02	9.63000e+02	2.96007	271.5
965	2.75769e+02	9.65000e+02	2.95894	272.5
967	2.76793e+02	9.67000e+02	2.95781	273.5
969	2.77841e+02	9.69000e+02	2.95664	274.5
971	2.78852e+02	9.71000e+02	2.95542	275.5
973	2.79876e+02	9.73000e+02	2.95401	276.5
975	2.80907e+02	9.75000e+02	2.95242	277.5
977	2.81965e+02	9.77000e+02	2.95052	278.5
979	2.83001e+02	9.79000e+02	2.94864	279.5
981	2.84006e+02	9.81000e+02	2.94667	280.5
983	2.85028e+02	9.83000e+02	2.94477	281.5
985	2.86038e+02	9.85000e+02	2.94291	282.5
987	2.87035e+02	9.87000e+02	2.94104	283.5
989	2.88061e+02	9.89000e+02	2.93917	284.5
991	2.89087e+02	9.91000e+02	2.93726	285.5
993	2.90070e+02	9.93000e+02	2.93526	286.5
995	2.91079e+02	9.95000e+02	2.93325	287.5
997	2.92089e+02	9.97000e+02	2.93121	288.5
999	2.93116e+02	9.99000e+02	2.92923	289.5
1001	2.94124e+02	1.00100e+03	2.92733	290.5
1003	2.95130e+02	1.00300e+03	2.92543	291.5
1005	2.96131e+02	1.00500e+03	2.92359	292.5
1007	2.97152e+02	1.00700e+03	2.92172	293.5
1009	2.98182e+02	1.00900e+03	2.91978	294.5
1011	2.99202e+02	1.01100e+03	2.91778	295.5
1013	3.00228e+02	1.01300e+03	2.91568	296.5
1015	3.01259e+02	1.01500e+03	2.91358	297.5
1017	3.02287e+02	1.01700e+03	2.9114	298.5
1019	3.03297e+02	1.01900e+03	2.90919	299.5
1021	3.04299e+02	1.02100e+03	2.90686	300.5
1023	3.05307e+02	1.02300e+03	2.90449	301.5
1025	3.06317e+02	1.02500e+03	2.90199	302.5
1027	3.07317e+02	1.02700e+03	2.89947	303.5
1029	3.08312e+02	1.02900e+03	2.89685	304.5
1031	3.09307e+02	1.03100e+03	2.89421	305.5
1033	3.10298e+02	1.03300e+03	2.89143	306.5
1035	3.11311e+02	1.03500e+03	2.88857	307.5
1037	3.12334e+02	1.03700e+03	2.88554	308.5
1039	3.13307e+02	1.03900e+03	2.88251	309.5
1041	3.14294e+02	1.04100e+03	2.87937	310.5
1043	3.15285e+02	1.04300e+03	2.87621	311.5
1045	3.16254e+02	1.04500e+03	2.87293	312.5
1047	3.17240e+02	1.04700e+03	2.8696	313.5
1049	3.18218e+02	1.04900e+03	2.86613	314.5
1051	3.19167e+02	1.05100e+03	2.86263	315.5
1053	3.20137e+02	1.05300e+03	2.859	316.5
1055	3.21105e+02	1.05500e+03	2.85537	317.5
1057	3.22055e+02	1.05700e+03	2.85167	318.5
1059	3.22998e+02	1.05900e+03	2.84796	319.5
1061	3.23947e+02	1.06100e+03	2.84419	320.5
1063	3.24882e+02	1.06300e+03	2.84042	321.5
1065	3.25819e+02	1.06500e+03	2.83661	322.5
1067	3.26782e+02	1.06700e+03	2.83277	323.5
1069	3.27739e+02	1.06900e+03	2.82884	324.5
1071	3.28690e+02	1.07100e+03	2.82486	325.5
1073	3.29638e+02	1.07300e+03	2.82073	326.5
1075	3.30590e+02	1.07500e+03	2.81653	327.5
1077	3.31427e+02	1.07700e+03	2.81214	328.5
1079	3.32213e+02	1.07900e+03	2.80769	329.5
1081	3.33082e+02	1.08100e+03	2.80304	330.5
1083	3.34034e+02	1.08300e+03	2.79835	331.5
1085	3.35002e+02	1.08500e+03	2.79345	332.5
1087	3.35995e+02	1.08700e+03	2.78846	333.5
1089	3.36986e+02	1.08900e+03	2.78321	334.5
1091	3.37978e+02	1.09100e+03	2.77791	335.5
1093	3.38977e+02	1.09300e+03	2.77232	336.5
1095	3.39968e+02	1.09500e+03	2.76661	337.5
1097	3.40971e+02	1.09700e+03	2.76053	338.5
1099	3.41945e+02	1.09900e+03	2.75433	339.5
1101	3.42943e+02	1.10100e+03	2.74765	340.5
1103	3.43930e+02	1.10300e+03	2.74081	341.5
1105	3.44915e+02	1.10500e+03	2.7334	342.5
1107	3.45908e+02	1.10700e+03	2.72578	343.5
1109	3.46896e+02	1.10900e+03	2.71744	344.5
1111	3.47897e+02	1.11100e+03	2.70884	345.5
1113	3.48885e+02	1.11300e+03	2.69936	346.5
1115	3.49867e+02	1.11500e+03	2.68966	347.5
1117	3.50844e+02	1.11700e+03	2.67897	348.5
1119	3.51852e+02	1.11900e+03	2.66796	349.5
1121	3.52835e+02	1.12100e+03	2.65581	350.5
1123	3.53853e+02	1.12300e+03	2.6433	351.5
1125	3.54868e+02	1.12500e+03	2.62937	352.5
1127	3.55868e+02	1.12700e+03	2.61493	353.5
1129	3.56850e+02	1.12900e+03	2.59877	354.5
1131	3.57835e+02	1.13100e+03	2.58213	355.5
1133	3.58816e+02	1.13300e+03	2.56356	356.5
1135	3.59794e+02	1.13500e+03	2.54443	357.5
1137	3.60781e+02	1.13700e+03	2.52313	358.5
1139	3.61768e+02	1.13900e+03	2.50124	359.5
1141	3.62763e+02	1.14100e+03	2.4771	360.5
1143	3.63790e+02	1.14300e+03	2.45249	361.5
1145	3.64826e+02	1.14500e+03	2.42574	362.5
1147	3.65903e+02	1.14700e+03	2.39852	363.5
1149	3.66966e+02	1.14900e+03	2.36921	364.5
1151	3.67958e+02	1.15100e+03	2.33939	365.5
1153	3.68954e+02	1.15300e+03	2.30741	366.5
1155	3.69938e+02	1.15500e+03	2.27487	367.5
1157	3.70916e+02	1.15700e+03	2.24014	368.5
1159	3.71886e+02	1.15900e+03	2.20495	369.5
1161	3.72861e+02	1.16100e+03	2.16764	370.5
1163	3.73834e+02	1.16300e+03	2.12984	371.5
1165	3.74808e+02	1.16500e+03	2.08997	372.5
1167	3.75779e+02	1.16700e+03	2.04965	373.5
1169	3.76749e+02	1.16900e+03	2.00731	374.5
1171	3.77721e+02	1.17100e+03	1.96448	375.5
1173	3.78698e+02	1.17300e+03	1.91969	376.5
1175	3.79678e+02	1.17500e+03	1.87459	377.5
1177	3.80659e+02	1.17700e+03	1.82787	378.5
1179	3.81649e+02	1.17900e+03	1.78089	379.5
1181	3.82635e+02	1.18100e+03	1.73247	380.5
1183	3.83610e+02	1.18300e+03	1.68371	381.5
1185	3.84598e+02	1.18500e+03	1.63364	382.5
1187	3.85594e+02	1.18700e+03	1.58349	383.5
1189	3.86600e+02	1.18900e+03	1.5325	384.5
1191	3.87576e+02	1.19100e+03	1.48153	385.5
1193	3.88563e+02	1.19300e+03	1.43014	386.5
1195	3.89574e+02	1.19500e+03	1.37878	387.5
1197	3.90567e+02	1.19700e+03	1.32719	388.5
1199	3.91614e+02	1.19900e+03	1.27558	389.5
1201	3.92646e+02	1.20100e+03	1.22388	390.5
1203	3.93652e+02	1.20300e+03	1.17228	391.5
1205	3.94649e+02	1.20500e+03	1.12081	392.5
1207	3.95650e+02	1.20700e+03	1.06934	393.5
1209	3.96650e+02	1.20900e+03	1.01791	394.5
1211	3.97649e+02	1.21100e+03	0.966372	395.5
1213	3.98673e+02	1.21300e+03	0.914733	396.5
1215	3.99668e+02	1.21500e+03	0.86311	397.5
1217	4.00678e+02	1.21700e+03	0.811497	398.5
1219	4.01681e+02	1.21900e+03	0.759982	399.5
1221	4.02722e+02	1.22100e+03	0.70876	400.5
1223	4.03759e+02	1.22300e+03	0.657873	401.5
1225	4.04815e+02	1.22500e+03	0.608011	402.5
1227	4.05859e+02	1.22700e+03	0.558918	403.5
1229	4.06911e+02	1.22900e+03	0.512085	404.5
1231	4.07965e+02	1.23100e+03	0.46641	405.5
1233	4.09017e+02	1.23300e+03	0.424185	406.5
1235	4.10073e+02	1.23500e+03	0.3831	407.5
1237	4.11089e+02	1.23700e+03	0.346111	408.5
1239	4.12090e+02	1.23900e+03	0.310242	409.5
1241	4.13090e+02	1.24100e+03	0.278703	410.5
1243	4.14103e+02	1.24300e+03	0.248147	411.5
1245	4.15104e+02	1.24500e+03	0.221769	412.5
1247	4.16121e+02	1.24700e+03	0.196217	413.5
1249	4.17129e+02	1.24900e+03	0.174485	414.5
1251	4.18132e+02	1.25100e+03	0.15345	415.5
1253	4.19144e+02	1.25300e+03	0.135805	416.5
1255	4.20157e+02	1.25500e+03	0.118768	417.5
1257	4.21223e+02	1.25700e+03	0.104701	418.5
1259	4.22265e+02	1.25900e+03	0.0911186	419.5
1261	4.23270e+02	1.26100e+03	0.0800299	420.5
1263	4.24292e+02	1.26300e+03	0.069299	421.5
1265	4.25319e+02	1.26500e+03	0.0606016	422.5
1267	4.26356e+02	1.26700e+03	0.0522166	423.5
1269	4.27359e+02	1.26900e+03	0.045488	424.5
1271	4.28370e+02	1.27100e+03	0.0389621	425.5
1273	4.29372e+02	1.27300e+03	0.0337381	426.5
1275	4.30386e+02	1.27500e+03	0.0286953	427.5
1277	4.31406e+02	1.27700e+03	0.0246769	428.5
1279	4.32395e+02	1.27900e+03	0.02077	429.5
1281	4.33366e+02	1.28100e+03	0.0176088	430.5
1283	4.34375e+02	1.28300e+03	0.0145197	431.5
1285	4.35387e+02	1.28500e+03	0.011952	432.5
1287	4.36442e+02	1.28700e+03	0.0094533	433.5
1289	4.37491e+02	1.28900e+03	0.0073977	434.5
1291	4.38504e+02	1.29100e+03	0.00543392	435.5
1293	4.39514e+02	1.29300e+03	0.00383419	436.5
1295	4.40536e+02	1.29500e+03	0.00223899	437.5
1297	4.41548e+02	1.29700e+03	0.00087837	438.5
1299	4.42568e+02	1.29900e+03	-0.000441684	439.5
1301	4.43554e+02	1.30100e+03	-0.00159001	440.5
1303	4.44567e+02	1.30300e+03	-0.00273756	441.5
1305	4.45583e+02	1.30500e+03	-0.00377504	442.5
1307	4.46587e+02	1.30700e+03	-0.00478716	443.5
1309	4.47586e+02	1.30900e+03	-0.00568897	444.5
1311	4.48599e+02	1.31100e+03	-0.00654862	445.5
1313	4.49616e+02	1.31300e+03	-0.00725032	446.5
1315	4.50689e+02	1.31500e+03	-0.00790584	447.5
1317	4.51638e+02	1.31700e+03	-0.00839002	448.5
1319	4.52782e+02	1.31900e+03	-0.00884354	449.5
1321	4.53839e+02	1.32100e+03	-0.00917476	450.5
1323	4.54777e+02	1.32300e+03	-0.00952048	451.5
1325	4.55781e+02	1.32500e+03	-0.00981196	452.5
1327	4.56760e+02	1.32700e+03	-0.0100998	453.5
1329	4.57779e+02	1.32900e+03	-0.0103274	454.5
1331	4.58734e+02	1.33100e+03	-0.0105179	455.5
1333	4.59726e+02	1.33300e+03	-0.010619	456.5
1335	4.60699e+02	1.33500e+03	-0.0107214	457.5
1337	4.61688e+02	1.33700e+03	-0.0107907	458.5
1339	4.62712e+02	1.33900e+03	-0.0108728	459.5
1341	4.63751e+02	1.34100e+03	-0.0109397	460.5
1343	4.64744e+02	1.34300e+03	-0.0109896	461.5
1345	4.65738e+02	1.34500e+03	-0.0110178	462.5
1347	4.66696e+02	1.34700e+03	-0.0110505	463.5
1349	4.67668e+02	1.34900e+03	-0.0110815	464.5
1351	4.68662e+02	1.35100e+03	-0.0111216	465.5
1353	4.69651e+02	1.35300e+03	-0.0111945	466.5
1355	4.70624e+02	1.35500e+03	-0.0112937	467.5
1357	4.71622e+02	1.35700e+03	-0.0114314	468.5
1359	4.72589e+02	1.35900e+03	-0.0115382	469.5
1361	4.73593e+02	1.36100e+03	-0.011622	470.5
1363	4.74590e+02	1.36300e+03	-0.0116948	471.5
1365	4.75588e+02	1.36500e+03	-0.0117256	472.5
1367	4.76636e+02	1.36700e+03	-0.0117501	473.5
1369	4.77609e+02	1.36900e+03	-0.0117626	474.5
1371	4.78617e+02	1.37100e+03	-0.0117911	475.5
1373	4.79613e+02	1.37300e+03	-0.0118226	476.5
1375	4.80623e+02	1.37500e+03	-0.0118366	477.5
1377	4.81591e+02	1.37700e+03	-0.0118335	478.5
1379	4.82556e+02	1.37900e+03	-0.0118369	479.5
1381	4.83568e+02	1.38100e+03	-0.0118446	480.5
1383	4.84547e+02	1.38300e+03	-0.0118516	481.5
1385	4.85569e+02	1.38500e+03	-0.0118615	482.5
1387	4.86587e+02	1.38700e+03	-0.0118708	483.5
1389	4.87637e+02	1.38900e+03	-0.0118774	484.5
1391	4.88696e+02	1.39100e+03	-0.011894	485.5
1393	4.89724e+02	1.39300e+03	-0.0119537	486.5
1395	4.90707e+02	1.39500e+03	-0.0120373	487.5
1397	4.91709e+02	1.39700e+03	-0.0121522	488.5
1399	4.92750e+02	1.39900e+03	-0.0122292	489.5
1401	4.93667e+02	1.40100e+03	-0.0122691	490.5
1403	4.94596e+02	1.40300e+03	-0.0123093	491.5
1405	4.95512e+02	1.40500e+03	-0.0123324	492.5
1407	4.96551e+02	1.40700e+03	-0.0123652	493.5
1409	4.97549e+02	1.40900e+03	-0.0124021	494.5
1411	4.98572e+02	1.41100e+03	-0.0124401	495.5
1413	4.99512e+02	1.41300e+03	-0.0124857	496.5
1415	5.00470e+02	1.41500e+03	-0.0125264	497.5
1417	5.01424e+02	1.41700e+03	-0.0125434	498.5
1419	5.02424e+02	1.41900e+03	-0.0125412	499.5
1421	5.03393e+02	1.42100e+03	-0.0125137	500.5
1423	5.04376e+02	1.42300e+03	-0.012509	501.5
1425	5.05320e+02	1.42500e+03	-0.0125173	502.5
1427	5.06261e+02	1.42700e+03	-0.012525	503.5
1429	5.07195e+02	1.42900e+03	-0.0125473	504.5
1431	5.08157e+02	1.43100e+03	-0.0125714	505.5
1433	5.09122e+02	1.43300e+03	-0.0125845	506.5
1435	5.10073e+02	1.43500e+03	-0.0125741	507.5
1437	5.10994e+02	1.43700e+03	-0.0125324	508.5
1439	5.11939e+02	1.43900e+03	-0.0125018	509.5
1441	5.12902e+02	1.44100e+03	-0.0124683	510.5
1443	5.13842e+02	1.44300e+03	-0.0124467	511.5
1445	5.14784e+02	1.44500e+03	-0.0124763	512.5
1447	5.15741e+02	1.44700e+03	-0.012538	513.5
1449	5.16704e+02	1.44900e+03	-0.0126401	514.5
1451	5.17645e+02	1.45100e+03	-0.0127019	515.5
1453	5.18590e+02	1.45300e+03	-0.0127353	516.5
1455	5.19560e+02	1.45500e+03	-0.0127701	517.5
1457	5.20540e+02	1.45700e+03	-0.0127827	518.5
1459	5.21534e+02	1.45900e+03	-0.0127954	519.5
1461	5.22523e+02	1.46100e+03	-0.0128106	520.5
1463	5.23515e+02	1.46300e+03	-0.0128371	521.5
1465	5.24540e+02	1.46500e+03	-0.0128709	522.5
1467	5.26446e+02	1.46700e+03	-0.0128917	523.5
1469	5.26931e+02	1.46900e+03	-0.0129029	524.5
1471	5.27703e+02	1.47100e+03	-0.0129139	525.5
1473	5.28587e+02	1.47300e+03	-0.0129073	526.5
1475	5.29489e+02	1.47500e+03	-0.0128953	527.5
1477	5.30401e+02	1.47700e+03	-0.012869	528.5
1479	5.31307e+02	1.47900e+03	-0.0128477	529.5
1481	5.32241e+02	1.48100e+03	-0.0128202	530.5
1483	5.33154e+02	1.48300e+03	-0.0127946	531.5
1485	5.34091e+02	1.48500e+03	-0.0127966	532.5
1487	5.35011e+02	1.48700e+03	-0.0128359	533.5
1489	5.35958e+02	1.48900e+03	-0.0129372	534.5
1491	5.36924e+02	1.49100e+03	-0.0130189	535.5
1493	5.37878e+02	1.49300e+03	-0.0131017	536.5
1495	5.38836e+02	1.49500e+03	-0.013165	537.5
1497	5.39804e+02	1.49700e+03	-0.0131983	538.5
1499	5.40763e+02	1.49900e+03	-0.0132255	539.5
1501	5.41735e+02	1.50100e+03	-0.0132178	540.5
1503	5.42701e+02	1.50300e+03	-0.013202	541.5
1505	5.43656e+02	1.50500e+03	-0.013173	542.5
1507	5.44624e+02	1.50700e+03	-0.0131639	543.5
1509	5.45585e+02	1.50900e+03	-0.013174	544.5
1511	5.46540e+02	1.51100e+03	-0.0131776	545.5
1513	5.47510e+02	1.51300e+03	-0.013186	546.5
1515	5.48474e+02	1.51500e+03	-0.0131985	547.5
1517	5.49452e+02	1.51700e+03	-0.0132194	548.5
1519	5.50398e+02	1.51900e+03	-0.0132432	549.5
1521	5.51378e+02	1.52100e+03	-0.0132815	550.5
1523	5.52352e+02	1.52300e+03	-0.0133215	551.5
1525	5.53309e+02	1.52500e+03	-0.0133596	552.5
1527	5.54287e+02	1.52700e+03	-0.0133764	553.5
1529	5.55272e+02	1.52900e+03	-0.0133664	554.5
1531	5.56252e+02	1.53100e+03	-0.0133565	555.5
1533	5.57232e+02	1.53300e+03	-0.013336	556.5
1535	5.58184e+02	1.53500e+03	-0.0133313	557.5
1537	5.59166e+02	1.53700e+03	-0.013365	558.5
1539	5.60135e+02	1.53900e+03	-0.013417	559.5
1541	5.61107e+02	1.54100e+03	-0.0135006	560.5
1543	5.62102e+02	1.54300e+03	-0.0135639	561.5
1545	5.63082e+02	1.54500e+03	-0.0136257	562.5
1547	5.64067e+02	1.54700e+03	-0.0136929	563.5
1549	5.65049e+02	1.54900e+03	-0.0137472	564.5
1551	5.66038e+02	1.55100e+03	-0.0137825	565.5
1553	5.67037e+02	1.55300e+03	-0.0138	566.5
1555	5.68046e+02	1.55500e+03	-0.0138372	567.5
1557	5.69039e+02	1.55700e+03	-0.0138774	568.5
1559	5.70017e+02	1.55900e+03	-0.013908	569.5
1561	5.71008e+02	1.56100e+03	-0.0139399	570.5
1563	5.72011e+02	1.56300e+03	-0.013985	571.5
1565	5.73011e+02	1.56500e+03	-0.0140427	572.5
1567	5.74001e+02	1.56700e+03	-0.0140967	573.5
1569	5.74974e+02	1.56900e+03	-0.0141509	574.5
1571	5.75994e+02	1.57100e+03	-0.0141958	575.5
1573	5.77021e+02	1.57300e+03	-0.0142268	576.5
1575	5.78084e+02	1.57500e+03	-0.0142486	577.5
1577	5.79094e+02	1.57700e+03	-0.0142465	578.5
1579	5.80124e+02	1.57900e+03	-0.0142488	579.5
1581	5.81212e+02	1.58100e+03	-0.0142517	580.5
1583	5.82296e+02	1.58300e+03	-0.0142694	581.5
1585	5.83297e+02	1.58500e+03	-0.0142969	582.5
1587	5.84306e+02	1.58700e+03	-0.014314	583.5
1589	5.85323e+02	1.58900e+03	-0.0143243	584.5
1591	5.86335e+02	1.59100e+03	-0.0143349	585.5
1593	5.87323e+02	1.59300e+03	-0.0143291	586.5
1595	5.88282e+02	1.59500e+03	-0.0143232	587.5
1597	5.89241e+02	1.59700e+03	-0.0143289	588.5
1599	5.90236e+02	1.59900e+03	-0.0143522	589.5
1601	5.91231e+02	1.60100e+03	-0.0143984	590.5
1603	5.92191e+02	1.60300e+03	-0.0144342	591.5
1605	5.93208e+02	1.60500e+03	-0.0144716	592.5
1607	5.94188e+02	1.60700e+03	-0.0145056	593.5
1609	5.95157e+02	1.60900e+03	-0.0145177	594.5
1611	5.96158e+02	1.61100e+03	-0.014507	595.5
1613	5.97130e+02	1.61300e+03	-0.0144689	596.5
1615	5.98095e+02	1.61500e+03	-0.0144423	597.5
1617	5.99060e+02	1.61700e+03	-0.0144017	598.5
1619	6.00076e+02	1.61900e+03	-0.014342	599.5
1621	6.01051e+02	1.62100e+03	-0.014257	600.5
1623	6.02028e+02	1.62300e+03	-0.0141881	601.5
1625	6.03023e+02	1.62500e+03	-0.0141453	602.5
1627	6.04009e+02	1.62700e+03	-0.0141336	603.5
1629	6.05009e+02	1.62900e+03	-0.0141867	604.5
1631	6.06002e+02	1.63100e+03	-0.0142408	605.5
1633	6.06998e+02	1.63300e+03	-0.0143136	606.5
1635	6.07962e+02	1.63500e+03	-0.0143663	607.5
1637	6.08963e+02	1.63700e+03	-0.0144245	608.5
1639	6.09934e+02	1.63900e+03	-0.0145052	609.5
1641	6.10946e+02	1.64100e+03	-0.0145874	610.5
1643	6.11950e+02	1.64300e+03	-0.0146258	611.5
1645	6.12987e+02	1.64500e+03	-0.0146027	612.5
1647	6.13995e+02	1.64700e+03	-0.0145768	613.5
1649	6.15013e+02	1.64900e+03	-0.0144903	614.5
1651	6.16010e+02	1.65100e+03	-0.0143928	615.5
1653	6.16986e+02	1.65300e+03	-0.0142774	616.5
1655	6.18081e+02	1.65500e+03	-0.0141989	617.5
1657	6.19066e+02	1.65700e+03	-0.0141911	618.5
1659	6.20064e+02	1.65900e+03	-0.0142172	619.5
1661	6.21064e+02	1.66100e+03	-0.0143339	620.5
1663	6.22188e+02	1.66300e+03	-0.0144544	621.5
1665	6.23338e+02	1.66500e+03	-0.0145772	622.5
1667	6.24503e+02	1.66700e+03	-0.0146416	623.5
1669	6.26194e+02	1.66900e+03	-0.01462	624.5
1671	6.27263e+02	1.67100e+03	-0.0146024	625.5
1673	6.28056e+02	1.67300e+03	-0.0145757	626.5
1675	6.28856e+02	1.67500e+03	-0.0145978	627.5
1677	6.29704e+02	1.67700e+03	-0.0146774	628.5
1679	6.30551e+02	1.67900e+03	-0.0147475	629.5
1681	6.31453e+02	1.68100e+03	-0.0148206	630.5
1683	6.32351e+02	1.68300e+03	-0.0148657	631.5
1685	6.33295e+02	1.68500e+03	-0.0148574	632.5
1687	6.34238e+02	1.68700e+03	-0.014821	633.5
1689	6.35203e+02	1.68900e+03	-0.0147335	634.5
1691	6.36175e+02	1.69100e+03	-0.0146751	635.5
1693	6.37148e+02	1.69300e+03	-0.0146521	636.5
1695	6.38122e+02	1.69500e+03	-0.0146556	637.5
1697	6.39098e+02	1.69700e+03	-0.0147283	638.5
1699	6.40082e+02	1.69900e+03	-0.0147971	639.5
1701	6.41075e+02	1.70100e+03	-0.0148674	640.5
1703	6.42053e+02	1.70300e+03	-0.0149026	641.5
1705	6.43024e+02	1.70500e+03	-0.0148996	642.5
1707	6.44022e+02	1.70700e+03	-0.0149214	643.5
1709	6.45014e+02	1.70900e+03	-0.014955	644.5
1711	6.46004e+02	1.71100e+03	-0.0149862	645.5
1713	6.46992e+02	1.71300e+03	-0.0150162	646.5
1715	6.47981e+02	1.71500e+03	-0.0150451	647.5
1717	6.48962e+02	1.71700e+03	-0.0150618	648.5
1719	6.49921e+02	1.71900e+03	-0.0150757	649.5
1721	6.50911e+02	1.72100e+03	-0.0151065	650.5
1723	6.51889e+02	1.72300e+03	-0.0151513	651.5
1725	6.52883e+02	1.72500e+03	-0.0152065	652.5
1727	6.53877e+02	1.72700e+03	-0.0152413	653.5
1729	6.54858e+02	1.72900e+03	-0.0152658	654.5
1731	6.55840e+02	1.73100e+03	-0.0152965	655.5
1733	6.56830e+02	1.73300e+03	-0.0153176	656.5
1735	6.57815e+02	1.73500e+03	-0.0153347	657.5
1737	6.58805e+02	1.73700e+03	-0.0153698	658.5
1739	6.59779e+02	1.73900e+03	-0.0154401	659.5
1741	6.60760e+02	1.74100e+03	-0.0155666	660.5
1743	6.61750e+02	1.74300e+03	-0.0156751	661.5
1745	6.62736e+02	1.74500e+03	-0.0157397	662.5
1747	6.63733e+02	1.74700e+03	-0.0157469	663.5
1749	6.64719e+02	1.74900e+03	-0.0156401	664.5
1751	6.65703e+02	1.75100e+03	-0.0155444	665.5
1753	6.66706e+02	1.75300e+03	-0.0154273	666.5
1755	6.67688e+02	1.75500e+03	-0.0153509	667.5
1757	6.68682e+02	1.75700e+03	-0.0153302	668.5
1759	6.69683e+02	1.75900e+03	-0.0153146	669.5
1761	6.70683e+02	1.76100e+03	-0.0153385	670.5
1763	6.71682e+02	1.76300e+03	-0.0153592	671.5
1765	6.72689e+02	1.76500e+03	-0.015406	672.5
1767	6.73691e+02	1.76700e+03	-0.0154391	673.5
1769	6.74700e+02	1.76900e+03	-0.0154523	674.5
1771	6.75701e+02	1.77100e+03	-0.0154373	675.5
1773	6.76698e+02	1.77300e+03	-0.0153789	676.5
1775	6.77700e+02	1.77500e+03	-0.015339	677.5
1777	6.78686e+02	1.77700e+03	-0.0153059	678.5
1779	6.79689e+02	1.77900e+03	-0.015285	679.5
1781	6.80686e+02	1.78100e+03	-0.0153031	680.5
1783	6.81705e+02	1.78300e+03	-0.0153475	681.5
1785	6.82716e+02	1.78500e+03	-0.0154089	682.5
1787	6.83716e+02	1.78700e+03	-0.0154405	683.5
1789	6.84718e+02	1.78900e+03	-0.0154585	684.5
1791	6.85700e+02	1.79100e+03	-0.015476	685.5
1793	6.86684e+02	1.79300e+03	-0.015478	686.5
1795	6.87357e+02	1.79500e+03	-0.015475	687.5
1797	6.87867e+02	1.79700e+03	-0.0154678	688.5
1799	6.88602e+02	1.79900e+03	-0.0154786	689.5
1801	6.89343e+02	1.80100e+03	-0.0154935	690.5
1803	6.90052e+02	1.80300e+03	-0.0155097	691.5
1805	6.90712e+02	1.80500e+03	-0.0155408	692.5
1807	6.91352e+02	1.80700e+03	-0.0155925	693.5
1809	6.92000e+02	1.80900e+03	-0.0156619	694.5
1811	6.92801e+02	1.81100e+03	-0.0156998	695.5
1813	6.93271e+02	1.81300e+03	-0.0156989	696.5
1815	6.93599e+02	1.81500e+03	-0.0156912	697.5
1817	6.93939e+02	1.81700e+03	-0.0156474	698.5
1819	6.94309e+02	1.81900e+03	-0.0155986	699.5
1821	6.94659e+02	1.82100e+03	-0.0155331	700.0
1823	6.94996e+02	1.82300e+03	-0.015485	700.0
1825	6.95319e+02	1.82500e+03	-0.015449	700.0
1827	6.95629e+02	1.82700e+03	-0.0154227	700.0
1829	6.95922e+02	1.82900e+03	-0.0154324	700.0
1831	6.96194e+02	1.83100e+03	-0.0154633	700.0
1833	6.96457e+02	1.83300e+03	-0.0155318	700.0
1835	6.96714e+02	1.83500e+03	-0.0155899	700.0
1837	6.96930e+02	1.83700e+03	-0.0156514	700.0
1839	6.97165e+02	1.83900e+03	-0.0157047	700.0
1841	6.97375e+02	1.84100e+03	-0.015732	700.0
1843	6.97576e+02	1.84300e+03	-0.0157419	700.0
1845	6.97754e+02	1.84500e+03	-0.0157106	700.0
1847	6.97925e+02	1.84700e+03	-0.0156749	700.0
1849	6.98095e+02	1.84900e+03	-0.0156257	700.0
1851	6.98238e+02	1.85100e+03	-0.0156058	700.0
1853	6.98371e+02	1.85300e+03	-0.0156122	700.0
1855	6.98525e+02	1.85500e+03	-0.0156138	700.0
1857	6.98643e+02	1.85700e+03	-0.0156342	700.0
1859	6.98773e+02	1.85900e+03	-0.0156501	700.0
1861	6.98878e+02	1.86100e+03	-0.0156654	700.0
1863	6.99001e+02	1.86300e+03	-0.0156773	700.0
1865	6.99094e+02	1.86500e+03	-0.0157055	700.0
1867	6.99196e+02	1.86700e+03	-0.0157495	700.0
1869	6.99282e+02	1.86900e+03	-0.0158138	700.0
1871	6.99378e+02	1.87100e+03	-0.015858	700.0
1873	6.99460e+02	1.87300e+03	-0.0158845	700.0
1875	6.99531e+02	1.87500e+03	-0.0159089	700.0
1877	6.99607e+02	1.87700e+03	-0.0159134	700.0
1879	6.99677e+02	1.87900e+03	-0.0159097	700.0
1881	6.99747e+02	1.88100e+03	-0.0158931	700.0
1883	6.99818e+02	1.88300e+03	-0.0158781	700.0
1885	6.99886e+02	1.88500e+03	-0.0158613	700.0
1887	6.99937e+02	1.88700e+03	-0.0158441	700.0
1889	6.99997e+02	1.88900e+03	-0.0158357	700.0
1891	7.00049e+02	1.89100e+03	-0.0158445	700.0
1893	7.00114e+02	1.89300e+03	-0.015866	700.0
1895	7.00161e+02	1.89500e+03	-0.0158663	700.0
1897	7.00213e+02	1.89700e+03	-0.0158535	700.0
1899	7.00255e+02	1.89900e+03	-0.0158399	700.0
1901	7.00310e+02	1.90100e+03	-0.0158197	700.0
1903	7.00345e+02	1.90300e+03	-0.015809	700.0
1905	7.00392e+02	1.90500e+03	-0.0158081	700.0
1907	7.00424e+02	1.90700e+03	-0.0158055	700.0
1909	7.00460e+02	1.90900e+03	-0.0157954	700.0
1911	7.00497e+02	1.91100e+03	-0.015774	700.0
1913	7.00533e+02	1.91300e+03	-0.0157477	700.0
1915	7.00565e+02	1.91500e+03	-0.0157425	700.0
1917	7.00603e+02	1.91700e+03	-0.0157743	700.0
1919	7.00629e+02	1.91900e+03	-0.015813	700.0
1921	7.00660e+02	1.92100e+03	-0.0158783	700.0
1923	7.00690e+02	1.92300e+03	-0.0159258	700.0
1925	7.00711e+02	1.92500e+03	-0.0159542	700.0
1927	7.00739e+02	1.92700e+03	-0.0159615	700.0
1929	7.00760e+02	1.92900e+03	-0.0159181	700.0
1931	7.00786e+02	1.93100e+03	-0.0158752	700.0
1933	7.00805e+02	1.93300e+03	-0.0158325	700.0
1935	7.00832e+02	1.93500e+03	-0.0158195	700.0
1937	7.00843e+02	1.93700e+03	-0.0158487	700.0
1939	7.00864e+02	1.93900e+03	-0.015866	700.0
1941	7.00887e+02	1.94100e+03	-0.0158889	700.0
1943	7.00918e+02	1.94300e+03	-0.0159111	700.0
1945	7.00916e+02	1.94500e+03	-0.015931	700.0
1947	7.00947e+02	1.94700e+03	-0.0159358	700.0
1949	7.00957e+02	1.94900e+03	-0.0159281	700.0
1951	7.00975e+02	1.95100e+03	-0.0159216	700.0
1953	7.00995e+02	1.95300e+03	-0.0159083	700.0
1955	7.01002e+02	1.95500e+03	-0.0158972	700.0
1957	7.01004e+02	1.95700e+03	-0.0158852	700.0
1959	7.01029e+02	1.95900e+03	-0.015884	700.0
1961	7.01039e+02	1.96100e+03	-0.015892	700.0
1963	7.01049e+02	1.96300e+03	-0.0159058	700.0
1965	7.01058e+02	1.96500e+03	-0.0159414	700.0
1967	7.01077e+02	1.96700e+03	-0.0159799	700.0
1969	7.01081e+02	1.96900e+03	-0.0160218	700.0
1971	7.01096e+02	1.97100e+03	-0.0160467	700.0
1973	7.01098e+02	1.97300e+03	-0.0160595	700.0
1975	7.01107e+02	1.97500e+03	-0.0160761	700.0
1977	7.01127e+02	1.97700e+03	-0.0160912	700.0
1979	7.01129e+02	1.97900e+03	-0.0161085	700.0
1981	7.01134e+02	1.98100e+03	-0.0161267	700.0
1983	7.01146e+02	1.98300e+03	-0.0161503	700.0
1985	7.01151e+02	1.98500e+03	-0.0161973	700.0
1987	7.01166e+02	1.98700e+03	-0.0162492	700.0
1989	7.01170e+02	1.98900e+03	-0.0163132	700.0
1991	7.01185e+02	1.99100e+03	-0.0163568	700.0
1993	7.01188e+02	1.99300e+03	-0.016375	700.0
1995	7.01195e+02	1.99500e+03	-0.0163929	700.0
1997	7.01199e+02	1.99700e+03	-0.0163969	700.0
1999	7.01201e+02	1.99900e+03	-0.0164025	700.0
2001	7.01206e+02	2.00100e+03	-0.0164031	700.0
2003	7.01214e+02	2.00300e+03	-0.0164046	700.0
2005	7.01221e+02	2.00500e+03	-0.0164054	700.0
2007	7.01220e+02	2.00700e+03	-0.0164093	700.0
2009	7.01230e+02	2.00900e+03	-0.0164196	700.0
2011	7.01234e+02	2.01100e+03	-0.0164304	700.0
2013	7.01248e+02	2.01300e+03	-0.016425	700.0
2015	7.01258e+02	2.01500e+03	-0.0164101	700.0
2017	7.01250e+02	2.01700e+03	-0.016381	700.0
2019	7.01256e+02	2.01900e+03	-0.0163675	700.0
2021	7.01255e+02	2.02100e+03	-0.0163752	700.0
2023	7.01261e+02	2.02300e+03	-0.0163904	700.0
2025	7.01265e+02	2.02500e+03	-0.0164294	700.0
2027	7.01272e+02	2.02700e+03	-0.0164674	700.0
2029	7.01275e+02	2.02900e+03	-0.0164975	700.0
2031	7.01275e+02	2.03100e+03	-0.0165116	700.0
2033	7.01275e+02	2.03300e+03	-0.0165047	700.0
2035	7.01290e+02	2.03500e+03	-0.0165048	700.0
2037	7.01291e+02	2.03700e+03	-0.0165033	700.0
2039	7.01288e+02	2.03900e+03	-0.0165037	700.0
2041	7.01290e+02	2.04100e+03	-0.0165095	700.0
2043	7.01291e+02	2.04300e+03	-0.0165187	700.0
2045	7.01294e+02	2.04500e+03	-0.0165222	700.0
2047	7.01300e+02	2.04700e+03	-0.0165193	700.0
2049	7.01303e+02	2.04900e+03	-0.0165132	700.0
2051	7.01297e+02	2.05100e+03	-0.0165176	700.0
2053	7.01305e+02	2.05300e+03	-0.0165356	700.0
2055	7.01312e+02	2.05500e+03	-0.0165532	700.0
2057	7.01312e+02	2.05700e+03	-0.0165735	700.0
2059	7.01310e+02	2.05900e+03	-0.016588	700.0
2061	7.01318e+02	2.06100e+03	-0.0165947	700.0
2063	7.01318e+02	2.06300e+03	-0.0166012	700.0
2065	7.01317e+02	2.06500e+03	-0.0166063	700.0
2067	7.01329e+02	2.06700e+03	-0.016616	700.0
2069	7.01320e+02	2.06900e+03	-0.0166345	700.0
2071	7.01336e+02	2.07100e+03	-0.016657	700.0
2073	7.01326e+02	2.07300e+03	-0.0166928	700.0
2075	7.01333e+02	2.07500e+03	-0.0167327	700.0
2077	7.01337e+02	2.07700e+03	-0.0167875	700.0
2079	7.01335e+02	2.07900e+03	-0.0168387	700.0
2081	7.01336e+02	2.08100e+03	-0.0168674	700.0
2083	7.01345e+02	2.08300e+03	-0.0168764	700.0
2085	7.01336e+02	2.08500e+03	-0.0168455	700.0
2087	7.01340e+02	2.08700e+03	-0.0168249	700.0
2089	7.01345e+02	2.08900e+03	-0.0168046	700.0
2091	7.01344e+02	2.09100e+03	-0.0167939	700.0
2093	7.01343e+02	2.09300e+03	-0.0168169	700.0
2095	7.01339e+02	2.09500e+03	-0.0168443	700.0
2097	7.01348e+02	2.09700e+03	-0.0168782	700.0
2099	7.01335e+02	2.09900e+03	-0.0168962	700.0
2101	7.01346e+02	2.10100e+03	-0.0168965	700.0
2103	7.01347e+02	2.10300e+03	-0.0169114	700.0
2105	7.01346e+02	2.10500e+03	-0.0169374	700.0
2107	7.01343e+02	2.10700e+03	-0.0169601	700.0
2109	7.01346e+02	2.10900e+03	-0.0169872	700.0
2111	7.01345e+02	2.11100e+03	-0.0170062	700.0
2113	7.01346e+02	2.11300e+03	-0.0170111	700.0
2115	7.01343e+02	2.11500e+03	-0.017015	700.0
2117	7.01353e+02	2.11700e+03	-0.0170113	700.0
2119	7.01339e+02	2.11900e+03	-0.0170122	700.0
2121	7.01352e+02	2.12100e+03	-0.0170078	700.0
2123	7.01347e+02	2.12300e+03	-0.0169978	700.0
2125	7.01345e+02	2.12500e+03	-0.0169894	700.0
2127	7.01341e+02	2.12700e+03	-0.0169917	700.0
2129	7.01341e+02	2.12900e+03	-0.0170154	700.0
2131	7.01348e+02	2.13100e+03	-0.0170398	700.0
2133	7.01342e+02	2.13300e+03	-0.0170655	700.0
2135	7.01347e+02	2.13500e+03	-0.0170735	700.0
2137	7.01344e+02	2.13700e+03	-0.0170517	700.0
2139	7.01342e+02	2.13900e+03	-0.0170216	700.0
2141	7.01344e+02	2.14100e+03	-0.0169885	700.0
2143	7.01347e+02	2.14300e+03	-0.0169768	700.0
2145	7.01350e+02	2.14500e+03	-0.0169984	700.0
2147	7.01345e+02	2.14700e+03	-0.0170191	700.0
2149	7.01350e+02	2.14900e+03	-0.017066	700.0
2151	7.01345e+02	2.15100e+03	-0.0171165	700.0
2153	7.01348e+02	2.15300e+03	-0.0171675	700.0
2155	7.01344e+02	2.15500e+03	-0.017207	700.0
2157	7.01348e+02	2.15700e+03	-0.017231	700.0
2159	7.01347e+02	2.15900e+03	-0.0172477	700.0
2161	7.01348e+02	2.16100e+03	-0.0172402	700.0
2163	7.01344e+02	2.16300e+03	-0.0172277	700.0
2165	7.01344e+02	2.16500e+03	-0.0171959	700.0
2167	7.01339e+02	2.16700e+03	-0.0171689	700.0
2169	7.01338e+02	2.16900e+03	-0.0171425	700.0
2171	7.01355e+02	2.17100e+03	-0.0171125	700.0
2173	7.01337e+02	2.17300e+03	-0.0170918	700.0
2175	7.01347e+02	2.17500e+03	-0.0170818	700.0
2177	7.01332e+02	2.17700e+03	-0.017097	700.0
2179	7.01343e+02	2.17900e+03	-0.0171213	700.0
2181	7.01339e+02	2.18100e+03	-0.0171518	700.0
2183	7.01330e+02	2.18300e+03	-0.0171689	700.0
2185	7.01333e+02	2.18500e+03	-0.0171802	700.0
2187	7.01324e+02	2.18700e+03	-0.0172102	700.0
2189	7.01341e+02	2.18900e+03	-0.0172469	700.0
2191	7.01321e+02	2.19100e+03	-0.0172736	700.0
2193	7.01332e+02	2.19300e+03	-0.0172889	700.0
2195	7.01330e+02	2.19500e+03	-0.0173006	700.0
2197	7.01327e+02	2.19700e+03	-0.0173016	700.0
2199	7.01332e+02	2.19900e+03	-0.0173044	700.0
2201	7.01332e+02	2.20100e+03	-0.0173044	700.0
2203	7.01324e+02	2.20300e+03	-0.0173049	700.0
2205	7.01325e+02	2.20500e+03	-0.0173049	700.0
2207	7.01329e+02	2.20700e+03	-0.017305	700.0
2209	7.01312e+02	2.20900e+03	-0.0173181	700.0
2211	7.01325e+02	2.21100e+03	-0.0173359	700.0
2213	7.01327e+02	2.21300e+03	-0.0173394	700.0
2215	7.01330e+02	2.21500e+03	-0.0173153	700.0
2217	7.01328e+02	2.21700e+03	-0.0172608	700.0
2219	7.01340e+02	2.21900e+03	-0.0172274	700.0
2221	7.01332e+02	2.22100e+03	-0.0172069	700.0
2223	7.01329e+02	2.22300e+03	-0.0171951	700.0
2225	7.01331e+02	2.22500e+03	-0.0172048	700.0
2227	7.01319e+02	2.22700e+03	-0.0172247	700.0
2229	7.01326e+02	2.22900e+03	-0.0172601	700.0
2231	7.01325e+02	2.23100e+03	-0.0172869	700.0
2233	7.01325e+02	2.23300e+03	-0.0173017	700.0
2235	7.01325e+02	2.23500e+03	-0.0173112	700.0
2237	7.01317e+02	2.23700e+03	-0.0173103	700.0
2239	7.01330e+02	2.23900e+03	-0.0173262	700.0
2241	7.01310e+02	2.24100e+03	-0.0173619	700.0
2243	7.01312e+02	2.24300e+03	-0.0173959	700.0
2245	7.01319e+02	2.24500e+03	-0.0174336	700.0
2247	7.01312e+02	2.24700e+03	-0.0174536	700.0
2249	7.01316e+02	2.24900e+03	-0.0174609	700.0
2251	7.01309e+02	2.25100e+03	-0.0174709	700.0
2253	7.01314e+02	2.25300e+03	-0.0174768	700.0
2255	7.01305e+02	2.25500e+03	-0.0174893	700.0
2257	7.01311e+02	2.25700e+03	-0.0175098	700.0
2259	7.01309e+02	2.25900e+03	-0.0175294	700.0
2261	7.01305e+02	2.26100e+03	-0.0175463	700.0
2263	7.01305e+02	2.26300e+03	-0.0175556	700.0
2265	7.01310e+02	2.26500e+03	-0.0175492	700.0
2267	7.01310e+02	2.26700e+03	-0.0175416	700.0
2269	7.01305e+02	2.26900e+03	-0.017531	700.0
2271	7.01300e+02	2.27100e+03	-0.0175245	700.0
2273	7.01304e+02	2.27300e+03	-0.0175279	700.0
2275	7.01308e+02	2.27500e+03	-0.0175412	700.0
2277	7.01309e+02	2.27700e+03	-0.0175726	700.0
2279	7.01301e+02	2.27900e+03	-0.0176066	700.0
2281	7.01302e+02	2.28100e+03	-0.0176451	700.0
2283	7.01298e+02	2.28300e+03	-0.0176688	700.0
2285	7.01302e+02	2.28500e+03	-0.0176698	700.0
2287	7.01304e+02	2.28700e+03	-0.0176673	700.0
2289	7.01293e+02	2.28900e+03	-0.0176522	700.0
2291	7.01297e+02	2.29100e+03	-0.0176459	700.0
2293	7.01292e+02	2.29300e+03	-0.0176498	700.0
2295	7.01287e+02	2.29500e+03	-0.017658	700.0
2297	7.01293e+02	2.29700e+03	-0.0176745	700.0
2299	7.01293e+02	2.29900e+03	-0.0176842	700.0
2301	7.01293e+02	2.30100e+03	-0.0176839	700.0
2303	7.01293e+02	2.30300e+03	-0.0176786	700.0
2305	7.01287e+02	2.30500e+03	-0.0176593	700.0
2307	7.01289e+02	2.30700e+03	-0.0176299	700.0
2309	7.01294e+02	2.30900e+03	-0.0176043	700.0
2311	7.01286e+02	2.31100e+03	-0.0176065	700.0
2313	7.01290e+02	2.31300e+03	-0.0176448	700.0
2315	7.01283e+02	2.31500e+03	-0.0176897	700.0
2317	7.01289e+02	2.31700e+03	-0.0177581	700.0
2319	7.01285e+02	2.31900e+03	-0.017811	700.0
2321	7.01288e+02	2.32100e+03	-0.0178478	700.0
2323	7.01286e+02	2.32300e+03	-0.0178776	700.0
2325	7.01283e+02	2.32500e+03	-0.0178853	700.0
2327	7.01281e+02	2.32700e+03	-0.01789	700.0
2329	7.01279e+02	2.32900e+03	-0.01788	700.0
2331	7.01286e+02	2.33100e+03	-0.017872	700.0
2333	7.01272e+02	2.33300e+03	-0.0178626	700.0
2335	7.01282e+02	2.33500e+03	-0.0178677	700.0
2337	7.01284e+02	2.33700e+03	-0.0178904	700.0
2339	7.01282e+02	2.33900e+03	-0.0179026	700.0
2341	7.01281e+02	2.34100e+03	-0.017913	700.0
2343	7.01279e+02	2.34300e+03	-0.0179162	700.0
2345	7.01274e+02	2.34500e+03	-0.0179119	700.0
2347	7.01284e+02	2.34700e+03	-0.017919	700.0
2349	7.01268e+02	2.34900e+03	-0.0179395	700.0
2351	7.01276e+02	2.35100e+03	-0.0179681	700.0
2353	7.01272e+02	2.35300e+03	-0.0180021	700.0
2355	7.01273e+02	2.35500e+03	-0.0180235	700.0
2357	7.01278e+02	2.35700e+03	-0.0180181	700.0
2359	7.01270e+02	2.35900e+03	-0.01799	700.0
2361	7.01266e+02	2.36100e+03	-0.017922	700.0
2363	7.01277e+02	2.36300e+03	-0.0178667	700.0
2365	7.01269e+02	2.36500e+03	-0.0178204	700.0
2367	7.01272e+02	2.36700e+03	-0.0177894	700.0
2369	7.01276e+02	2.36900e+03	-0.0177815	700.0
2371	7.01274e+02	2.37100e+03	-0.0177575	700.0
2373	7.01269e+02	2.37300e+03	-0.0177365	700.0
2375	7.01270e+02	2.37500e+03	-0.0177288	700.0
2377	7.01274e+02	2.37700e+03	-0.0177465	700.0
2379	7.01276e+02	2.37900e+03	-0.017774	700.0
2381	7.01275e+02	2.38100e+03	-0.0178357	700.0
2383	7.01276e+02	2.38300e+03	-0.0179107	700.0
2385	7.01275e+02	2.38500e+03	-0.0180026	700.0
2387	7.01272e+02	2.38700e+03	-0.018076	700.0
2389	7.01281e+02	2.38900e+03	-0.0181187	700.0
2391	7.01278e+02	2.39100e+03	-0.0181395	700.0
2393	7.01276e+02	2.39300e+03	-0.0181163	700.0
2395	7.01275e+02	2.39500e+03	-0.0181141	700.0
2397	7.01273e+02	2.39700e+03	-0.0181209	700.0
2399	7.01275e+02	2.39900e+03	-0.0181352	700.0
2401	7.01278e+02	2.40100e+03	-0.0181489	700.0
2403	7.01268e+02	2.40300e+03	-0.018135	700.0
2405	7.01277e+02	2.40500e+03	-0.018075	700.0
2407	7.01269e+02	2.40700e+03	-0.0180259	700.0
2409	7.01270e+02	2.40900e+03	-0.0179782	700.0
2411	7.01266e+02	2.41100e+03	-0.0179487	700.0
2413	7.01277e+02	2.41300e+03	-0.0179512	700.0
2415	7.01267e+02	2.41500e+03	-0.0179541	700.0
2417	7.01264e+02	2.41700e+03	-0.0179729	700.0
2419	7.01271e+02	2.41900e+03	-0.0179996	700.0
2421	7.01267e+02	2.42100e+03	-0.0180769	700.0
2423	7.01268e+02	2.42300e+03	-0.0181811	700.0
2425	7.01263e+02	2.42500e+03	-0.0183298	700.0
2427	7.01270e+02	2.42700e+03	-0.0184427	700.0
2429	7.01259e+02	2.42900e+03	-0.0184836	700.0
2431	7.01269e+02	2.43100e+03	-0.0184744	700.0
2433	7.01271e+02	2.43300e+03	-0.0183617	700.0
2435	7.01266e+02	2.43500e+03	-0.0182728	700.0
2437	7.01258e+02	2.43700e+03	-0.0181786	700.0
2439	7.01267e+02	2.43900e+03	-0.0181092	700.0
2441	7.01267e+02	2.44100e+03	-0.0180812	700.0
2443	7.01264e+02	2.44300e+03	-0.0180601	700.0
2445	7.01264e+02	2.44500e+03	-0.0180661	700.0
2447	7.01265e+02	2.44700e+03	-0.0180636	700.0
2449	7.01261e+02	2.44900e+03	-0.0180645	700.0
2451	7.01266e+02	2.45100e+03	-0.0180691	700.0
2453	7.01270e+02	2.45300e+03	-0.0180882	700.0
2455	7.01270e+02	2.45500e+03	-0.0181163	700.0
2457	7.01267e+02	2.45700e+03	-0.018156	700.0
2459	7.01263e+02	2.45900e+03	-0.0181735	700.0
2461	7.01262e+02	2.46100e+03	-0.0181588	700.0
2463	7.01264e+02	2.46300e+03	-0.0181333	700.0
2465	7.01259e+02	2.46500e+03	-0.0181003	700.0
2467	7.01266e+02	2.46700e+03	-0.0181032	700.0
2469	7.01261e+02	2.46900e+03	-0.0181301	700.0
2471	7.01265e+02	2.47100e+03	-0.0181396	700.0
2473	7.01266e+02	2.47300e+03	-0.0181312	700.0
2475	7.01266e+02	2.47500e+03	-0.0181128	700.0
2477	7.01260e+02	2.47700e+03	-0.018076	700.0
2479	7.01265e+02	2.47900e+03	-0.0180399	700.0
2481	7.01259e+02	2.48100e+03	-0.0180166	700.0
2483	7.01261e+02	2.48300e+03	-0.0180194	700.0
2485	7.01260e+02	2.48500e+03	-0.0180535	700.0
2487	7.01263e+02	2.48700e+03	-0.0180875	700.0
2489	7.01268e+02	2.48900e+03	-0.0181329	700.0
2491	7.01269e+02	2.49100e+03	-0.0181596	700.0
2493	7.01261e+02	2.49300e+03	-0.0181451	700.0
2495	7.01264e+02	2.49500e+03	-0.0181201	700.0
2497	7.01268e+02	2.49700e+03	-0.0180815	700.0
2499	7.01257e+02	2.49900e+03	-0.0180777	700.0
2501	7.01264e+02	2.50100e+03	-0.0180952	700.0
2503	7.01261e+02	2.50300e+03	-0.0180976	700.0
2505	7.01258e+02	2.50500e+03	-0.018089	700.0
2507	7.01258e+02	2.50700e+03	-0.0180778	700.0
2509	7.01253e+02	2.50900e+03	-0.0180668	700.0
2511	7.01256e+02	2.51100e+03	-0.0180676	700.0
2513	7.01253e+02	2.51300e+03	-0.0180826	700.0
2515	7.01250e+02	2.51500e+03	-0.0181006	700.0
2517	7.01255e+02	2.51700e+03	-0.01813	700.0
2519	7.01247e+02	2.51900e+03	-0.0181542	700.0
2521	7.01254e+02	2.52100e+03	-0.0181813	700.0
2523	7.01247e+02	2.52300e+03	-0.0182069	700.0
2525	7.01250e+02	2.52500e+03	-0.0182266	700.0
2527	7.01253e+02	2.52700e+03	-0.0182285	700.0
2529	7.01240e+02	2.52900e+03	-0.018193	700.0
2531	7.01247e+02	2.53100e+03	-0.0181504	700.0
2533	7.01244e+02	2.53300e+03	-0.0180925	700.0
2535	7.01242e+02	2.53500e+03	-0.0180618	700.0
2537	7.01238e+02	2.53700e+03	-0.0180495	700.0
2539	7.01242e+02	2.53900e+03	-0.0180328	700.0
2541	7.01238e+02	2.54100e+03	-0.0180243	700.0
2543	7.01240e+02	2.54300e+03	-0.0180265	700.0
2545	7.01237e+02	2.54500e+03	-0.0180371	700.0
2547	7.01243e+02	2.54700e+03	-0.0180375	700.0
2549	7.01242e+02	2.54900e+03	-0.0180443	700.0
2551	7.01240e+02	2.55100e+03	-0.0180585	700.0
2553	7.01232e+02	2.55300e+03	-0.0180741	700.0
2555	7.01247e+02	2.55500e+03	-0.0180802	700.0
2557	7.01242e+02	2.55700e+03	-0.0180884	700.0
2559	7.01238e+02	2.55900e+03	-0.0181071	700.0
2561	7.01241e+02	2.56100e+03	-0.0181463	700.0
2563	7.01234e+02	2.56300e+03	-0.0181663	700.0
2565	7.01236e+02	2.56500e+03	-0.0181878	700.0
2567	7.01235e+02	2.56700e+03	-0.0182111	700.0
2569	7.01232e+02	2.56900e+03	-0.0182319	700.0
2571	7.01224e+02	2.57100e+03	-0.018254	700.0
2573	7.01240e+02	2.57300e+03	-0.0182742	700.0
2575	7.01242e+02	2.57500e+03	-0.0182888	700.0
2577	7.01233e+02	2.57700e+03	-0.0182897	700.0
2579	7.01242e+02	2.57900e+03	-0.0182788	700.0
2581	7.01235e+02	2.58100e+03	-0.0182421	700.0
2583	7.01237e+02	2.58300e+03	-0.0182116	700.0
2585	7.01228e+02	2.58500e+03	-0.0181821	700.0
2587	7.01238e+02	2.58700e+03	-0.0181664	700.0
2589	7.01232e+02	2.58900e+03	-0.0181692	700.0
2591	7.01227e+02	2.59100e+03	-0.0181693	700.0
2593	7.01233e+02	2.59300e+03	-0.018181	700.0
2595	7.01228e+02	2.59500e+03	-0.018199	700.0
2597	7.01234e+02	2.59700e+03	-0.0182299	700.0
2599	7.01239e+02	2.59900e+03	-0.0182584	700.0
2601	7.01233e+02	2.60100e+03	-0.0182979	700.0
2603	7.01229e+02	2.60300e+03	-0.0183229	700.0
2605	7.01230e+02	2.60500e+03	-0.0183251	700.0
2607	7.01235e+02	2.60700e+03	-0.0183053	700.0
2609	7.01240e+02	2.60900e+03	-0.0182585	700.0
2611	7.01234e+02	2.61100e+03	-0.0182314	700.0
2613	7.01234e+02	2.61300e+03	-0.0182196	700.0
2615	7.01237e+02	2.61500e+03	-0.018214	700.0
2617	7.01231e+02	2.61700e+03	-0.0182311	700.0
2619	7.01226e+02	2.61900e+03	-0.0182507	700.0
2621	7.01229e+02	2.62100e+03	-0.0182659	700.0
2623	7.01226e+02	2.62300e+03	-0.0182727	700.0
2625	7.01234e+02	2.62500e+03	-0.0182823	700.0
2627	7.01227e+02	2.62700e+03	-0.0183115	700.0
2629	7.01227e+02	2.62900e+03	-0.0183513	700.0
2631	7.01226e+02	2.63100e+03	-0.0183712	700.0
2633	7.01227e+02	2.63300e+03	-0.0183664	700.0
2635	7.01230e+02	2.63500e+03	-0.0183572	700.0
2637	7.01219e+02	2.63700e+03	-0.0183135	700.0
2639	7.01221e+02	2.63900e+03	-0.0182605	700.0
2641	7.01225e+02	2.64100e+03	-0.0181963	700.0
2643	7.01222e+02	2.64300e+03	-0.0181511	700.0
2645	7.01218e+02	2.64500e+03	-0.0181249	700.0
2647	7.01228e+02	2.64700e+03	-0.0180995	700.0
2649	7.01220e+02	2.64900e+03	-0.0181002	700.0
2651	7.01230e+02	2.65100e+03	-0.0181137	700.0
2653	7.01233e+02	2.65300e+03	-0.0181544	700.0
2655	7.01226e+02	2.65500e+03	-0.0181911	700.0
2657	7.01228e+02	2.65700e+03	-0.0182339	700.0
2659	7.01222e+02	2.65900e+03	-0.0182767	700.0
2661	7.01234e+02	2.66100e+03	-0.0183296	700.0
2663	7.01223e+02	2.66300e+03	-0.0183757	700.0
2665	7.01227e+02	2.66500e+03	-0.0184088	700.0
2667	7.01220e+02	2.66700e+03	-0.0184314	700.0
2669	7.01226e+02	2.66900e+03	-0.0184342	700.0
2671	7.01231e+02	2.67100e+03	-0.0184504	700.0
2673	7.01227e+02	2.67300e+03	-0.0184712	700.0
2675	7.01228e+02	2.67500e+03	-0.0184844	700.0
2677	7.01232e+02	2.67700e+03	-0.0184813	700.0
2679	7.01234e+02	2.67900e+03	-0.0184673	700.0
2681	7.01225e+02	2.68100e+03	-0.0184232	700.0
2683	7.01229e+02	2.68300e+03	-0.0183672	700.0
2685	7.01232e+02	2.68500e+03	-0.0182955	700.0
2687	7.01225e+02	2.68700e+03	-0.0182423	700.0
2689	7.01226e+02	2.68900e+03	-0.0182124	700.0
2691	7.01222e+02	2.69100e+03	-0.0181924	700.0
2693	7.01226e+02	2.69300e+03	-0.0181961	700.0
2695	7.01227e+02	2.69500e+03	-0.0181978	700.0
2697	7.01232e+02	2.69700e+03	-0.0182031	700.0
2699	7.01222e+02	2.69900e+03	-0.0182011	700.0
2701	7.01231e+02	2.70100e+03	-0.018188	700.0
2703	7.01225e+02	2.70300e+03	-0.0181735	700.0
2705	7.01228e+02	2.70500e+03	-0.0181617	700.0
2707	7.01222e+02	2.70700e+03	-0.0181657	700.0
2709	7.01221e+02	2.70900e+03	-0.0181965	700.0
2711	7.01221e+02	2.71100e+03	-0.0182295	700.0
2713	7.01216e+02	2.71300e+03	-0.0182686	700.0
2715	7.01216e+02	2.71500e+03	-0.0182977	700.0
2717	7.01224e+02	2.71700e+03	-0.0183176	700.0
2719	7.01217e+02	2.71900e+03	-0.0183265	700.0
2720	7.01219e+02	2.72000e+03	-0.0183278	700.0