File: Experiments/TUBS/tga_nonisotherm/tga_dynamic_n2_dyn20_piece_1mg_r1.txt
index	ts	t	weight	tr
[#]	[°C]	[s]	[mg]	[°C]
723	1.30061e+02	7.23000e+02	9.82431e-01	1.31000e+02
725	1.30730e+02	7.25000e+02	9.82424e-01	1.31667e+02
727	1.31391e+02	7.27000e+02	9.82431e-01	1.32333e+02
729	1.32054e+02	7.29000e+02	9.82455e-01	1.33000e+02
731	1.32731e+02	7.31000e+02	9.82478e-01	1.33667e+02
733	1.33387e+02	7.33000e+02	9.82506e-01	1.34333e+02
735	1.34048e+02	7.35000e+02	9.82515e-01	1.35000e+02
737	1.34705e+02	7.37000e+02	9.82478e-01	1.35667e+02
739	1.35391e+02	7.39000e+02	9.82423e-01	1.36333e+02
741	1.36048e+02	7.41000e+02	9.82356e-01	1.37000e+02
743	1.36700e+02	7.43000e+02	9.82341e-01	1.37667e+02
745	1.37390e+02	7.45000e+02	9.82376e-01	1.38333e+02
747	1.38045e+02	7.47000e+02	9.82398e-01	1.39000e+02
749	1.38717e+02	7.49000e+02	9.82419e-01	1.39667e+02
751	1.39379e+02	7.51000e+02	9.82418e-01	1.40333e+02
753	1.40042e+02	7.53000e+02	9.82391e-01	1.41000e+02
755	1.40708e+02	7.55000e+02	9.82372e-01	1.41667e+02
757	1.41374e+02	7.57000e+02	9.82353e-01	1.42333e+02
759	1.42035e+02	7.59000e+02	9.82339e-01	1.43000e+02
761	1.42705e+02	7.61000e+02	9.82331e-01	1.43667e+02
763	1.43367e+02	7.63000e+02	9.82325e-01	1.44333e+02
765	1.44044e+02	7.65000e+02	9.82337e-01	1.45000e+02
767	1.44692e+02	7.67000e+02	9.82363e-01	1.45667e+02
769	1.45374e+02	7.69000e+02	9.82406e-01	1.46333e+02
771	1.46035e+02	7.71000e+02	9.82425e-01	1.47000e+02
773	1.46708e+02	7.73000e+02	9.82423e-01	1.47667e+02
775	1.47373e+02	7.75000e+02	9.82414e-01	1.48333e+02
777	1.48039e+02	7.77000e+02	9.82378e-01	1.49000e+02
779	1.48696e+02	7.79000e+02	9.82339e-01	1.49667e+02
781	1.49377e+02	7.81000e+02	9.82292e-01	1.50333e+02
783	1.50043e+02	7.83000e+02	9.82254e-01	1.51000e+02
785	1.50714e+02	7.85000e+02	9.82233e-01	1.51667e+02
787	1.51384e+02	7.87000e+02	9.82230e-01	1.52333e+02
789	1.52048e+02	7.89000e+02	9.82253e-01	1.53000e+02
791	1.52722e+02	7.91000e+02	9.82259e-01	1.53667e+02
793	1.53375e+02	7.93000e+02	9.82244e-01	1.54333e+02
795	1.54049e+02	7.95000e+02	9.82203e-01	1.55000e+02
797	1.54726e+02	7.97000e+02	9.82121e-01	1.55667e+02
799	1.55390e+02	7.99000e+02	9.82057e-01	1.56333e+02
801	1.56064e+02	8.01000e+02	9.82004e-01	1.57000e+02
803	1.56736e+02	8.03000e+02	9.81967e-01	1.57667e+02
805	1.57407e+02	8.05000e+02	9.81966e-01	1.58333e+02
807	1.58079e+02	8.07000e+02	9.81969e-01	1.59000e+02
809	1.58753e+02	8.09000e+02	9.81995e-01	1.59667e+02
811	1.59421e+02	8.11000e+02	9.82020e-01	1.60333e+02
813	1.60084e+02	8.13000e+02	9.82074e-01	1.61000e+02
815	1.60768e+02	8.15000e+02	9.82140e-01	1.61667e+02
817	1.61446e+02	8.17000e+02	9.82214e-01	1.62333e+02
819	1.62106e+02	8.19000e+02	9.82259e-01	1.63000e+02
821	1.62775e+02	8.21000e+02	9.82267e-01	1.63667e+02
823	1.63447e+02	8.23000e+02	9.82267e-01	1.64333e+02
825	1.64132e+02	8.25000e+02	9.82240e-01	1.65000e+02
827	1.64791e+02	8.27000e+02	9.82229e-01	1.65667e+02
829	1.65465e+02	8.29000e+02	9.82226e-01	1.66333e+02
831	1.66143e+02	8.31000e+02	9.82228e-01	1.67000e+02
833	1.66814e+02	8.33000e+02	9.82241e-01	1.67667e+02
835	1.67492e+02	8.35000e+02	9.82248e-01	1.68333e+02
837	1.68161e+02	8.37000e+02	9.82244e-01	1.69000e+02
839	1.68839e+02	8.39000e+02	9.82233e-01	1.69667e+02
841	1.69505e+02	8.41000e+02	9.82211e-01	1.70333e+02
843	1.70180e+02	8.43000e+02	9.82196e-01	1.71000e+02
845	1.70862e+02	8.45000e+02	9.82180e-01	1.71667e+02
847	1.71531e+02	8.47000e+02	9.82160e-01	1.72333e+02
849	1.72205e+02	8.49000e+02	9.82126e-01	1.73000e+02
851	1.72870e+02	8.51000e+02	9.82088e-01	1.73667e+02
853	1.73545e+02	8.53000e+02	9.82042e-01	1.74333e+02
855	1.74224e+02	8.55000e+02	9.82006e-01	1.75000e+02
857	1.74906e+02	8.57000e+02	9.81979e-01	1.75667e+02
859	1.75569e+02	8.59000e+02	9.81956e-01	1.76333e+02
861	1.76247e+02	8.61000e+02	9.81942e-01	1.77000e+02
863	1.76932e+02	8.63000e+02	9.81918e-01	1.77667e+02
865	1.77625e+02	8.65000e+02	9.81874e-01	1.78333e+02
867	1.78304e+02	8.67000e+02	9.81813e-01	1.79000e+02
869	1.78978e+02	8.69000e+02	9.81721e-01	1.79667e+02
871	1.79655e+02	8.71000e+02	9.81641e-01	1.80333e+02
873	1.80337e+02	8.73000e+02	9.81578e-01	1.81000e+02
875	1.81026e+02	8.75000e+02	9.81535e-01	1.81667e+02
877	1.81686e+02	8.77000e+02	9.81514e-01	1.82333e+02
879	1.82361e+02	8.79000e+02	9.81472e-01	1.83000e+02
881	1.83046e+02	8.81000e+02	9.81411e-01	1.83667e+02
883	1.83715e+02	8.83000e+02	9.81342e-01	1.84333e+02
885	1.84394e+02	8.85000e+02	9.81244e-01	1.85000e+02
887	1.85075e+02	8.87000e+02	9.81142e-01	1.85667e+02
889	1.85739e+02	8.89000e+02	9.81018e-01	1.86333e+02
891	1.86422e+02	8.91000e+02	9.80899e-01	1.87000e+02
893	1.87101e+02	8.93000e+02	9.80767e-01	1.87667e+02
895	1.87779e+02	8.95000e+02	9.80622e-01	1.88333e+02
897	1.88451e+02	8.97000e+02	9.80446e-01	1.89000e+02
899	1.89119e+02	8.99000e+02	9.80274e-01	1.89667e+02
901	1.89798e+02	9.01000e+02	9.80105e-01	1.90333e+02
903	1.90484e+02	9.03000e+02	9.79961e-01	1.91000e+02
905	1.91154e+02	9.05000e+02	9.79820e-01	1.91667e+02
907	1.91829e+02	9.07000e+02	9.79641e-01	1.92333e+02
909	1.92509e+02	9.09000e+02	9.79415e-01	1.93000e+02
911	1.93183e+02	9.11000e+02	9.79194e-01	1.93667e+02
913	1.93853e+02	9.13000e+02	9.78977e-01	1.94333e+02
915	1.94528e+02	9.15000e+02	9.78790e-01	1.95000e+02
917	1.95198e+02	9.17000e+02	9.78634e-01	1.95667e+02
919	1.95880e+02	9.19000e+02	9.78453e-01	1.96333e+02
921	1.96554e+02	9.21000e+02	9.78239e-01	1.97000e+02
923	1.97231e+02	9.23000e+02	9.78002e-01	1.97667e+02
925	1.97897e+02	9.25000e+02	9.77720e-01	1.98333e+02
927	1.98576e+02	9.27000e+02	9.77457e-01	1.99000e+02
929	1.99254e+02	9.29000e+02	9.77198e-01	1.99667e+02
931	1.99926e+02	9.31000e+02	9.76946e-01	2.00333e+02
933	2.00607e+02	9.33000e+02	9.76685e-01	2.01000e+02
935	2.01287e+02	9.35000e+02	9.76412e-01	2.01667e+02
937	2.01950e+02	9.37000e+02	9.76127e-01	2.02333e+02
939	2.02626e+02	9.39000e+02	9.75853e-01	2.03000e+02
941	2.03310e+02	9.41000e+02	9.75593e-01	2.03667e+02
943	2.03994e+02	9.43000e+02	9.75332e-01	2.04333e+02
945	2.04658e+02	9.45000e+02	9.75068e-01	2.05000e+02
947	2.05328e+02	9.47000e+02	9.74797e-01	2.05667e+02
949	2.06010e+02	9.49000e+02	9.74514e-01	2.06333e+02
951	2.06680e+02	9.51000e+02	9.74236e-01	2.07000e+02
953	2.07354e+02	9.53000e+02	9.73959e-01	2.07667e+02
955	2.08036e+02	9.55000e+02	9.73677e-01	2.08333e+02
957	2.08710e+02	9.57000e+02	9.73404e-01	2.09000e+02
959	2.09392e+02	9.59000e+02	9.73140e-01	2.09667e+02
961	2.10075e+02	9.61000e+02	9.72900e-01	2.10333e+02
963	2.10747e+02	9.63000e+02	9.72669e-01	2.11000e+02
965	2.11411e+02	9.65000e+02	9.72472e-01	2.11667e+02
967	2.12092e+02	9.67000e+02	9.72279e-01	2.12333e+02
969	2.12756e+02	9.69000e+02	9.72078e-01	2.13000e+02
971	2.13435e+02	9.71000e+02	9.71844e-01	2.13667e+02
973	2.14123e+02	9.73000e+02	9.71560e-01	2.14333e+02
975	2.14805e+02	9.75000e+02	9.71274e-01	2.15000e+02
977	2.15478e+02	9.77000e+02	9.70977e-01	2.15667e+02
979	2.16141e+02	9.79000e+02	9.70698e-01	2.16333e+02
981	2.16828e+02	9.81000e+02	9.70433e-01	2.17000e+02
983	2.17500e+02	9.83000e+02	9.70160e-01	2.17667e+02
985	2.18170e+02	9.85000e+02	9.69879e-01	2.18333e+02
987	2.18843e+02	9.87000e+02	9.69600e-01	2.19000e+02
989	2.19527e+02	9.89000e+02	9.69319e-01	2.19667e+02
991	2.20190e+02	9.91000e+02	9.69058e-01	2.20333e+02
993	2.20872e+02	9.93000e+02	9.68828e-01	2.21000e+02
995	2.21540e+02	9.95000e+02	9.68602e-01	2.21667e+02
997	2.22227e+02	9.97000e+02	9.68385e-01	2.22333e+02
999	2.22891e+02	9.99000e+02	9.68148e-01	2.23000e+02
1001	2.23571e+02	1.00100e+03	9.67878e-01	2.23667e+02
1003	2.24255e+02	1.00300e+03	9.67599e-01	2.24333e+02
1005	2.24924e+02	1.00500e+03	9.67277e-01	2.25000e+02
1007	2.25600e+02	1.00700e+03	9.66947e-01	2.25667e+02
1009	2.26277e+02	1.00900e+03	9.66599e-01	2.26333e+02
1011	2.26941e+02	1.01100e+03	9.66279e-01	2.27000e+02
1013	2.27619e+02	1.01300e+03	9.66001e-01	2.27667e+02
1015	2.28296e+02	1.01500e+03	9.65740e-01	2.28333e+02
1017	2.28970e+02	1.01700e+03	9.65510e-01	2.29000e+02
1019	2.29645e+02	1.01900e+03	9.65264e-01	2.29667e+02
1021	2.30322e+02	1.02100e+03	9.65003e-01	2.30333e+02
1023	2.31001e+02	1.02300e+03	9.64729e-01	2.31000e+02
1025	2.31673e+02	1.02500e+03	9.64431e-01	2.31667e+02
1027	2.32353e+02	1.02700e+03	9.64140e-01	2.32333e+02
1029	2.33040e+02	1.02900e+03	9.63861e-01	2.33000e+02
1031	2.33701e+02	1.03100e+03	9.63599e-01	2.33667e+02
1033	2.34376e+02	1.03300e+03	9.63353e-01	2.34333e+02
1035	2.35049e+02	1.03500e+03	9.63098e-01	2.35000e+02
1037	2.35715e+02	1.03700e+03	9.62844e-01	2.35667e+02
1039	2.36397e+02	1.03900e+03	9.62589e-01	2.36333e+02
1041	2.37089e+02	1.04100e+03	9.62315e-01	2.37000e+02
1043	2.37749e+02	1.04300e+03	9.62015e-01	2.37667e+02
1045	2.38426e+02	1.04500e+03	9.61698e-01	2.38333e+02
1047	2.39102e+02	1.04700e+03	9.61413e-01	2.39000e+02
1049	2.39781e+02	1.04900e+03	9.61159e-01	2.39667e+02
1051	2.40447e+02	1.05100e+03	9.60895e-01	2.40333e+02
1053	2.41122e+02	1.05300e+03	9.60644e-01	2.41000e+02
1055	2.41799e+02	1.05500e+03	9.60380e-01	2.41667e+02
1057	2.42478e+02	1.05700e+03	9.60115e-01	2.42333e+02
1059	2.43148e+02	1.05900e+03	9.59848e-01	2.43000e+02
1061	2.43808e+02	1.06100e+03	9.59569e-01	2.43667e+02
1063	2.44486e+02	1.06300e+03	9.59278e-01	2.44333e+02
1065	2.45161e+02	1.06500e+03	9.58964e-01	2.45000e+02
1067	2.45832e+02	1.06700e+03	9.58668e-01	2.45667e+02
1069	2.46506e+02	1.06900e+03	9.58389e-01	2.46333e+02
1071	2.47180e+02	1.07100e+03	9.58121e-01	2.47000e+02
1073	2.47851e+02	1.07300e+03	9.57881e-01	2.47667e+02
1075	2.48531e+02	1.07500e+03	9.57631e-01	2.48333e+02
1077	2.49205e+02	1.07700e+03	9.57391e-01	2.49000e+02
1079	2.49882e+02	1.07900e+03	9.57155e-01	2.49667e+02
1081	2.50552e+02	1.08100e+03	9.56915e-01	2.50333e+02
1083	2.51216e+02	1.08300e+03	9.56656e-01	2.51000e+02
1085	2.51882e+02	1.08500e+03	9.56381e-01	2.51667e+02
1087	2.52566e+02	1.08700e+03	9.56103e-01	2.52333e+02
1089	2.53240e+02	1.08900e+03	9.55811e-01	2.53000e+02
1091	2.53909e+02	1.09100e+03	9.55526e-01	2.53667e+02
1093	2.54591e+02	1.09300e+03	9.55244e-01	2.54333e+02
1095	2.55253e+02	1.09500e+03	9.54980e-01	2.55000e+02
1097	2.55921e+02	1.09700e+03	9.54741e-01	2.55667e+02
1099	2.56603e+02	1.09900e+03	9.54502e-01	2.56333e+02
1101	2.57282e+02	1.10100e+03	9.54267e-01	2.57000e+02
1103	2.57947e+02	1.10300e+03	9.54024e-01	2.57667e+02
1105	2.58617e+02	1.10500e+03	9.53774e-01	2.58333e+02
1107	2.59297e+02	1.10700e+03	9.53517e-01	2.59000e+02
1109	2.59963e+02	1.10900e+03	9.53243e-01	2.59667e+02
1111	2.60644e+02	1.11100e+03	9.52972e-01	2.60333e+02
1113	2.61303e+02	1.11300e+03	9.52685e-01	2.61000e+02
1115	2.61988e+02	1.11500e+03	9.52399e-01	2.61667e+02
1117	2.62652e+02	1.11700e+03	9.52104e-01	2.62333e+02
1119	2.63330e+02	1.11900e+03	9.51806e-01	2.63000e+02
1121	2.63992e+02	1.12100e+03	9.51519e-01	2.63667e+02
1123	2.64669e+02	1.12300e+03	9.51257e-01	2.64333e+02
1125	2.65347e+02	1.12500e+03	9.51040e-01	2.65000e+02
1127	2.66002e+02	1.12700e+03	9.50827e-01	2.65667e+02
1129	2.66685e+02	1.12900e+03	9.50645e-01	2.66333e+02
1131	2.67346e+02	1.13100e+03	9.50469e-01	2.67000e+02
1133	2.68019e+02	1.13300e+03	9.50286e-01	2.67667e+02
1135	2.68689e+02	1.13500e+03	9.50074e-01	2.68333e+02
1137	2.69359e+02	1.13700e+03	9.49817e-01	2.69000e+02
1139	2.70036e+02	1.13900e+03	9.49551e-01	2.69667e+02
1141	2.70703e+02	1.14100e+03	9.49255e-01	2.70333e+02
1143	2.71381e+02	1.14300e+03	9.48980e-01	2.71000e+02
1145	2.72040e+02	1.14500e+03	9.48717e-01	2.71667e+02
1147	2.72706e+02	1.14700e+03	9.48462e-01	2.72333e+02
1149	2.73397e+02	1.14900e+03	9.48210e-01	2.73000e+02
1151	2.74063e+02	1.15100e+03	9.47956e-01	2.73667e+02
1153	2.74731e+02	1.15300e+03	9.47690e-01	2.74333e+02
1155	2.75412e+02	1.15500e+03	9.47423e-01	2.75000e+02
1157	2.76071e+02	1.15700e+03	9.47163e-01	2.75667e+02
1159	2.76741e+02	1.15900e+03	9.46914e-01	2.76333e+02
1161	2.77415e+02	1.16100e+03	9.46667e-01	2.77000e+02
1163	2.78085e+02	1.16300e+03	9.46396e-01	2.77667e+02
1165	2.78766e+02	1.16500e+03	9.46082e-01	2.78333e+02
1167	2.79428e+02	1.16700e+03	9.45766e-01	2.79000e+02
1169	2.80100e+02	1.16900e+03	9.45428e-01	2.79667e+02
1171	2.80764e+02	1.17100e+03	9.45108e-01	2.80333e+02
1173	2.81436e+02	1.17300e+03	9.44799e-01	2.81000e+02
1175	2.82110e+02	1.17500e+03	9.44488e-01	2.81667e+02
1177	2.82788e+02	1.17700e+03	9.44178e-01	2.82333e+02
1179	2.83445e+02	1.17900e+03	9.43858e-01	2.83000e+02
1181	2.84125e+02	1.18100e+03	9.43504e-01	2.83667e+02
1183	2.84785e+02	1.18300e+03	9.43138e-01	2.84333e+02
1185	2.85451e+02	1.18500e+03	9.42755e-01	2.85000e+02
1187	2.86132e+02	1.18700e+03	9.42389e-01	2.85667e+02
1189	2.86793e+02	1.18900e+03	9.42050e-01	2.86333e+02
1191	2.87463e+02	1.19100e+03	9.41703e-01	2.87000e+02
1193	2.88140e+02	1.19300e+03	9.41355e-01	2.87667e+02
1195	2.88808e+02	1.19500e+03	9.40997e-01	2.88333e+02
1197	2.89468e+02	1.19700e+03	9.40618e-01	2.89000e+02
1199	2.90146e+02	1.19900e+03	9.40232e-01	2.89667e+02
1201	2.90816e+02	1.20100e+03	9.39819e-01	2.90333e+02
1203	2.91493e+02	1.20300e+03	9.39397e-01	2.91000e+02
1205	2.92150e+02	1.20500e+03	9.38957e-01	2.91667e+02
1207	2.92833e+02	1.20700e+03	9.38518e-01	2.92333e+02
1209	2.93487e+02	1.20900e+03	9.38061e-01	2.93000e+02
1211	2.94165e+02	1.21100e+03	9.37598e-01	2.93667e+02
1213	2.94834e+02	1.21300e+03	9.37114e-01	2.94333e+02
1215	2.95508e+02	1.21500e+03	9.36630e-01	2.95000e+02
1217	2.96176e+02	1.21700e+03	9.36122e-01	2.95667e+02
1219	2.96855e+02	1.21900e+03	9.35597e-01	2.96333e+02
1221	2.97503e+02	1.22100e+03	9.35037e-01	2.97000e+02
1223	2.98180e+02	1.22300e+03	9.34484e-01	2.97667e+02
1225	2.98841e+02	1.22500e+03	9.33920e-01	2.98333e+02
1227	2.99507e+02	1.22700e+03	9.33357e-01	2.99000e+02
1229	3.00179e+02	1.22900e+03	9.32781e-01	2.99667e+02
1231	3.00856e+02	1.23100e+03	9.32192e-01	3.00333e+02
1233	3.01515e+02	1.23300e+03	9.31586e-01	3.01000e+02
1235	3.02176e+02	1.23500e+03	9.30988e-01	3.01667e+02
1237	3.02860e+02	1.23700e+03	9.30377e-01	3.02333e+02
1239	3.03524e+02	1.23900e+03	9.29740e-01	3.03000e+02
1241	3.04192e+02	1.24100e+03	9.29058e-01	3.03667e+02
1243	3.04858e+02	1.24300e+03	9.28364e-01	3.04333e+02
1245	3.05534e+02	1.24500e+03	9.27620e-01	3.05000e+02
1247	3.06194e+02	1.24700e+03	9.26862e-01	3.05667e+02
1249	3.06860e+02	1.24900e+03	9.26060e-01	3.06333e+02
1251	3.07532e+02	1.25100e+03	9.25265e-01	3.07000e+02
1253	3.08203e+02	1.25300e+03	9.24475e-01	3.07667e+02
1255	3.08867e+02	1.25500e+03	9.23714e-01	3.08333e+02
1257	3.09540e+02	1.25700e+03	9.22984e-01	3.09000e+02
1259	3.10210e+02	1.25900e+03	9.22248e-01	3.09667e+02
1261	3.10881e+02	1.26100e+03	9.21514e-01	3.10333e+02
1263	3.11552e+02	1.26300e+03	9.20767e-01	3.11000e+02
1265	3.12223e+02	1.26500e+03	9.19996e-01	3.11667e+02
1267	3.12879e+02	1.26700e+03	9.19218e-01	3.12333e+02
1269	3.13558e+02	1.26900e+03	9.18423e-01	3.13000e+02
1271	3.14220e+02	1.27100e+03	9.17639e-01	3.13667e+02
1273	3.14885e+02	1.27300e+03	9.16862e-01	3.14333e+02
1275	3.15556e+02	1.27500e+03	9.16081e-01	3.15000e+02
1277	3.16234e+02	1.27700e+03	9.15295e-01	3.15667e+02
1279	3.16882e+02	1.27900e+03	9.14502e-01	3.16333e+02
1281	3.17573e+02	1.28100e+03	9.13693e-01	3.17000e+02
1283	3.18229e+02	1.28300e+03	9.12881e-01	3.17667e+02
1285	3.18900e+02	1.28500e+03	9.12057e-01	3.18333e+02
1287	3.19560e+02	1.28700e+03	9.11228e-01	3.19000e+02
1289	3.20226e+02	1.28900e+03	9.10380e-01	3.19667e+02
1291	3.20902e+02	1.29100e+03	9.09528e-01	3.20333e+02
1293	3.21564e+02	1.29300e+03	9.08655e-01	3.21000e+02
1295	3.22234e+02	1.29500e+03	9.07785e-01	3.21667e+02
1297	3.22905e+02	1.29700e+03	9.06902e-01	3.22333e+02
1299	3.23564e+02	1.29900e+03	9.06013e-01	3.23000e+02
1301	3.24228e+02	1.30100e+03	9.05104e-01	3.23667e+02
1303	3.24893e+02	1.30300e+03	9.04174e-01	3.24333e+02
1305	3.25555e+02	1.30500e+03	9.03200e-01	3.25000e+02
1307	3.26228e+02	1.30700e+03	9.02220e-01	3.25667e+02
1309	3.26894e+02	1.30900e+03	9.01202e-01	3.26333e+02
1311	3.27565e+02	1.31100e+03	9.00179e-01	3.27000e+02
1313	3.28225e+02	1.31300e+03	8.99124e-01	3.27667e+02
1315	3.28893e+02	1.31500e+03	8.98047e-01	3.28333e+02
1317	3.29556e+02	1.31700e+03	8.96906e-01	3.29000e+02
1319	3.30228e+02	1.31900e+03	8.95733e-01	3.29667e+02
1321	3.30898e+02	1.32100e+03	8.94471e-01	3.30333e+02
1323	3.31558e+02	1.32300e+03	8.93185e-01	3.31000e+02
1325	3.32225e+02	1.32500e+03	8.91808e-01	3.31667e+02
1327	3.32891e+02	1.32700e+03	8.90417e-01	3.32333e+02
1329	3.33558e+02	1.32900e+03	8.88951e-01	3.33000e+02
1331	3.34217e+02	1.33100e+03	8.87462e-01	3.33667e+02
1333	3.34889e+02	1.33300e+03	8.85888e-01	3.34333e+02
1335	3.35554e+02	1.33500e+03	8.84281e-01	3.35000e+02
1337	3.36226e+02	1.33700e+03	8.82561e-01	3.35667e+02
1339	3.36887e+02	1.33900e+03	8.80815e-01	3.36333e+02
1341	3.37541e+02	1.34100e+03	8.78955e-01	3.37000e+02
1343	3.38216e+02	1.34300e+03	8.77070e-01	3.37667e+02
1345	3.38886e+02	1.34500e+03	8.75068e-01	3.38333e+02
1347	3.39542e+02	1.34700e+03	8.73030e-01	3.39000e+02
1349	3.40213e+02	1.34900e+03	8.70846e-01	3.39667e+02
1351	3.40872e+02	1.35100e+03	8.68617e-01	3.40333e+02
1353	3.41541e+02	1.35300e+03	8.66212e-01	3.41000e+02
1355	3.42203e+02	1.35500e+03	8.63761e-01	3.41667e+02
1357	3.42870e+02	1.35700e+03	8.61127e-01	3.42333e+02
1359	3.43535e+02	1.35900e+03	8.58455e-01	3.43000e+02
1361	3.44191e+02	1.36100e+03	8.55595e-01	3.43667e+02
1363	3.44862e+02	1.36300e+03	8.52675e-01	3.44333e+02
1365	3.45520e+02	1.36500e+03	8.49523e-01	3.45000e+02
1367	3.46191e+02	1.36700e+03	8.46289e-01	3.45667e+02
1369	3.46851e+02	1.36900e+03	8.42800e-01	3.46333e+02
1371	3.47516e+02	1.37100e+03	8.39278e-01	3.47000e+02
1373	3.48184e+02	1.37300e+03	8.35552e-01	3.47667e+02
1375	3.48845e+02	1.37500e+03	8.31795e-01	3.48333e+02
1377	3.49506e+02	1.37700e+03	8.27839e-01	3.49000e+02
1379	3.50165e+02	1.37900e+03	8.23806e-01	3.49667e+02
1381	3.50834e+02	1.38100e+03	8.19505e-01	3.50333e+02
1383	3.51504e+02	1.38300e+03	8.15108e-01	3.51000e+02
1385	3.52158e+02	1.38500e+03	8.10395e-01	3.51667e+02
1387	3.52820e+02	1.38700e+03	8.05614e-01	3.52333e+02
1389	3.53475e+02	1.38900e+03	8.00520e-01	3.53000e+02
1391	3.54144e+02	1.39100e+03	7.95346e-01	3.53667e+02
1393	3.54792e+02	1.39300e+03	7.89835e-01	3.54333e+02
1395	3.55468e+02	1.39500e+03	7.84229e-01	3.55000e+02
1397	3.56138e+02	1.39700e+03	7.78258e-01	3.55667e+02
1399	3.56806e+02	1.39900e+03	7.72202e-01	3.56333e+02
1401	3.57468e+02	1.40100e+03	7.65775e-01	3.57000e+02
1403	3.58124e+02	1.40300e+03	7.59263e-01	3.57667e+02
1405	3.58781e+02	1.40500e+03	7.52378e-01	3.58333e+02
1407	3.59439e+02	1.40700e+03	7.45384e-01	3.59000e+02
1409	3.60101e+02	1.40900e+03	7.37965e-01	3.59667e+02
1411	3.60758e+02	1.41100e+03	7.30451e-01	3.60333e+02
1413	3.61437e+02	1.41300e+03	7.22563e-01	3.61000e+02
1415	3.62096e+02	1.41500e+03	7.14619e-01	3.61667e+02
1417	3.62754e+02	1.41700e+03	7.06273e-01	3.62333e+02
1419	3.63412e+02	1.41900e+03	6.97700e-01	3.63000e+02
1421	3.64079e+02	1.42100e+03	6.88501e-01	3.63667e+02
1423	3.64732e+02	1.42300e+03	6.79145e-01	3.64333e+02
1425	3.65400e+02	1.42500e+03	6.69234e-01	3.65000e+02
1427	3.66058e+02	1.42700e+03	6.59321e-01	3.65667e+02
1429	3.66726e+02	1.42900e+03	6.49065e-01	3.66333e+02
1431	3.67375e+02	1.43100e+03	6.38808e-01	3.67000e+02
1433	3.68039e+02	1.43300e+03	6.28347e-01	3.67667e+02
1435	3.68694e+02	1.43500e+03	6.17795e-01	3.68333e+02
1437	3.69374e+02	1.43700e+03	6.06928e-01	3.69000e+02
1439	3.70031e+02	1.43900e+03	5.95946e-01	3.69667e+02
1441	3.70689e+02	1.44100e+03	5.84607e-01	3.70333e+02
1443	3.71341e+02	1.44300e+03	5.73245e-01	3.71000e+02
1445	3.72006e+02	1.44500e+03	5.61596e-01	3.71667e+02
1447	3.72667e+02	1.44700e+03	5.49867e-01	3.72333e+02
1449	3.73333e+02	1.44900e+03	5.37887e-01	3.73000e+02
1451	3.73989e+02	1.45100e+03	5.25948e-01	3.73667e+02
1453	3.74647e+02	1.45300e+03	5.13939e-01	3.74333e+02
1455	3.75312e+02	1.45500e+03	5.01941e-01	3.75000e+02
1457	3.75985e+02	1.45700e+03	4.89914e-01	3.75667e+02
1459	3.76649e+02	1.45900e+03	4.77876e-01	3.76333e+02
1461	3.77311e+02	1.46100e+03	4.65846e-01	3.77000e+02
1463	3.77987e+02	1.46300e+03	4.53887e-01	3.77667e+02
1465	3.78650e+02	1.46500e+03	4.42060e-01	3.78333e+02
1467	3.79298e+02	1.46700e+03	4.30204e-01	3.79000e+02
1469	3.79964e+02	1.46900e+03	4.18319e-01	3.79667e+02
1471	3.80638e+02	1.47100e+03	4.06390e-01	3.80333e+02
1473	3.81281e+02	1.47300e+03	3.94501e-01	3.81000e+02
1475	3.81957e+02	1.47500e+03	3.82788e-01	3.81667e+02
1477	3.82615e+02	1.47700e+03	3.71278e-01	3.82333e+02
1479	3.83283e+02	1.47900e+03	3.59662e-01	3.83000e+02
1481	3.83940e+02	1.48100e+03	3.47973e-01	3.83667e+02
1483	3.84602e+02	1.48300e+03	3.36249e-01	3.84333e+02
1485	3.85270e+02	1.48500e+03	3.24511e-01	3.85000e+02
1487	3.85935e+02	1.48700e+03	3.12901e-01	3.85667e+02
1489	3.86600e+02	1.48900e+03	3.01483e-01	3.86333e+02
1491	3.87263e+02	1.49100e+03	2.90125e-01	3.87000e+02
1493	3.87936e+02	1.49300e+03	2.79000e-01	3.87667e+02
1495	3.88599e+02	1.49500e+03	2.67932e-01	3.88333e+02
1497	3.89272e+02	1.49700e+03	2.57097e-01	3.89000e+02
1499	3.89931e+02	1.49900e+03	2.46310e-01	3.89667e+02
1501	3.90594e+02	1.50100e+03	2.35783e-01	3.90333e+02
1503	3.91271e+02	1.50300e+03	2.25372e-01	3.91000e+02
1505	3.91935e+02	1.50500e+03	2.15329e-01	3.91667e+02
1507	3.92612e+02	1.50700e+03	2.05417e-01	3.92333e+02
1509	3.93273e+02	1.50900e+03	1.95957e-01	3.93000e+02
1511	3.93937e+02	1.51100e+03	1.86635e-01	3.93667e+02
1513	3.94608e+02	1.51300e+03	1.77840e-01	3.94333e+02
1515	3.95278e+02	1.51500e+03	1.69180e-01	3.95000e+02
1517	3.95950e+02	1.51700e+03	1.61056e-01	3.95667e+02
1519	3.96622e+02	1.51900e+03	1.53042e-01	3.96333e+02
1521	3.97286e+02	1.52100e+03	1.45540e-01	3.97000e+02
1523	3.97955e+02	1.52300e+03	1.38156e-01	3.97667e+02
1525	3.98617e+02	1.52500e+03	1.31288e-01	3.98333e+02
1527	3.99294e+02	1.52700e+03	1.24544e-01	3.99000e+02
1529	3.99959e+02	1.52900e+03	1.18323e-01	3.99667e+02
1531	4.00620e+02	1.53100e+03	1.12228e-01	4.00333e+02
1533	4.01295e+02	1.53300e+03	1.06662e-01	4.01000e+02
1535	4.01966e+02	1.53500e+03	1.01208e-01	4.01667e+02
1537	4.02629e+02	1.53700e+03	9.62547e-02	4.02333e+02
1539	4.03296e+02	1.53900e+03	9.14057e-02	4.03000e+02
1541	4.03965e+02	1.54100e+03	8.70342e-02	4.03667e+02
1543	4.04639e+02	1.54300e+03	8.27666e-02	4.04333e+02
1545	4.05303e+02	1.54500e+03	7.89522e-02	4.05000e+02
1547	4.05985e+02	1.54700e+03	7.52535e-02	4.05667e+02
1549	4.06637e+02	1.54900e+03	7.20071e-02	4.06333e+02
1551	4.07302e+02	1.55100e+03	6.88156e-02	4.07000e+02
1553	4.07968e+02	1.55300e+03	6.59265e-02	4.07667e+02
1555	4.08642e+02	1.55500e+03	6.30466e-02	4.08333e+02
1557	4.09335e+02	1.55700e+03	6.05459e-02	4.09000e+02
1559	4.09949e+02	1.55900e+03	5.81101e-02	4.09667e+02
1561	4.10636e+02	1.56100e+03	5.55048e-02	4.10333e+02
1563	4.11291e+02	1.56300e+03	5.25928e-02	4.11000e+02
1565	4.11967e+02	1.56500e+03	4.97657e-02	4.11667e+02
1567	4.12625e+02	1.56700e+03	4.77046e-02	4.12333e+02
1569	4.13286e+02	1.56900e+03	4.65886e-02	4.13000e+02
1571	4.13955e+02	1.57100e+03	4.52930e-02	4.13667e+02
1573	4.14622e+02	1.57300e+03	4.41880e-02	4.14333e+02
1575	4.15279e+02	1.57500e+03	4.28908e-02	4.15000e+02
1577	4.15949e+02	1.57700e+03	4.15117e-02	4.15667e+02
1579	4.16613e+02	1.57900e+03	4.03196e-02	4.16333e+02
1581	4.17274e+02	1.58100e+03	3.93204e-02	4.17000e+02
1583	4.17951e+02	1.58300e+03	3.83237e-02	4.17667e+02
1585	4.18606e+02	1.58500e+03	3.75039e-02	4.18333e+02
1587	4.19297e+02	1.58700e+03	3.67340e-02	4.19000e+02
1589	4.19933e+02	1.58900e+03	3.60434e-02	4.19667e+02
1591	4.20600e+02	1.59100e+03	3.52385e-02	4.20333e+02
1593	4.21252e+02	1.59300e+03	3.43484e-02	4.21000e+02
1595	4.21924e+02	1.59500e+03	3.34907e-02	4.21667e+02
1597	4.22584e+02	1.59700e+03	3.26894e-02	4.22333e+02
1599	4.23256e+02	1.59900e+03	3.20127e-02	4.23000e+02
1601	4.23914e+02	1.60100e+03	3.15300e-02	4.23667e+02
1603	4.24581e+02	1.60300e+03	3.10214e-02	4.24333e+02
1605	4.25241e+02	1.60500e+03	3.05822e-02	4.25000e+02
1607	4.25910e+02	1.60700e+03	3.01342e-02	4.25667e+02
1609	4.26567e+02	1.60900e+03	2.97103e-02	4.26333e+02
1611	4.27231e+02	1.61100e+03	2.92996e-02	4.27000e+02
1613	4.27892e+02	1.61300e+03	2.89298e-02	4.27667e+02
1615	4.28561e+02	1.61500e+03	2.85766e-02	4.28333e+02
1617	4.29211e+02	1.61700e+03	2.82652e-02	4.29000e+02
1619	4.29880e+02	1.61900e+03	2.79569e-02	4.29667e+02
1621	4.30538e+02	1.62100e+03	2.77120e-02	4.30333e+02
1623	4.31244e+02	1.62300e+03	2.75151e-02	4.31000e+02
1625	4.31852e+02	1.62500e+03	2.72910e-02	4.31667e+02
1627	4.32532e+02	1.62700e+03	2.68904e-02	4.32333e+02
1629	4.33188e+02	1.62900e+03	2.63275e-02	4.33000e+02
1631	4.33848e+02	1.63100e+03	2.58687e-02	4.33667e+02
1633	4.34517e+02	1.63300e+03	2.55417e-02	4.34333e+02
1635	4.35173e+02	1.63500e+03	2.53490e-02	4.35000e+02
1637	4.35840e+02	1.63700e+03	2.53748e-02	4.35667e+02
1639	4.36500e+02	1.63900e+03	2.53078e-02	4.36333e+02
1641	4.37160e+02	1.64100e+03	2.52276e-02	4.37000e+02
1643	4.37810e+02	1.64300e+03	2.51354e-02	4.37667e+02
1645	4.38477e+02	1.64500e+03	2.50139e-02	4.38333e+02
1647	4.39130e+02	1.64700e+03	2.48938e-02	4.39000e+02
1649	4.39796e+02	1.64900e+03	2.47618e-02	4.39667e+02
1651	4.40447e+02	1.65100e+03	2.46368e-02	4.40333e+02
1653	4.41111e+02	1.65300e+03	2.45335e-02	4.41000e+02
1655	4.41772e+02	1.65500e+03	2.44667e-02	4.41667e+02
1657	4.42438e+02	1.65700e+03	2.44615e-02	4.42333e+02
1659	4.43095e+02	1.65900e+03	2.44549e-02	4.43000e+02
1661	4.43759e+02	1.66100e+03	2.44504e-02	4.43667e+02
1663	4.44414e+02	1.66300e+03	2.44016e-02	4.44333e+02
1665	4.45077e+02	1.66500e+03	2.43084e-02	4.45000e+02
1667	4.45735e+02	1.66700e+03	2.42412e-02	4.45667e+02
1669	4.46404e+02	1.66900e+03	2.41885e-02	4.46333e+02
1671	4.47068e+02	1.67100e+03	2.41525e-02	4.47000e+02
1673	4.47727e+02	1.67300e+03	2.41358e-02	4.47667e+02
1675	4.48376e+02	1.67500e+03	2.41033e-02	4.48333e+02
1677	4.49048e+02	1.67700e+03	2.40506e-02	4.49000e+02
1679	4.49704e+02	1.67900e+03	2.40028e-02	4.49667e+02
1681	4.50362e+02	1.68100e+03	2.39586e-02	4.50333e+02
1683	4.51016e+02	1.68300e+03	2.39334e-02	4.51000e+02
1685	4.51686e+02	1.68500e+03	2.39317e-02	4.51667e+02
1687	4.52346e+02	1.68700e+03	2.39200e-02	4.52333e+02
1689	4.53004e+02	1.68900e+03	2.39097e-02	4.53000e+02
1691	4.53660e+02	1.69100e+03	2.39067e-02	4.53667e+02
1693	4.54322e+02	1.69300e+03	2.39115e-02	4.54333e+02
1695	4.54977e+02	1.69500e+03	2.39146e-02	4.55000e+02
1697	4.55650e+02	1.69700e+03	2.39206e-02	4.55667e+02
1699	4.56300e+02	1.69900e+03	2.39254e-02	4.56333e+02
1701	4.56962e+02	1.70100e+03	2.39260e-02	4.57000e+02
1703	4.57628e+02	1.70300e+03	2.39238e-02	4.57667e+02
1705	4.58285e+02	1.70500e+03	2.39048e-02	4.58333e+02
1707	4.58945e+02	1.70700e+03	2.38648e-02	4.59000e+02
1709	4.59599e+02	1.70900e+03	2.37925e-02	4.59667e+02
1711	4.60264e+02	1.71100e+03	2.37369e-02	4.60333e+02
1713	4.60918e+02	1.71300e+03	2.36899e-02	4.61000e+02
1715	4.61583e+02	1.71500e+03	2.36478e-02	4.61667e+02
1717	4.62239e+02	1.71700e+03	2.36204e-02	4.62333e+02
1719	4.62909e+02	1.71900e+03	2.35912e-02	4.63000e+02
1721	4.63569e+02	1.72100e+03	2.35757e-02	4.63667e+02
1723	4.64226e+02	1.72300e+03	2.35761e-02	4.64333e+02
1725	4.64882e+02	1.72500e+03	2.35960e-02	4.65000e+02
1727	4.65553e+02	1.72700e+03	2.36034e-02	4.65667e+02
1729	4.66207e+02	1.72900e+03	2.36077e-02	4.66333e+02
1731	4.66870e+02	1.73100e+03	2.36195e-02	4.67000e+02
1733	4.67529e+02	1.73300e+03	2.36309e-02	4.67667e+02
1735	4.68186e+02	1.73500e+03	2.36328e-02	4.68333e+02
1737	4.68855e+02	1.73700e+03	2.36215e-02	4.69000e+02
1739	4.69508e+02	1.73900e+03	2.36075e-02	4.69667e+02
1741	4.70175e+02	1.74100e+03	2.35902e-02	4.70333e+02
1743	4.70828e+02	1.74300e+03	2.35871e-02	4.71000e+02
1745	4.71490e+02	1.74500e+03	2.36035e-02	4.71667e+02
1747	4.72147e+02	1.74700e+03	2.36180e-02	4.72333e+02
1749	4.72805e+02	1.74900e+03	2.36320e-02	4.73000e+02
1751	4.73465e+02	1.75100e+03	2.36345e-02	4.73667e+02
1753	4.74119e+02	1.75300e+03	2.36097e-02	4.74333e+02
1755	4.74775e+02	1.75500e+03	2.35712e-02	4.75000e+02
1757	4.75434e+02	1.75700e+03	2.35106e-02	4.75667e+02
1759	4.76104e+02	1.75900e+03	2.34576e-02	4.76333e+02
1761	4.76750e+02	1.76100e+03	2.34081e-02	4.77000e+02
1763	4.77417e+02	1.76300e+03	2.33723e-02	4.77667e+02
1765	4.78079e+02	1.76500e+03	2.33591e-02	4.78333e+02
1767	4.78750e+02	1.76700e+03	2.33527e-02	4.79000e+02
1769	4.79398e+02	1.76900e+03	2.33603e-02	4.79667e+02
1771	4.80051e+02	1.77100e+03	2.33445e-02	4.80333e+02
1773	4.80716e+02	1.77300e+03	2.32997e-02	4.81000e+02
1775	4.81383e+02	1.77500e+03	2.32719e-02	4.81667e+02
1777	4.82035e+02	1.77700e+03	2.32699e-02	4.82333e+02
1779	4.82703e+02	1.77900e+03	2.33036e-02	4.83000e+02
1781	4.83358e+02	1.78100e+03	2.33839e-02	4.83667e+02
1783	4.84019e+02	1.78300e+03	2.34281e-02	4.84333e+02
1785	4.84681e+02	1.78500e+03	2.34313e-02	4.85000e+02
1787	4.85346e+02	1.78700e+03	2.34168e-02	4.85667e+02
1789	4.85990e+02	1.78900e+03	2.33689e-02	4.86333e+02
1791	4.86659e+02	1.79100e+03	2.33278e-02	4.87000e+02
1793	4.87317e+02	1.79300e+03	2.33005e-02	4.87667e+02
1795	4.87975e+02	1.79500e+03	2.32938e-02	4.88333e+02
1797	4.88646e+02	1.79700e+03	2.33101e-02	4.89000e+02
1799	4.89297e+02	1.79900e+03	2.33258e-02	4.89667e+02
1801	4.89952e+02	1.80100e+03	2.33692e-02	4.90333e+02
1803	4.90620e+02	1.80300e+03	2.34511e-02	4.91000e+02
1805	4.91282e+02	1.80500e+03	2.36016e-02	4.91667e+02
1807	4.91929e+02	1.80700e+03	2.36971e-02	4.92333e+02
1809	4.92589e+02	1.80900e+03	2.36765e-02	4.93000e+02
1811	4.93249e+02	1.81100e+03	2.35598e-02	4.93667e+02
1813	4.93912e+02	1.81300e+03	2.33116e-02	4.94333e+02
1815	4.94569e+02	1.81500e+03	2.31824e-02	4.95000e+02
1817	4.95235e+02	1.81700e+03	2.31586e-02	4.95667e+02
1819	4.95892e+02	1.81900e+03	2.31611e-02	4.96333e+02
1821	4.96554e+02	1.82100e+03	2.32487e-02	4.97000e+02
1823	4.97218e+02	1.82300e+03	2.33002e-02	4.97667e+02
1825	4.97873e+02	1.82500e+03	2.33301e-02	4.98333e+02
1827	4.98533e+02	1.82700e+03	2.33376e-02	4.99000e+02
1829	4.99190e+02	1.82900e+03	2.33015e-02	4.99667e+02
1831	4.99836e+02	1.83100e+03	2.32732e-02	5.00333e+02
1833	5.00511e+02	1.83300e+03	2.32417e-02	5.01000e+02
1835	5.01160e+02	1.83500e+03	2.32223e-02	5.01667e+02
1837	5.01837e+02	1.83700e+03	2.32163e-02	5.02333e+02
1839	5.02498e+02	1.83900e+03	2.32135e-02	5.03000e+02
1841	5.03161e+02	1.84100e+03	2.32224e-02	5.03667e+02
1843	5.03815e+02	1.84300e+03	2.32306e-02	5.04333e+02
1845	5.04477e+02	1.84500e+03	2.32386e-02	5.05000e+02
1847	5.05135e+02	1.84700e+03	2.32372e-02	5.05667e+02
1849	5.05789e+02	1.84900e+03	2.32103e-02	5.06333e+02
1851	5.06463e+02	1.85100e+03	2.31727e-02	5.07000e+02
1853	5.07121e+02	1.85300e+03	2.31238e-02	5.07667e+02
1855	5.07780e+02	1.85500e+03	2.31023e-02	5.08333e+02
1857	5.08425e+02	1.85700e+03	2.31187e-02	5.09000e+02
1859	5.09104e+02	1.85900e+03	2.31342e-02	5.09667e+02
1861	5.09750e+02	1.86100e+03	2.31520e-02	5.10333e+02
1863	5.10421e+02	1.86300e+03	2.31437e-02	5.11000e+02
1865	5.11080e+02	1.86500e+03	2.31125e-02	5.11667e+02
1867	5.11743e+02	1.86700e+03	2.30903e-02	5.12333e+02
1869	5.12398e+02	1.86900e+03	2.30774e-02	5.13000e+02
1871	5.13061e+02	1.87100e+03	2.30732e-02	5.13667e+02
1873	5.13715e+02	1.87300e+03	2.30837e-02	5.14333e+02
1875	5.14381e+02	1.87500e+03	2.30884e-02	5.15000e+02
1877	5.15043e+02	1.87700e+03	2.30919e-02	5.15667e+02
1879	5.15710e+02	1.87900e+03	2.30886e-02	5.16333e+02
1881	5.16370e+02	1.88100e+03	2.30803e-02	5.17000e+02
1883	5.17019e+02	1.88300e+03	2.30751e-02	5.17667e+02
1885	5.17694e+02	1.88500e+03	2.30759e-02	5.18333e+02
1887	5.18358e+02	1.88700e+03	2.30874e-02	5.19000e+02
1889	5.19014e+02	1.88900e+03	2.31207e-02	5.19667e+02
1891	5.19680e+02	1.89100e+03	2.31536e-02	5.20333e+02
1893	5.20345e+02	1.89300e+03	2.31827e-02	5.21000e+02
1895	5.20999e+02	1.89500e+03	2.31796e-02	5.21667e+02
1897	5.21660e+02	1.89700e+03	2.31346e-02	5.22333e+02
1899	5.22315e+02	1.89900e+03	2.30929e-02	5.23000e+02
1901	5.22982e+02	1.90100e+03	2.30411e-02	5.23667e+02
1903	5.23637e+02	1.90300e+03	2.29969e-02	5.24333e+02
1905	5.24302e+02	1.90500e+03	2.29513e-02	5.25000e+02
1907	5.24965e+02	1.90700e+03	2.29041e-02	5.25667e+02
1909	5.25627e+02	1.90900e+03	2.28805e-02	5.26333e+02
1911	5.26285e+02	1.91100e+03	2.28931e-02	5.27000e+02
1913	5.26951e+02	1.91300e+03	2.29582e-02	5.27667e+02
1915	5.27611e+02	1.91500e+03	2.30055e-02	5.28333e+02
1917	5.28269e+02	1.91700e+03	2.30372e-02	5.29000e+02
1919	5.28938e+02	1.91900e+03	2.30495e-02	5.29667e+02
1921	5.29596e+02	1.92100e+03	2.30274e-02	5.30333e+02
1923	5.30266e+02	1.92300e+03	2.30165e-02	5.31000e+02
1925	5.30924e+02	1.92500e+03	2.30032e-02	5.31667e+02
1927	5.31592e+02	1.92700e+03	2.29880e-02	5.32333e+02
1929	5.32251e+02	1.92900e+03	2.29564e-02	5.33000e+02
1931	5.32908e+02	1.93100e+03	2.29212e-02	5.33667e+02
1933	5.33576e+02	1.93300e+03	2.28876e-02	5.34333e+02
1935	5.34233e+02	1.93500e+03	2.28766e-02	5.35000e+02
1937	5.34898e+02	1.93700e+03	2.28988e-02	5.35667e+02
1939	5.35564e+02	1.93900e+03	2.29219e-02	5.36333e+02
1941	5.36227e+02	1.94100e+03	2.29595e-02	5.37000e+02
1943	5.36889e+02	1.94300e+03	2.29940e-02	5.37667e+02
1945	5.37558e+02	1.94500e+03	2.30269e-02	5.38333e+02
1947	5.38214e+02	1.94700e+03	2.30541e-02	5.39000e+02
1949	5.38876e+02	1.94900e+03	2.30590e-02	5.39667e+02
1951	5.39539e+02	1.95100e+03	2.30411e-02	5.40333e+02
1953	5.40202e+02	1.95300e+03	2.29953e-02	5.41000e+02
1955	5.40867e+02	1.95500e+03	2.29661e-02	5.41667e+02
1957	5.41527e+02	1.95700e+03	2.29450e-02	5.42333e+02
1959	5.42194e+02	1.95900e+03	2.29371e-02	5.43000e+02
1961	5.42850e+02	1.96100e+03	2.29571e-02	5.43667e+02
1963	5.43509e+02	1.96300e+03	2.29770e-02	5.44333e+02
1965	5.44164e+02	1.96500e+03	2.30057e-02	5.45000e+02
1967	5.44833e+02	1.96700e+03	2.30276e-02	5.45667e+02
1969	5.45499e+02	1.96900e+03	2.30342e-02	5.46333e+02
1971	5.46154e+02	1.97100e+03	2.30195e-02	5.47000e+02
1973	5.46821e+02	1.97300e+03	2.29765e-02	5.47667e+02
1975	5.47491e+02	1.97500e+03	2.29397e-02	5.48333e+02
1977	5.48150e+02	1.97700e+03	2.29075e-02	5.49000e+02
1979	5.48815e+02	1.97900e+03	2.28935e-02	5.49667e+02
1981	5.49467e+02	1.98100e+03	2.29099e-02	5.50333e+02
1983	5.50141e+02	1.98300e+03	2.29236e-02	5.51000e+02
1985	5.50797e+02	1.98500e+03	2.29494e-02	5.51667e+02
1987	5.51476e+02	1.98700e+03	2.29749e-02	5.52333e+02
1989	5.52123e+02	1.98900e+03	2.29950e-02	5.53000e+02
1991	5.52800e+02	1.99100e+03	2.29946e-02	5.53667e+02
1993	5.53446e+02	1.99300e+03	2.29573e-02	5.54333e+02
1995	5.54113e+02	1.99500e+03	2.29196e-02	5.55000e+02
1997	5.54786e+02	1.99700e+03	2.28795e-02	5.55667e+02
1999	5.55445e+02	1.99900e+03	2.28618e-02	5.56333e+02
2001	5.56110e+02	2.00100e+03	2.28671e-02	5.57000e+02
2003	5.56768e+02	2.00300e+03	2.28592e-02	5.57667e+02
2005	5.57422e+02	2.00500e+03	2.28527e-02	5.58333e+02
2007	5.58088e+02	2.00700e+03	2.28555e-02	5.59000e+02
2009	5.58757e+02	2.00900e+03	2.28646e-02	5.59667e+02
2011	5.59417e+02	2.01100e+03	2.28716e-02	5.60333e+02
2013	5.60084e+02	2.01300e+03	2.28800e-02	5.61000e+02
2015	5.60733e+02	2.01500e+03	2.28913e-02	5.61667e+02
2017	5.61405e+02	2.01700e+03	2.29054e-02	5.62333e+02
2019	5.62070e+02	2.01900e+03	2.29200e-02	5.63000e+02
2021	5.62739e+02	2.02100e+03	2.29424e-02	5.63667e+02
2023	5.63397e+02	2.02300e+03	2.29661e-02	5.64333e+02
2025	5.64061e+02	2.02500e+03	2.29845e-02	5.65000e+02
2027	5.64721e+02	2.02700e+03	2.29886e-02	5.65667e+02
2029	5.65391e+02	2.02900e+03	2.29741e-02	5.66333e+02
2031	5.66051e+02	2.03100e+03	2.29657e-02	5.67000e+02
2033	5.66711e+02	2.03300e+03	2.29586e-02	5.67667e+02
2035	5.67371e+02	2.03500e+03	2.29555e-02	5.68333e+02
2037	5.68047e+02	2.03700e+03	2.29505e-02	5.69000e+02
2039	5.68709e+02	2.03900e+03	2.29285e-02	5.69667e+02
2041	5.69371e+02	2.04100e+03	2.28969e-02	5.70333e+02
2043	5.70039e+02	2.04300e+03	2.28777e-02	5.71000e+02
2045	5.70700e+02	2.04500e+03	2.28751e-02	5.71667e+02
2047	5.71365e+02	2.04700e+03	2.28800e-02	5.72333e+02
2049	5.72025e+02	2.04900e+03	2.28973e-02	5.73000e+02
2051	5.72695e+02	2.05100e+03	2.28943e-02	5.73667e+02
2053	5.73340e+02	2.05300e+03	2.28655e-02	5.74333e+02
2055	5.74007e+02	2.05500e+03	2.28260e-02	5.75000e+02
2057	5.74678e+02	2.05700e+03	2.27682e-02	5.75667e+02
2059	5.75346e+02	2.05900e+03	2.27338e-02	5.76333e+02
2061	5.76000e+02	2.06100e+03	2.27263e-02	5.77000e+02
2063	5.76664e+02	2.06300e+03	2.27297e-02	5.77667e+02
2065	5.77326e+02	2.06500e+03	2.27637e-02	5.78333e+02
2067	5.77993e+02	2.06700e+03	2.27906e-02	5.79000e+02
2069	5.78656e+02	2.06900e+03	2.28229e-02	5.79667e+02
2071	5.79326e+02	2.07100e+03	2.28422e-02	5.80333e+02
2073	5.79975e+02	2.07300e+03	2.28383e-02	5.81000e+02
2075	5.80645e+02	2.07500e+03	2.28296e-02	5.81667e+02
2077	5.81310e+02	2.07700e+03	2.28120e-02	5.82333e+02
2079	5.81964e+02	2.07900e+03	2.28028e-02	5.83000e+02
2081	5.82625e+02	2.08100e+03	2.27939e-02	5.83667e+02
2083	5.83303e+02	2.08300e+03	2.27735e-02	5.84333e+02
2085	5.83958e+02	2.08500e+03	2.27496e-02	5.85000e+02
2087	5.84628e+02	2.08700e+03	2.27455e-02	5.85667e+02
2089	5.85295e+02	2.08900e+03	2.27663e-02	5.86333e+02
2091	5.85952e+02	2.09100e+03	2.27900e-02	5.87000e+02
2093	5.86617e+02	2.09300e+03	2.28248e-02	5.87667e+02
2095	5.87274e+02	2.09500e+03	2.28506e-02	5.88333e+02
2097	5.87950e+02	2.09700e+03	2.28606e-02	5.89000e+02
2099	5.88615e+02	2.09900e+03	2.28605e-02	5.89667e+02
2101	5.89271e+02	2.10100e+03	2.28351e-02	5.90333e+02
2103	5.89944e+02	2.10300e+03	2.28040e-02	5.91000e+02
2105	5.90613e+02	2.10500e+03	2.27544e-02	5.91667e+02
2107	5.91274e+02	2.10700e+03	2.27207e-02	5.92333e+02
2109	5.91940e+02	2.10900e+03	2.27121e-02	5.93000e+02
2111	5.92605e+02	2.11100e+03	2.27100e-02	5.93667e+02
2113	5.93266e+02	2.11300e+03	2.27082e-02	5.94333e+02
2115	5.93927e+02	2.11500e+03	2.26757e-02	5.95000e+02
2117	5.94591e+02	2.11700e+03	2.26202e-02	5.95667e+02
2119	5.95255e+02	2.11900e+03	2.25979e-02	5.96333e+02
2121	5.95924e+02	2.12100e+03	2.26146e-02	5.97000e+02
2123	5.96588e+02	2.12300e+03	2.26452e-02	5.97667e+02
2125	5.97238e+02	2.12500e+03	2.26949e-02	5.98333e+02
2127	5.97910e+02	2.12700e+03	2.27084e-02	5.99000e+02
2129	5.98575e+02	2.12900e+03	2.26946e-02	5.99667e+02
2131	5.99235e+02	2.13100e+03	2.26989e-02	6.00333e+02
2133	5.99913e+02	2.13300e+03	2.27159e-02	6.01000e+02
2135	6.00567e+02	2.13500e+03	2.27492e-02	6.01667e+02
2137	6.01242e+02	2.13700e+03	2.27980e-02	6.02333e+02
2139	6.01900e+02	2.13900e+03	2.28258e-02	6.03000e+02
2141	6.02561e+02	2.14100e+03	2.28157e-02	6.03667e+02
2143	6.03233e+02	2.14300e+03	2.27946e-02	6.04333e+02
2145	6.03887e+02	2.14500e+03	2.27348e-02	6.05000e+02
2147	6.04561e+02	2.14700e+03	2.26861e-02	6.05667e+02
2149	6.05219e+02	2.14900e+03	2.26507e-02	6.06333e+02
2151	6.05889e+02	2.15100e+03	2.26340e-02	6.07000e+02
2153	6.06543e+02	2.15300e+03	2.26503e-02	6.07667e+02
2155	6.07218e+02	2.15500e+03	2.26639e-02	6.08333e+02
2157	6.07874e+02	2.15700e+03	2.26879e-02	6.09000e+02
2159	6.08540e+02	2.15900e+03	2.26962e-02	6.09667e+02
2161	6.09204e+02	2.16100e+03	2.27147e-02	6.10333e+02
2163	6.09869e+02	2.16300e+03	2.27464e-02	6.11000e+02
2165	6.10536e+02	2.16500e+03	2.27941e-02	6.11667e+02
2167	6.11204e+02	2.16700e+03	2.28283e-02	6.12333e+02
2169	6.11866e+02	2.16900e+03	2.28417e-02	6.13000e+02
2171	6.12525e+02	2.17100e+03	2.28410e-02	6.13667e+02
2173	6.13197e+02	2.17300e+03	2.28103e-02	6.14333e+02
2175	6.13862e+02	2.17500e+03	2.27882e-02	6.15000e+02
2177	6.14526e+02	2.17700e+03	2.27658e-02	6.15667e+02
2179	6.15188e+02	2.17900e+03	2.27516e-02	6.16333e+02
2181	6.15855e+02	2.18100e+03	2.27455e-02	6.17000e+02
2183	6.16507e+02	2.18300e+03	2.27269e-02	6.17667e+02
2185	6.17185e+02	2.18500e+03	2.26979e-02	6.18333e+02
2187	6.17849e+02	2.18700e+03	2.26707e-02	6.19000e+02
2189	6.18524e+02	2.18900e+03	2.26396e-02	6.19667e+02
2191	6.19176e+02	2.19100e+03	2.26262e-02	6.20333e+02
2193	6.19839e+02	2.19300e+03	2.26425e-02	6.21000e+02
2195	6.20510e+02	2.19500e+03	2.26689e-02	6.21667e+02
2197	6.21175e+02	2.19700e+03	2.27216e-02	6.22333e+02
2199	6.21842e+02	2.19900e+03	2.27655e-02	6.23000e+02
2201	6.22515e+02	2.20100e+03	2.28017e-02	6.23667e+02
2203	6.23170e+02	2.20300e+03	2.28168e-02	6.24333e+02
2205	6.23841e+02	2.20500e+03	2.27961e-02	6.25000e+02
2207	6.24514e+02	2.20700e+03	2.27712e-02	6.25667e+02
2209	6.25174e+02	2.20900e+03	2.27291e-02	6.26333e+02
2211	6.25842e+02	2.21100e+03	2.26964e-02	6.27000e+02
2213	6.26494e+02	2.21300e+03	2.26698e-02	6.27667e+02
2215	6.27165e+02	2.21500e+03	2.26407e-02	6.28333e+02
2217	6.27836e+02	2.21700e+03	2.26188e-02	6.29000e+02
2219	6.28507e+02	2.21900e+03	2.26075e-02	6.29667e+02
2221	6.29169e+02	2.22100e+03	2.26170e-02	6.30333e+02
2223	6.29837e+02	2.22300e+03	2.26277e-02	6.31000e+02
2225	6.30498e+02	2.22500e+03	2.26501e-02	6.31667e+02
2227	6.31172e+02	2.22700e+03	2.26752e-02	6.32333e+02
2229	6.31841e+02	2.22900e+03	2.27029e-02	6.33000e+02
2231	6.32495e+02	2.23100e+03	2.27276e-02	6.33667e+02
2233	6.33163e+02	2.23300e+03	2.27280e-02	6.34333e+02
2235	6.33830e+02	2.23500e+03	2.27163e-02	6.35000e+02
2237	6.34504e+02	2.23700e+03	2.26756e-02	6.35667e+02
2239	6.35163e+02	2.23900e+03	2.26507e-02	6.36333e+02
2241	6.35829e+02	2.24100e+03	2.26293e-02	6.37000e+02
2243	6.36492e+02	2.24300e+03	2.26082e-02	6.37667e+02
2245	6.37161e+02	2.24500e+03	2.25862e-02	6.38333e+02
2247	6.37827e+02	2.24700e+03	2.25649e-02	6.39000e+02
2249	6.38488e+02	2.24900e+03	2.25582e-02	6.39667e+02
2251	6.39155e+02	2.25100e+03	2.25648e-02	6.40333e+02
2253	6.39821e+02	2.25300e+03	2.25910e-02	6.41000e+02
2255	6.40483e+02	2.25500e+03	2.25981e-02	6.41667e+02
2257	6.41156e+02	2.25700e+03	2.25902e-02	6.42333e+02
2259	6.41819e+02	2.25900e+03	2.25763e-02	6.43000e+02
2261	6.42483e+02	2.26100e+03	2.25402e-02	6.43667e+02
2263	6.43147e+02	2.26300e+03	2.25060e-02	6.44333e+02
2265	6.43817e+02	2.26500e+03	2.24593e-02	6.45000e+02
2267	6.44476e+02	2.26700e+03	2.24229e-02	6.45667e+02
2269	6.45146e+02	2.26900e+03	2.24062e-02	6.46333e+02
2271	6.45818e+02	2.27100e+03	2.24131e-02	6.47000e+02
2273	6.46478e+02	2.27300e+03	2.24574e-02	6.47667e+02
2275	6.47152e+02	2.27500e+03	2.24855e-02	6.48333e+02
2277	6.47814e+02	2.27700e+03	2.24967e-02	6.49000e+02
2279	6.48489e+02	2.27900e+03	2.24935e-02	6.49667e+02
2281	6.49141e+02	2.28100e+03	2.24802e-02	6.50333e+02
2283	6.49810e+02	2.28300e+03	2.24905e-02	6.51000e+02
2285	6.50475e+02	2.28500e+03	2.25211e-02	6.51667e+02
2287	6.51137e+02	2.28700e+03	2.25385e-02	6.52333e+02
2289	6.51812e+02	2.28900e+03	2.25342e-02	6.53000e+02
2291	6.52478e+02	2.29100e+03	2.25356e-02	6.53667e+02
2293	6.53147e+02	2.29300e+03	2.25378e-02	6.54333e+02
2295	6.53813e+02	2.29500e+03	2.25595e-02	6.55000e+02
2297	6.54479e+02	2.29700e+03	2.26007e-02	6.55667e+02
2299	6.55141e+02	2.29900e+03	2.26230e-02	6.56333e+02
2301	6.55810e+02	2.30100e+03	2.26398e-02	6.57000e+02
2303	6.56466e+02	2.30300e+03	2.26524e-02	6.57667e+02
2305	6.57140e+02	2.30500e+03	2.26712e-02	6.58333e+02
2307	6.57801e+02	2.30700e+03	2.26978e-02	6.59000e+02
2309	6.58467e+02	2.30900e+03	2.27318e-02	6.59667e+02
2311	6.59136e+02	2.31100e+03	2.27566e-02	6.60333e+02
2313	6.59805e+02	2.31300e+03	2.27800e-02	6.61000e+02
2315	6.60469e+02	2.31500e+03	2.27970e-02	6.61667e+02
2317	6.61133e+02	2.31700e+03	2.27950e-02	6.62333e+02
2319	6.61796e+02	2.31900e+03	2.27727e-02	6.63000e+02
2321	6.62466e+02	2.32100e+03	2.27191e-02	6.63667e+02
2323	6.63132e+02	2.32300e+03	2.26823e-02	6.64333e+02
2325	6.63790e+02	2.32500e+03	2.26582e-02	6.65000e+02
2327	6.64456e+02	2.32700e+03	2.26488e-02	6.65667e+02
2329	6.65124e+02	2.32900e+03	2.26661e-02	6.66333e+02
2331	6.65784e+02	2.33100e+03	2.26581e-02	6.67000e+02
2333	6.66454e+02	2.33300e+03	2.26310e-02	6.67667e+02
2335	6.67120e+02	2.33500e+03	2.26063e-02	6.68333e+02
2337	6.67790e+02	2.33700e+03	2.25832e-02	6.69000e+02
2339	6.68444e+02	2.33900e+03	2.25895e-02	6.69667e+02
2341	6.69111e+02	2.34100e+03	2.26148e-02	6.70333e+02
2343	6.69788e+02	2.34300e+03	2.26179e-02	6.71000e+02
2345	6.70453e+02	2.34500e+03	2.26032e-02	6.71667e+02
2347	6.71117e+02	2.34700e+03	2.25893e-02	6.72333e+02
2349	6.71770e+02	2.34900e+03	2.25683e-02	6.73000e+02
2351	6.72446e+02	2.35100e+03	2.25482e-02	6.73667e+02
2353	6.73112e+02	2.35300e+03	2.25281e-02	6.74333e+02
2355	6.73782e+02	2.35500e+03	2.25147e-02	6.75000e+02
2357	6.74454e+02	2.35700e+03	2.25067e-02	6.75667e+02
2359	6.75115e+02	2.35900e+03	2.25024e-02	6.76333e+02
2361	6.75776e+02	2.36100e+03	2.25080e-02	6.77000e+02
2363	6.76443e+02	2.36300e+03	2.25109e-02	6.77667e+02
2365	6.77113e+02	2.36500e+03	2.25359e-02	6.78333e+02
2367	6.77779e+02	2.36700e+03	2.25699e-02	6.79000e+02
2369	6.78441e+02	2.36900e+03	2.26120e-02	6.79667e+02
2371	6.79104e+02	2.37100e+03	2.26173e-02	6.80333e+02
2373	6.79769e+02	2.37300e+03	2.25829e-02	6.81000e+02
2375	6.80431e+02	2.37500e+03	2.25624e-02	6.81667e+02
2377	6.81100e+02	2.37700e+03	2.25491e-02	6.82333e+02
2379	6.81776e+02	2.37900e+03	2.25520e-02	6.83000e+02
2381	6.82439e+02	2.38100e+03	2.25745e-02	6.83667e+02
2383	6.83109e+02	2.38300e+03	2.25633e-02	6.84333e+02
2385	6.83769e+02	2.38500e+03	2.25282e-02	6.85000e+02
2387	6.84440e+02	2.38700e+03	2.24986e-02	6.85667e+02
2389	6.85113e+02	2.38900e+03	2.24683e-02	6.86333e+02
2391	6.85774e+02	2.39100e+03	2.24608e-02	6.87000e+02
2393	6.86437e+02	2.39300e+03	2.24750e-02	6.87667e+02
2395	6.87113e+02	2.39500e+03	2.24904e-02	6.88333e+02
2397	6.87778e+02	2.39700e+03	2.25111e-02	6.89000e+02
2399	6.88438e+02	2.39900e+03	2.25134e-02	6.89667e+02
2401	6.89101e+02	2.40100e+03	2.25075e-02	6.90333e+02
2403	6.89778e+02	2.40300e+03	2.24969e-02	6.91000e+02
2405	6.90215e+02	2.40500e+03	2.24826e-02	6.91667e+02
2407	6.90567e+02	2.40700e+03	2.24831e-02	6.92333e+02
2409	6.91076e+02	2.40900e+03	2.25063e-02	6.93000e+02
2411	6.91565e+02	2.41100e+03	2.25381e-02	6.93667e+02
2413	6.92028e+02	2.41300e+03	2.25735e-02	6.94333e+02
2415	6.92446e+02	2.41500e+03	2.25771e-02	6.95000e+02
2417	6.92851e+02	2.41700e+03	2.25431e-02	6.95667e+02
2419	6.93236e+02	2.41900e+03	2.25169e-02	6.96333e+02
2421	6.93579e+02	2.42100e+03	2.24982e-02	6.97000e+02
2423	6.93924e+02	2.42300e+03	2.25037e-02	6.97667e+02
2425	6.94237e+02	2.42500e+03	2.25369e-02	6.98333e+02
2427	6.94530e+02	2.42700e+03	2.25514e-02	6.99000e+02
2429	6.94812e+02	2.42900e+03	2.25571e-02	6.99667e+02
2430	6.94945e+02	2.43000e+03	2.25588e-02	7.00000e+02