File: Experiments/TUBS/tga_nonisotherm/tga_dynamic_n2_dyn30_powder_1mg_ega.txt
index	ts	t	weight	tr
[#]	[°C]	[s]	[mg]	[°C]
683	1.29194e+02	6.83000e+02	1.28263e+00	1.31500e+02
685	1.30197e+02	6.85000e+02	1.28260e+00	1.32500e+02
687	1.31195e+02	6.87000e+02	1.28256e+00	1.33500e+02
689	1.32216e+02	6.89000e+02	1.28249e+00	1.34500e+02
691	1.33192e+02	6.91000e+02	1.28242e+00	1.35500e+02
693	1.34177e+02	6.93000e+02	1.28233e+00	1.36500e+02
695	1.35182e+02	6.95000e+02	1.28223e+00	1.37500e+02
697	1.36212e+02	6.97000e+02	1.28213e+00	1.38500e+02
699	1.37191e+02	6.99000e+02	1.28204e+00	1.39500e+02
701	1.38215e+02	7.01000e+02	1.28196e+00	1.40500e+02
703	1.39215e+02	7.03000e+02	1.28189e+00	1.41500e+02
705	1.40250e+02	7.05000e+02	1.28183e+00	1.42500e+02
707	1.41265e+02	7.07000e+02	1.28175e+00	1.43500e+02
709	1.42301e+02	7.09000e+02	1.28166e+00	1.44500e+02
711	1.43299e+02	7.11000e+02	1.28155e+00	1.45500e+02
713	1.44258e+02	7.13000e+02	1.28142e+00	1.46500e+02
715	1.45309e+02	7.15000e+02	1.28129e+00	1.47500e+02
717	1.46324e+02	7.17000e+02	1.28115e+00	1.48500e+02
719	1.47353e+02	7.19000e+02	1.28099e+00	1.49500e+02
721	1.48350e+02	7.21000e+02	1.28080e+00	1.50500e+02
723	1.49350e+02	7.23000e+02	1.28061e+00	1.51500e+02
725	1.50360e+02	7.25000e+02	1.28040e+00	1.52500e+02
727	1.51360e+02	7.27000e+02	1.28021e+00	1.53500e+02
729	1.52359e+02	7.29000e+02	1.28003e+00	1.54500e+02
731	1.53375e+02	7.31000e+02	1.27985e+00	1.55500e+02
733	1.54379e+02	7.33000e+02	1.27967e+00	1.56500e+02
735	1.55388e+02	7.35000e+02	1.27948e+00	1.57500e+02
737	1.56401e+02	7.37000e+02	1.27926e+00	1.58500e+02
739	1.57390e+02	7.39000e+02	1.27905e+00	1.59500e+02
741	1.58403e+02	7.41000e+02	1.27883e+00	1.60500e+02
743	1.59405e+02	7.43000e+02	1.27861e+00	1.61500e+02
745	1.60427e+02	7.45000e+02	1.27837e+00	1.62500e+02
747	1.61425e+02	7.47000e+02	1.27812e+00	1.63500e+02
749	1.62428e+02	7.49000e+02	1.27785e+00	1.64500e+02
751	1.63447e+02	7.51000e+02	1.27757e+00	1.65500e+02
753	1.64455e+02	7.53000e+02	1.27726e+00	1.66500e+02
755	1.65462e+02	7.55000e+02	1.27695e+00	1.67500e+02
757	1.66475e+02	7.57000e+02	1.27664e+00	1.68500e+02
759	1.67486e+02	7.59000e+02	1.27633e+00	1.69500e+02
761	1.68498e+02	7.61000e+02	1.27600e+00	1.70500e+02
763	1.69513e+02	7.63000e+02	1.27565e+00	1.71500e+02
765	1.70526e+02	7.65000e+02	1.27524e+00	1.72500e+02
767	1.71544e+02	7.67000e+02	1.27482e+00	1.73500e+02
769	1.72543e+02	7.69000e+02	1.27437e+00	1.74500e+02
771	1.73561e+02	7.71000e+02	1.27392e+00	1.75500e+02
773	1.74571e+02	7.73000e+02	1.27346e+00	1.76500e+02
775	1.75561e+02	7.75000e+02	1.27297e+00	1.77500e+02
777	1.76578e+02	7.77000e+02	1.27242e+00	1.78500e+02
779	1.77594e+02	7.79000e+02	1.27182e+00	1.79500e+02
781	1.78606e+02	7.81000e+02	1.27110e+00	1.80500e+02
783	1.79625e+02	7.83000e+02	1.27036e+00	1.81500e+02
785	1.80644e+02	7.85000e+02	1.26950e+00	1.82500e+02
787	1.81647e+02	7.87000e+02	1.26863e+00	1.83500e+02
789	1.82664e+02	7.89000e+02	1.26768e+00	1.84500e+02
791	1.83682e+02	7.91000e+02	1.26672e+00	1.85500e+02
793	1.84692e+02	7.93000e+02	1.26568e+00	1.86500e+02
795	1.85702e+02	7.95000e+02	1.26462e+00	1.87500e+02
797	1.86715e+02	7.97000e+02	1.26346e+00	1.88500e+02
799	1.87734e+02	7.99000e+02	1.26228e+00	1.89500e+02
801	1.88755e+02	8.01000e+02	1.26100e+00	1.90500e+02
803	1.89764e+02	8.03000e+02	1.25971e+00	1.91500e+02
805	1.90788e+02	8.05000e+02	1.25836e+00	1.92500e+02
807	1.91792e+02	8.07000e+02	1.25701e+00	1.93500e+02
809	1.92809e+02	8.09000e+02	1.25562e+00	1.94500e+02
811	1.93816e+02	8.11000e+02	1.25422e+00	1.95500e+02
813	1.94830e+02	8.13000e+02	1.25280e+00	1.96500e+02
815	1.95853e+02	8.15000e+02	1.25138e+00	1.97500e+02
817	1.96879e+02	8.17000e+02	1.24996e+00	1.98500e+02
819	1.97890e+02	8.19000e+02	1.24856e+00	1.99500e+02
821	1.98897e+02	8.21000e+02	1.24720e+00	2.00500e+02
823	1.99912e+02	8.23000e+02	1.24588e+00	2.01500e+02
825	2.00932e+02	8.25000e+02	1.24463e+00	2.02500e+02
827	2.01954e+02	8.27000e+02	1.24339e+00	2.03500e+02
829	2.02968e+02	8.29000e+02	1.24222e+00	2.04500e+02
831	2.03983e+02	8.31000e+02	1.24106e+00	2.05500e+02
833	2.04999e+02	8.33000e+02	1.23998e+00	2.06500e+02
835	2.06016e+02	8.35000e+02	1.23893e+00	2.07500e+02
837	2.07029e+02	8.37000e+02	1.23799e+00	2.08500e+02
839	2.08055e+02	8.39000e+02	1.23708e+00	2.09500e+02
841	2.09067e+02	8.41000e+02	1.23627e+00	2.10500e+02
843	2.10076e+02	8.43000e+02	1.23549e+00	2.11500e+02
845	2.11103e+02	8.45000e+02	1.23482e+00	2.12500e+02
847	2.12117e+02	8.47000e+02	1.23416e+00	2.13500e+02
849	2.13136e+02	8.49000e+02	1.23360e+00	2.14500e+02
851	2.14136e+02	8.51000e+02	1.23306e+00	2.15500e+02
853	2.15159e+02	8.53000e+02	1.23259e+00	2.16500e+02
855	2.16165e+02	8.55000e+02	1.23213e+00	2.17500e+02
857	2.17177e+02	8.57000e+02	1.23174e+00	2.18500e+02
859	2.18192e+02	8.59000e+02	1.23135e+00	2.19500e+02
861	2.19199e+02	8.61000e+02	1.23102e+00	2.20500e+02
863	2.20199e+02	8.63000e+02	1.23068e+00	2.21500e+02
865	2.21203e+02	8.65000e+02	1.23037e+00	2.22500e+02
867	2.22197e+02	8.67000e+02	1.23005e+00	2.23500e+02
869	2.23208e+02	8.69000e+02	1.22975e+00	2.24500e+02
871	2.24213e+02	8.71000e+02	1.22945e+00	2.25500e+02
873	2.25232e+02	8.73000e+02	1.22916e+00	2.26500e+02
875	2.26254e+02	8.75000e+02	1.22887e+00	2.27500e+02
877	2.27258e+02	8.77000e+02	1.22860e+00	2.28500e+02
879	2.28283e+02	8.79000e+02	1.22831e+00	2.29500e+02
881	2.29308e+02	8.81000e+02	1.22802e+00	2.30500e+02
883	2.30327e+02	8.83000e+02	1.22772e+00	2.31500e+02
885	2.31343e+02	8.85000e+02	1.22741e+00	2.32500e+02
887	2.32370e+02	8.87000e+02	1.22711e+00	2.33500e+02
889	2.33382e+02	8.89000e+02	1.22681e+00	2.34500e+02
891	2.34404e+02	8.91000e+02	1.22650e+00	2.35500e+02
893	2.35440e+02	8.93000e+02	1.22620e+00	2.36500e+02
895	2.36465e+02	8.95000e+02	1.22590e+00	2.37500e+02
897	2.37481e+02	8.97000e+02	1.22560e+00	2.38500e+02
899	2.38507e+02	8.99000e+02	1.22530e+00	2.39500e+02
901	2.39519e+02	9.01000e+02	1.22499e+00	2.40500e+02
903	2.40528e+02	9.03000e+02	1.22467e+00	2.41500e+02
905	2.41539e+02	9.05000e+02	1.22435e+00	2.42500e+02
907	2.42557e+02	9.07000e+02	1.22405e+00	2.43500e+02
909	2.43563e+02	9.09000e+02	1.22377e+00	2.44500e+02
911	2.44538e+02	9.11000e+02	1.22349e+00	2.45500e+02
913	2.45520e+02	9.13000e+02	1.22324e+00	2.46500e+02
915	2.46488e+02	9.15000e+02	1.22298e+00	2.47500e+02
917	2.47501e+02	9.17000e+02	1.22273e+00	2.48500e+02
919	2.48496e+02	9.19000e+02	1.22248e+00	2.49500e+02
921	2.49497e+02	9.21000e+02	1.22226e+00	2.50500e+02
923	2.50521e+02	9.23000e+02	1.22204e+00	2.51500e+02
925	2.51541e+02	9.25000e+02	1.22184e+00	2.52500e+02
927	2.52569e+02	9.27000e+02	1.22163e+00	2.53500e+02
929	2.53608e+02	9.29000e+02	1.22140e+00	2.54500e+02
931	2.54669e+02	9.31000e+02	1.22117e+00	2.55500e+02
933	2.55698e+02	9.33000e+02	1.22092e+00	2.56500e+02
935	2.56725e+02	9.35000e+02	1.22068e+00	2.57500e+02
937	2.57745e+02	9.37000e+02	1.22044e+00	2.58500e+02
939	2.58775e+02	9.39000e+02	1.22020e+00	2.59500e+02
941	2.59806e+02	9.41000e+02	1.21995e+00	2.60500e+02
943	2.60856e+02	9.43000e+02	1.21970e+00	2.61500e+02
945	2.61933e+02	9.45000e+02	1.21944e+00	2.62500e+02
947	2.62995e+02	9.47000e+02	1.21920e+00	2.63500e+02
949	2.64022e+02	9.49000e+02	1.21899e+00	2.64500e+02
951	2.65082e+02	9.51000e+02	1.21878e+00	2.65500e+02
953	2.66134e+02	9.53000e+02	1.21860e+00	2.66500e+02
955	2.67165e+02	9.55000e+02	1.21841e+00	2.67500e+02
957	2.68191e+02	9.57000e+02	1.21819e+00	2.68500e+02
959	2.69220e+02	9.59000e+02	1.21796e+00	2.69500e+02
961	2.70248e+02	9.61000e+02	1.21769e+00	2.70500e+02
963	2.71269e+02	9.63000e+02	1.21742e+00	2.71500e+02
965	2.72311e+02	9.65000e+02	1.21712e+00	2.72500e+02
967	2.73347e+02	9.67000e+02	1.21681e+00	2.73500e+02
969	2.74384e+02	9.69000e+02	1.21647e+00	2.74500e+02
971	2.75367e+02	9.71000e+02	1.21612e+00	2.75500e+02
973	2.76374e+02	9.73000e+02	1.21575e+00	2.76500e+02
975	2.77376e+02	9.75000e+02	1.21540e+00	2.77500e+02
977	2.78432e+02	9.77000e+02	1.21506e+00	2.78500e+02
979	2.79501e+02	9.79000e+02	1.21472e+00	2.79500e+02
981	2.80553e+02	9.81000e+02	1.21439e+00	2.80500e+02
983	2.81603e+02	9.83000e+02	1.21406e+00	2.81500e+02
985	2.82650e+02	9.85000e+02	1.21372e+00	2.82500e+02
987	2.83709e+02	9.87000e+02	1.21336e+00	2.83500e+02
989	2.84762e+02	9.89000e+02	1.21295e+00	2.84500e+02
991	2.85810e+02	9.91000e+02	1.21252e+00	2.85500e+02
993	2.86837e+02	9.93000e+02	1.21204e+00	2.86500e+02
995	2.87909e+02	9.95000e+02	1.21155e+00	2.87500e+02
997	2.88928e+02	9.97000e+02	1.21100e+00	2.88500e+02
999	2.89901e+02	9.99000e+02	1.21045e+00	2.89500e+02
1001	2.90893e+02	1.00100e+03	1.20986e+00	2.90500e+02
1003	2.91935e+02	1.00300e+03	1.20924e+00	2.91500e+02
1005	2.92996e+02	1.00500e+03	1.20857e+00	2.92500e+02
1007	2.93979e+02	1.00700e+03	1.20786e+00	2.93500e+02
1009	2.94959e+02	1.00900e+03	1.20705e+00	2.94500e+02
1011	2.95994e+02	1.01100e+03	1.20622e+00	2.95500e+02
1013	2.97010e+02	1.01300e+03	1.20528e+00	2.96500e+02
1015	2.97995e+02	1.01500e+03	1.20432e+00	2.97500e+02
1017	2.99003e+02	1.01700e+03	1.20327e+00	2.98500e+02
1019	3.00044e+02	1.01900e+03	1.20220e+00	2.99500e+02
1021	3.01062e+02	1.02100e+03	1.20103e+00	3.00500e+02
1023	3.02152e+02	1.02300e+03	1.19985e+00	3.01500e+02
1025	3.03220e+02	1.02500e+03	1.19861e+00	3.02500e+02
1027	3.04171e+02	1.02700e+03	1.19733e+00	3.03500e+02
1029	3.05194e+02	1.02900e+03	1.19595e+00	3.04500e+02
1031	3.06212e+02	1.03100e+03	1.19453e+00	3.05500e+02
1033	3.07204e+02	1.03300e+03	1.19299e+00	3.06500e+02
1035	3.08222e+02	1.03500e+03	1.19146e+00	3.07500e+02
1037	3.09252e+02	1.03700e+03	1.18986e+00	3.08500e+02
1039	3.10264e+02	1.03900e+03	1.18824e+00	3.09500e+02
1041	3.11355e+02	1.04100e+03	1.18656e+00	3.10500e+02
1043	3.12448e+02	1.04300e+03	1.18486e+00	3.11500e+02
1045	3.13500e+02	1.04500e+03	1.18310e+00	3.12500e+02
1047	3.14519e+02	1.04700e+03	1.18132e+00	3.13500e+02
1049	3.15499e+02	1.04900e+03	1.17950e+00	3.14500e+02
1051	3.16515e+02	1.05100e+03	1.17768e+00	3.15500e+02
1053	3.17553e+02	1.05300e+03	1.17582e+00	3.16500e+02
1055	3.18554e+02	1.05500e+03	1.17395e+00	3.17500e+02
1057	3.19562e+02	1.05700e+03	1.17208e+00	3.18500e+02
1059	3.20570e+02	1.05900e+03	1.17021e+00	3.19500e+02
1061	3.21592e+02	1.06100e+03	1.16834e+00	3.20500e+02
1063	3.22668e+02	1.06300e+03	1.16645e+00	3.21500e+02
1065	3.23685e+02	1.06500e+03	1.16453e+00	3.22500e+02
1067	3.24775e+02	1.06700e+03	1.16257e+00	3.23500e+02
1069	3.25804e+02	1.06900e+03	1.16055e+00	3.24500e+02
1071	3.26827e+02	1.07100e+03	1.15854e+00	3.25500e+02
1073	3.27844e+02	1.07300e+03	1.15649e+00	3.26500e+02
1075	3.28881e+02	1.07500e+03	1.15445e+00	3.27500e+02
1077	3.29917e+02	1.07700e+03	1.15237e+00	3.28500e+02
1079	3.30891e+02	1.07900e+03	1.15023e+00	3.29500e+02
1081	3.31847e+02	1.08100e+03	1.14797e+00	3.30500e+02
1083	3.32827e+02	1.08300e+03	1.14566e+00	3.31500e+02
1085	3.33845e+02	1.08500e+03	1.14319e+00	3.32500e+02
1087	3.34861e+02	1.08700e+03	1.14065e+00	3.33500e+02
1089	3.35884e+02	1.08900e+03	1.13788e+00	3.34500e+02
1091	3.36893e+02	1.09100e+03	1.13505e+00	3.35500e+02
1093	3.37907e+02	1.09300e+03	1.13194e+00	3.36500e+02
1095	3.38936e+02	1.09500e+03	1.12874e+00	3.37500e+02
1097	3.39909e+02	1.09700e+03	1.12518e+00	3.38500e+02
1099	3.40912e+02	1.09900e+03	1.12152e+00	3.39500e+02
1101	3.41900e+02	1.10100e+03	1.11747e+00	3.40500e+02
1103	3.42985e+02	1.10300e+03	1.11332e+00	3.41500e+02
1105	3.43987e+02	1.10500e+03	1.10878e+00	3.42500e+02
1107	3.44985e+02	1.10700e+03	1.10410e+00	3.43500e+02
1109	3.45999e+02	1.10900e+03	1.09893e+00	3.44500e+02
1111	3.47012e+02	1.11100e+03	1.09361e+00	3.45500e+02
1113	3.48023e+02	1.11300e+03	1.08773e+00	3.46500e+02
1115	3.49028e+02	1.11500e+03	1.08171e+00	3.47500e+02
1117	3.50050e+02	1.11700e+03	1.07511e+00	3.48500e+02
1119	3.51034e+02	1.11900e+03	1.06836e+00	3.49500e+02
1121	3.52033e+02	1.12100e+03	1.06099e+00	3.50500e+02
1123	3.53042e+02	1.12300e+03	1.05345e+00	3.51500e+02
1125	3.54038e+02	1.12500e+03	1.04523e+00	3.52500e+02
1127	3.55044e+02	1.12700e+03	1.03681e+00	3.53500e+02
1129	3.56030e+02	1.12900e+03	1.02765e+00	3.54500e+02
1131	3.57040e+02	1.13100e+03	1.01831e+00	3.55500e+02
1133	3.58010e+02	1.13300e+03	1.00822e+00	3.56500e+02
1135	3.58984e+02	1.13500e+03	9.97954e-01	3.57500e+02
1137	3.59933e+02	1.13700e+03	9.86912e-01	3.58500e+02
1139	3.60823e+02	1.13900e+03	9.75673e-01	3.59500e+02
1141	3.61801e+02	1.14100e+03	9.63646e-01	3.60500e+02
1143	3.62769e+02	1.14300e+03	9.51457e-01	3.61500e+02
1145	3.63770e+02	1.14500e+03	9.38500e-01	3.62500e+02
1147	3.64764e+02	1.14700e+03	9.25358e-01	3.63500e+02
1149	3.65745e+02	1.14900e+03	9.11462e-01	3.64500e+02
1151	3.66729e+02	1.15100e+03	8.97423e-01	3.65500e+02
1153	3.67720e+02	1.15300e+03	8.82699e-01	3.66500e+02
1155	3.68716e+02	1.15500e+03	8.67828e-01	3.67500e+02
1157	3.69693e+02	1.15700e+03	8.52306e-01	3.68500e+02
1159	3.70673e+02	1.15900e+03	8.36629e-01	3.69500e+02
1161	3.71647e+02	1.16100e+03	8.20318e-01	3.70500e+02
1163	3.72640e+02	1.16300e+03	8.03872e-01	3.71500e+02
1165	3.73664e+02	1.16500e+03	7.86818e-01	3.72500e+02
1167	3.74644e+02	1.16700e+03	7.69606e-01	3.73500e+02
1169	3.75585e+02	1.16900e+03	7.51768e-01	3.74500e+02
1171	3.76547e+02	1.17100e+03	7.33806e-01	3.75500e+02
1173	3.77492e+02	1.17300e+03	7.15279e-01	3.76500e+02
1175	3.78430e+02	1.17500e+03	6.96691e-01	3.77500e+02
1177	3.79378e+02	1.17700e+03	6.77677e-01	3.78500e+02
1179	3.80354e+02	1.17900e+03	6.58619e-01	3.79500e+02
1181	3.81325e+02	1.18100e+03	6.39207e-01	3.80500e+02
1183	3.82217e+02	1.18300e+03	6.19691e-01	3.81500e+02
1185	3.83089e+02	1.18500e+03	5.99790e-01	3.82500e+02
1187	3.84013e+02	1.18700e+03	5.79827e-01	3.83500e+02
1189	3.84816e+02	1.18900e+03	5.59593e-01	3.84500e+02
1191	3.85496e+02	1.19100e+03	5.39437e-01	3.85500e+02
1193	3.86189e+02	1.19300e+03	5.19317e-01	3.86500e+02
1195	3.86875e+02	1.19500e+03	4.99335e-01	3.87500e+02
1197	3.87478e+02	1.19700e+03	4.79617e-01	3.88500e+02
1199	3.88310e+02	1.19900e+03	4.59994e-01	3.89500e+02
1201	3.89209e+02	1.20100e+03	4.40706e-01	3.90500e+02
1203	3.90113e+02	1.20300e+03	4.21532e-01	3.91500e+02
1205	3.91003e+02	1.20500e+03	4.02779e-01	3.92500e+02
1207	3.91963e+02	1.20700e+03	3.84189e-01	3.93500e+02
1209	3.92934e+02	1.20900e+03	3.66188e-01	3.94500e+02
1211	3.93901e+02	1.21100e+03	3.48399e-01	3.95500e+02
1213	3.94890e+02	1.21300e+03	3.31328e-01	3.96500e+02
1215	3.95881e+02	1.21500e+03	3.14452e-01	3.97500e+02
1217	3.96870e+02	1.21700e+03	2.98399e-01	3.98500e+02
1219	3.97850e+02	1.21900e+03	2.82613e-01	3.99500e+02
1221	3.98830e+02	1.22100e+03	2.67761e-01	4.00500e+02
1223	3.99821e+02	1.22300e+03	2.53125e-01	4.01500e+02
1225	4.00802e+02	1.22500e+03	2.39424e-01	4.02500e+02
1227	4.01794e+02	1.22700e+03	2.25947e-01	4.03500e+02
1229	4.02778e+02	1.22900e+03	2.13429e-01	4.04500e+02
1231	4.03764e+02	1.23100e+03	2.01170e-01	4.05500e+02
1233	4.04760e+02	1.23300e+03	1.89915e-01	4.06500e+02
1235	4.05736e+02	1.23500e+03	1.78889e-01	4.07500e+02
1237	4.06734e+02	1.23700e+03	1.68844e-01	4.08500e+02
1239	4.07723e+02	1.23900e+03	1.59010e-01	4.09500e+02
1241	4.08719e+02	1.24100e+03	1.50113e-01	4.10500e+02
1243	4.09702e+02	1.24300e+03	1.41417e-01	4.11500e+02
1245	4.10695e+02	1.24500e+03	1.33606e-01	4.12500e+02
1247	4.11685e+02	1.24700e+03	1.25979e-01	4.13500e+02
1249	4.12677e+02	1.24900e+03	1.19187e-01	4.14500e+02
1251	4.13653e+02	1.25100e+03	1.12572e-01	4.15500e+02
1253	4.14638e+02	1.25300e+03	1.06760e-01	4.16500e+02
1255	4.15634e+02	1.25500e+03	1.01115e-01	4.17500e+02
1257	4.16625e+02	1.25700e+03	9.62033e-02	4.18500e+02
1259	4.17610e+02	1.25900e+03	9.14200e-02	4.19500e+02
1261	4.18589e+02	1.26100e+03	8.73088e-02	4.20500e+02
1263	4.19580e+02	1.26300e+03	8.33475e-02	4.21500e+02
1265	4.20569e+02	1.26500e+03	8.00050e-02	4.22500e+02
1267	4.21555e+02	1.26700e+03	7.67514e-02	4.23500e+02
1269	4.22559e+02	1.26900e+03	7.40020e-02	4.24500e+02
1271	4.23552e+02	1.27100e+03	7.13221e-02	4.25500e+02
1273	4.24556e+02	1.27300e+03	6.90513e-02	4.26500e+02
1275	4.25569e+02	1.27500e+03	6.68539e-02	4.27500e+02
1277	4.26562e+02	1.27700e+03	6.50216e-02	4.28500e+02
1279	4.27565e+02	1.27900e+03	6.32589e-02	4.29500e+02
1281	4.28558e+02	1.28100e+03	6.18188e-02	4.30500e+02
1283	4.29564e+02	1.28300e+03	6.04331e-02	4.31500e+02
1285	4.30551e+02	1.28500e+03	5.93218e-02	4.32500e+02
1287	4.31550e+02	1.28700e+03	5.82476e-02	4.33500e+02
1289	4.32532e+02	1.28900e+03	5.73748e-02	4.34500e+02
1291	4.33535e+02	1.29100e+03	5.65051e-02	4.35500e+02
1293	4.34542e+02	1.29300e+03	5.57538e-02	4.36500e+02
1295	4.35527e+02	1.29500e+03	5.50108e-02	4.37500e+02
1297	4.36510e+02	1.29700e+03	5.43677e-02	4.38500e+02
1299	4.37508e+02	1.29900e+03	5.37681e-02	4.39500e+02
1301	4.38507e+02	1.30100e+03	5.33068e-02	4.40500e+02
1303	4.39496e+02	1.30300e+03	5.28860e-02	4.41500e+02
1305	4.40494e+02	1.30500e+03	5.26012e-02	4.42500e+02
1307	4.41486e+02	1.30700e+03	5.23083e-02	4.43500e+02
1309	4.42473e+02	1.30900e+03	5.20766e-02	4.44500e+02
1311	4.43464e+02	1.31100e+03	5.18476e-02	4.45500e+02
1313	4.44456e+02	1.31300e+03	5.16543e-02	4.46500e+02
1315	4.45452e+02	1.31500e+03	5.14501e-02	4.47500e+02
1317	4.46445e+02	1.31700e+03	5.12452e-02	4.48500e+02
1319	4.47434e+02	1.31900e+03	5.10394e-02	4.49500e+02
1321	4.48435e+02	1.32100e+03	5.08629e-02	4.50500e+02
1323	4.49425e+02	1.32300e+03	5.07281e-02	4.51500e+02
1325	4.50409e+02	1.32500e+03	5.06688e-02	4.52500e+02
1327	4.51415e+02	1.32700e+03	5.06151e-02	4.53500e+02
1329	4.52398e+02	1.32900e+03	5.06211e-02	4.54500e+02
1331	4.53393e+02	1.33100e+03	5.06268e-02	4.55500e+02
1333	4.54379e+02	1.33300e+03	5.06386e-02	4.56500e+02
1335	4.55372e+02	1.33500e+03	5.06160e-02	4.57500e+02
1337	4.56364e+02	1.33700e+03	5.05494e-02	4.58500e+02
1339	4.57354e+02	1.33900e+03	5.04868e-02	4.59500e+02
1341	4.58345e+02	1.34100e+03	5.04126e-02	4.60500e+02
1343	4.59333e+02	1.34300e+03	5.03576e-02	4.61500e+02
1345	4.60319e+02	1.34500e+03	5.03160e-02	4.62500e+02
1347	4.61315e+02	1.34700e+03	5.02636e-02	4.63500e+02
1349	4.62302e+02	1.34900e+03	5.01958e-02	4.64500e+02
1351	4.63288e+02	1.35100e+03	5.01241e-02	4.65500e+02
1353	4.64277e+02	1.35300e+03	5.00619e-02	4.66500e+02
1355	4.65274e+02	1.35500e+03	5.00474e-02	4.67500e+02
1357	4.66274e+02	1.35700e+03	5.01026e-02	4.68500e+02
1359	4.67267e+02	1.35900e+03	5.01436e-02	4.69500e+02
1361	4.68259e+02	1.36100e+03	5.01820e-02	4.70500e+02
1363	4.69261e+02	1.36300e+03	5.01793e-02	4.71500e+02
1365	4.70256e+02	1.36500e+03	5.01301e-02	4.72500e+02
1367	4.71251e+02	1.36700e+03	5.00990e-02	4.73500e+02
1369	4.72243e+02	1.36900e+03	5.00747e-02	4.74500e+02
1371	4.73244e+02	1.37100e+03	5.00648e-02	4.75500e+02
1373	4.74252e+02	1.37300e+03	5.00884e-02	4.76500e+02
1375	4.75278e+02	1.37500e+03	5.01228e-02	4.77500e+02
1377	4.76314e+02	1.37700e+03	5.01736e-02	4.78500e+02
1379	4.77314e+02	1.37900e+03	5.02046e-02	4.79500e+02
1381	4.78366e+02	1.38100e+03	5.02017e-02	4.80500e+02
1383	4.79428e+02	1.38300e+03	5.01723e-02	4.81500e+02
1385	4.80552e+02	1.38500e+03	5.00997e-02	4.82500e+02
1387	4.82608e+02	1.38700e+03	5.00532e-02	4.83500e+02
1389	4.83551e+02	1.38900e+03	5.00276e-02	4.84500e+02
1391	4.84507e+02	1.39100e+03	5.00094e-02	4.85500e+02
1393	4.85454e+02	1.39300e+03	4.99818e-02	4.86500e+02
1395	4.86417e+02	1.39500e+03	4.99202e-02	4.87500e+02
1397	4.87383e+02	1.39700e+03	4.98308e-02	4.88500e+02
1399	4.88348e+02	1.39900e+03	4.97765e-02	4.89500e+02
1401	4.89329e+02	1.40100e+03	4.97523e-02	4.90500e+02
1403	4.90316e+02	1.40300e+03	4.97282e-02	4.91500e+02
1405	4.91290e+02	1.40500e+03	4.97170e-02	4.92500e+02
1407	4.92263e+02	1.40700e+03	4.96935e-02	4.93500e+02
1409	4.93240e+02	1.40900e+03	4.96683e-02	4.94500e+02
1411	4.94201e+02	1.41100e+03	4.96541e-02	4.95500e+02
1413	4.95183e+02	1.41300e+03	4.96561e-02	4.96500e+02
1415	4.96164e+02	1.41500e+03	4.96617e-02	4.97500e+02
1417	4.97143e+02	1.41700e+03	4.96850e-02	4.98500e+02
1419	4.98126e+02	1.41900e+03	4.97015e-02	4.99500e+02
1421	4.99133e+02	1.42100e+03	4.97093e-02	5.00500e+02
1423	5.00109e+02	1.42300e+03	4.97189e-02	5.01500e+02
1425	5.01097e+02	1.42500e+03	4.97378e-02	5.02500e+02
1427	5.02086e+02	1.42700e+03	4.97598e-02	5.03500e+02
1429	5.03087e+02	1.42900e+03	4.97615e-02	5.04500e+02
1431	5.04087e+02	1.43100e+03	4.97305e-02	5.05500e+02
1433	5.05089e+02	1.43300e+03	4.96646e-02	5.06500e+02
1435	5.06088e+02	1.43500e+03	4.96242e-02	5.07500e+02
1437	5.07091e+02	1.43700e+03	4.95701e-02	5.08500e+02
1439	5.08074e+02	1.43900e+03	4.94801e-02	5.09500e+02
1441	5.09104e+02	1.44100e+03	4.93673e-02	5.10500e+02
1443	5.10105e+02	1.44300e+03	4.92967e-02	5.11500e+02
1445	5.11121e+02	1.44500e+03	4.92782e-02	5.12500e+02
1447	5.12125e+02	1.44700e+03	4.92764e-02	5.13500e+02
1449	5.13147e+02	1.44900e+03	4.93252e-02	5.14500e+02
1451	5.14166e+02	1.45100e+03	4.93629e-02	5.15500e+02
1453	5.15161e+02	1.45300e+03	4.94063e-02	5.16500e+02
1455	5.16168e+02	1.45500e+03	4.94351e-02	5.17500e+02
1457	5.17146e+02	1.45700e+03	4.94333e-02	5.18500e+02
1459	5.18140e+02	1.45900e+03	4.94078e-02	5.19500e+02
1461	5.19122e+02	1.46100e+03	4.93240e-02	5.20500e+02
1463	5.20100e+02	1.46300e+03	4.92320e-02	5.21500e+02
1465	5.21087e+02	1.46500e+03	4.91135e-02	5.22500e+02
1467	5.22076e+02	1.46700e+03	4.90131e-02	5.23500e+02
1469	5.23057e+02	1.46900e+03	4.89517e-02	5.24500e+02
1471	5.24056e+02	1.47100e+03	4.89462e-02	5.25500e+02
1473	5.25032e+02	1.47300e+03	4.90438e-02	5.26500e+02
1475	5.26016e+02	1.47500e+03	4.91364e-02	5.27500e+02
1477	5.26973e+02	1.47700e+03	4.92505e-02	5.28500e+02
1479	5.27963e+02	1.47900e+03	4.93108e-02	5.29500e+02
1481	5.28921e+02	1.48100e+03	4.93021e-02	5.30500e+02
1483	5.29860e+02	1.48300e+03	4.92968e-02	5.31500e+02
1485	5.30821e+02	1.48500e+03	4.92548e-02	5.32500e+02
1487	5.31787e+02	1.48700e+03	4.91976e-02	5.33500e+02
1489	5.32749e+02	1.48900e+03	4.90942e-02	5.34500e+02
1491	5.33726e+02	1.49100e+03	4.89904e-02	5.35500e+02
1493	5.34677e+02	1.49300e+03	4.88906e-02	5.36500e+02
1495	5.35633e+02	1.49500e+03	4.88403e-02	5.37500e+02
1497	5.36596e+02	1.49700e+03	4.88571e-02	5.38500e+02
1499	5.37557e+02	1.49900e+03	4.88603e-02	5.39500e+02
1501	5.38523e+02	1.50100e+03	4.88849e-02	5.40500e+02
1503	5.39479e+02	1.50300e+03	4.89189e-02	5.41500e+02
1505	5.40474e+02	1.50500e+03	4.89818e-02	5.42500e+02
1507	5.41449e+02	1.50700e+03	4.90479e-02	5.43500e+02
1509	5.42449e+02	1.50900e+03	4.91095e-02	5.44500e+02
1511	5.43478e+02	1.51100e+03	4.91366e-02	5.45500e+02
1513	5.44477e+02	1.51300e+03	4.91035e-02	5.46500e+02
1515	5.45461e+02	1.51500e+03	4.90475e-02	5.47500e+02
1517	5.46443e+02	1.51700e+03	4.89209e-02	5.48500e+02
1519	5.47427e+02	1.51900e+03	4.88061e-02	5.49500e+02
1521	5.48370e+02	1.52100e+03	4.87068e-02	5.50500e+02
1523	5.49337e+02	1.52300e+03	4.86710e-02	5.51500e+02
1525	5.50281e+02	1.52500e+03	4.87314e-02	5.52500e+02
1527	5.51229e+02	1.52700e+03	4.87888e-02	5.53500e+02
1529	5.52214e+02	1.52900e+03	4.88843e-02	5.54500e+02
1531	5.53212e+02	1.53100e+03	4.89420e-02	5.55500e+02
1533	5.54240e+02	1.53300e+03	4.89469e-02	5.56500e+02
1535	5.55212e+02	1.53500e+03	4.89301e-02	5.57500e+02
1537	5.56137e+02	1.53700e+03	4.88635e-02	5.58500e+02
1539	5.57087e+02	1.53900e+03	4.88065e-02	5.59500e+02
1541	5.58019e+02	1.54100e+03	4.87470e-02	5.60500e+02
1543	5.59013e+02	1.54300e+03	4.87118e-02	5.61500e+02
1545	5.60000e+02	1.54500e+03	4.87181e-02	5.62500e+02
1547	5.60977e+02	1.54700e+03	4.87344e-02	5.63500e+02
1549	5.61952e+02	1.54900e+03	4.87725e-02	5.64500e+02
1551	5.62923e+02	1.55100e+03	4.87878e-02	5.65500e+02
1553	5.63922e+02	1.55300e+03	4.87968e-02	5.66500e+02
1555	5.64895e+02	1.55500e+03	4.88184e-02	5.67500e+02
1557	5.65844e+02	1.55700e+03	4.88329e-02	5.68500e+02
1559	5.66865e+02	1.55900e+03	4.88103e-02	5.69500e+02
1561	5.67865e+02	1.56100e+03	4.87370e-02	5.70500e+02
1563	5.68914e+02	1.56300e+03	4.86678e-02	5.71500e+02
1565	5.69903e+02	1.56500e+03	4.85910e-02	5.72500e+02
1567	5.73129e+02	1.56700e+03	4.85488e-02	5.73500e+02
1569	5.73849e+02	1.56900e+03	4.85775e-02	5.74500e+02
1571	5.74656e+02	1.57100e+03	4.86384e-02	5.75500e+02
1573	5.75515e+02	1.57300e+03	4.87597e-02	5.76500e+02
1575	5.76421e+02	1.57500e+03	4.88218e-02	5.77500e+02
1577	5.77335e+02	1.57700e+03	4.87734e-02	5.78500e+02
1579	5.78272e+02	1.57900e+03	4.86493e-02	5.79500e+02
1581	5.79198e+02	1.58100e+03	4.84496e-02	5.80500e+02
1583	5.80138e+02	1.58300e+03	4.83710e-02	5.81500e+02
1585	5.81084e+02	1.58500e+03	4.84010e-02	5.82500e+02
1587	5.82027e+02	1.58700e+03	4.84310e-02	5.83500e+02
1589	5.82977e+02	1.58900e+03	4.85064e-02	5.84500e+02
1591	5.83932e+02	1.59100e+03	4.85287e-02	5.85500e+02
1593	5.84873e+02	1.59300e+03	4.84904e-02	5.86500e+02
1595	5.85832e+02	1.59500e+03	4.84505e-02	5.87500e+02
1597	5.86801e+02	1.59700e+03	4.84030e-02	5.88500e+02
1599	5.87773e+02	1.59900e+03	4.83954e-02	5.89500e+02
1601	5.88765e+02	1.60100e+03	4.84114e-02	5.90500e+02
1603	5.89737e+02	1.60300e+03	4.83884e-02	5.91500e+02
1605	5.90715e+02	1.60500e+03	4.83149e-02	5.92500e+02
1607	5.91687e+02	1.60700e+03	4.82154e-02	5.93500e+02
1609	5.92661e+02	1.60900e+03	4.80751e-02	5.94500e+02
1611	5.93640e+02	1.61100e+03	4.80044e-02	5.95500e+02
1613	5.94642e+02	1.61300e+03	4.80625e-02	5.96500e+02
1615	5.95625e+02	1.61500e+03	4.81681e-02	5.97500e+02
1617	5.96614e+02	1.61700e+03	4.83145e-02	5.98500e+02
1619	5.97609e+02	1.61900e+03	4.83322e-02	5.99500e+02
1621	5.98592e+02	1.62100e+03	4.81893e-02	6.00500e+02
1623	5.99576e+02	1.62300e+03	4.80666e-02	6.01500e+02
1625	6.00549e+02	1.62500e+03	4.79490e-02	6.02500e+02
1627	6.01515e+02	1.62700e+03	4.79205e-02	6.03500e+02
1629	6.02494e+02	1.62900e+03	4.80040e-02	6.04500e+02
1631	6.03478e+02	1.63100e+03	4.80504e-02	6.05500e+02
1633	6.04479e+02	1.63300e+03	4.80895e-02	6.06500e+02
1635	6.05483e+02	1.63500e+03	4.80986e-02	6.07500e+02
1637	6.06484e+02	1.63700e+03	4.80736e-02	6.08500e+02
1639	6.07474e+02	1.63900e+03	4.80710e-02	6.09500e+02
1641	6.08451e+02	1.64100e+03	4.80804e-02	6.10500e+02
1643	6.09407e+02	1.64300e+03	4.80839e-02	6.11500e+02
1645	6.10377e+02	1.64500e+03	4.80539e-02	6.12500e+02
1647	6.11331e+02	1.64700e+03	4.79929e-02	6.13500e+02
1649	6.12265e+02	1.64900e+03	4.79277e-02	6.14500e+02
1651	6.13231e+02	1.65100e+03	4.79196e-02	6.15500e+02
1653	6.14202e+02	1.65300e+03	4.79712e-02	6.16500e+02
1655	6.15158e+02	1.65500e+03	4.80195e-02	6.17500e+02
1657	6.16084e+02	1.65700e+03	4.80834e-02	6.18500e+02
1659	6.17029e+02	1.65900e+03	4.80952e-02	6.19500e+02
1661	6.17975e+02	1.66100e+03	4.80050e-02	6.20500e+02
1663	6.18942e+02	1.66300e+03	4.78826e-02	6.21500e+02
1665	6.19914e+02	1.66500e+03	4.77377e-02	6.22500e+02
1667	6.20904e+02	1.66700e+03	4.76891e-02	6.23500e+02
1669	6.21890e+02	1.66900e+03	4.77238e-02	6.24500e+02
1671	6.22867e+02	1.67100e+03	4.77010e-02	6.25500e+02
1673	6.23871e+02	1.67300e+03	4.76776e-02	6.26500e+02
1675	6.24856e+02	1.67500e+03	4.77005e-02	6.27500e+02
1677	6.25844e+02	1.67700e+03	4.77959e-02	6.28500e+02
1679	6.26832e+02	1.67900e+03	4.78939e-02	6.29500e+02
1681	6.27806e+02	1.68100e+03	4.79513e-02	6.30500e+02
1683	6.28786e+02	1.68300e+03	4.78624e-02	6.31500e+02
1685	6.29807e+02	1.68500e+03	4.76031e-02	6.32500e+02
1687	6.30756e+02	1.68700e+03	4.74589e-02	6.33500e+02
1689	6.31680e+02	1.68900e+03	4.74440e-02	6.34500e+02
1691	6.32648e+02	1.69100e+03	4.75302e-02	6.35500e+02
1693	6.33654e+02	1.69300e+03	4.77741e-02	6.36500e+02
1695	6.34664e+02	1.69500e+03	4.79076e-02	6.37500e+02
1697	6.35726e+02	1.69700e+03	4.79263e-02	6.38500e+02
1699	6.36757e+02	1.69900e+03	4.78855e-02	6.39500e+02
1701	6.37782e+02	1.70100e+03	4.77184e-02	6.40500e+02
1703	6.38771e+02	1.70300e+03	4.76210e-02	6.41500e+02
1705	6.39743e+02	1.70500e+03	4.75925e-02	6.42500e+02
1707	6.40749e+02	1.70700e+03	4.76251e-02	6.43500e+02
1709	6.41825e+02	1.70900e+03	4.77430e-02	6.44500e+02
1711	6.42772e+02	1.71100e+03	4.77780e-02	6.45500e+02
1713	6.43794e+02	1.71300e+03	4.77417e-02	6.46500e+02
1715	6.44841e+02	1.71500e+03	4.77241e-02	6.47500e+02
1717	6.45805e+02	1.71700e+03	4.77350e-02	6.48500e+02
1719	6.46856e+02	1.71900e+03	4.77971e-02	6.49500e+02
1721	6.47938e+02	1.72100e+03	4.78802e-02	6.50500e+02
1723	6.48965e+02	1.72300e+03	4.78536e-02	6.51500e+02
1725	6.49917e+02	1.72500e+03	4.76986e-02	6.52500e+02
1727	6.50847e+02	1.72700e+03	4.75787e-02	6.53500e+02
1729	6.51825e+02	1.72900e+03	4.75235e-02	6.54500e+02
1731	6.52832e+02	1.73100e+03	4.75875e-02	6.55500e+02
1733	6.53854e+02	1.73300e+03	4.78087e-02	6.56500e+02
1735	6.54891e+02	1.73500e+03	4.79423e-02	6.57500e+02
1737	6.55881e+02	1.73700e+03	4.79751e-02	6.58500e+02
1739	6.56871e+02	1.73900e+03	4.79133e-02	6.59500e+02
1741	6.57985e+02	1.74100e+03	4.76916e-02	6.60500e+02
1743	6.59222e+02	1.74300e+03	4.75472e-02	6.61500e+02
1745	6.60412e+02	1.74500e+03	4.74794e-02	6.62500e+02
1747	6.61411e+02	1.74700e+03	4.75167e-02	6.63500e+02
1749	6.62426e+02	1.74900e+03	4.77112e-02	6.64500e+02
1751	6.63495e+02	1.75100e+03	4.78226e-02	6.65500e+02
1753	6.64548e+02	1.75300e+03	4.78318e-02	6.66500e+02
1755	6.65593e+02	1.75500e+03	4.77338e-02	6.67500e+02
1757	6.66631e+02	1.75700e+03	4.75105e-02	6.68500e+02
1759	6.67662e+02	1.75900e+03	4.74288e-02	6.69500e+02
1761	6.68676e+02	1.76100e+03	4.74824e-02	6.70500e+02
1763	6.69731e+02	1.76300e+03	4.75363e-02	6.71500e+02
1765	6.70758e+02	1.76500e+03	4.76098e-02	6.72500e+02
1767	6.71708e+02	1.76700e+03	4.75913e-02	6.73500e+02
1769	6.72677e+02	1.76900e+03	4.75150e-02	6.74500e+02
1771	6.73605e+02	1.77100e+03	4.75002e-02	6.75500e+02
1773	6.74599e+02	1.77300e+03	4.75032e-02	6.76500e+02
1775	6.75591e+02	1.77500e+03	4.74629e-02	6.77500e+02
1777	6.76591e+02	1.77700e+03	4.74053e-02	6.78500e+02
1779	6.77575e+02	1.77900e+03	4.73880e-02	6.79500e+02
1781	6.78557e+02	1.78100e+03	4.73876e-02	6.80500e+02
1783	6.79572e+02	1.78300e+03	4.73652e-02	6.81500e+02
1785	6.80534e+02	1.78500e+03	4.73478e-02	6.82500e+02
1787	6.81478e+02	1.78700e+03	4.73499e-02	6.83500e+02
1789	6.82466e+02	1.78900e+03	4.73719e-02	6.84500e+02
1791	6.83503e+02	1.79100e+03	4.73858e-02	6.85500e+02
1793	6.84551e+02	1.79300e+03	4.73586e-02	6.86500e+02
1795	6.85353e+02	1.79500e+03	4.72678e-02	6.87500e+02
1797	6.85952e+02	1.79700e+03	4.71421e-02	6.88500e+02
1799	6.86708e+02	1.79900e+03	4.71068e-02	6.89500e+02
1801	6.87490e+02	1.80100e+03	4.71640e-02	6.90500e+02
1803	6.88220e+02	1.80300e+03	4.72089e-02	6.91500e+02
1805	6.88964e+02	1.80500e+03	4.73116e-02	6.92500e+02
1807	6.89660e+02	1.80700e+03	4.73799e-02	6.93500e+02
1809	6.90300e+02	1.80900e+03	4.73664e-02	6.94500e+02
1811	6.90846e+02	1.81100e+03	4.72936e-02	6.95500e+02
1813	6.91366e+02	1.81300e+03	4.71824e-02	6.96500e+02
1815	6.91726e+02	1.81500e+03	4.71869e-02	6.97500e+02
1817	6.92144e+02	1.81700e+03	4.73109e-02	6.98500e+02
1819	6.92597e+02	1.81900e+03	4.73948e-02	6.99500e+02
1820	6.92798e+02	1.82000e+03	4.74309e-02	7.00000e+02