File: Experiments/TUBS/tga_nonisotherm/tga_dynamic_n2_dyn30_piece_6mg_r1.txt
index	ts	t	weight	tr
[#]	[°C]	[s]	[mg]	[°C]
683	1.30821e+02	6.83000e+02	5.95867e+00	1.31500e+02
685	1.31826e+02	6.85000e+02	5.95855e+00	1.32500e+02
687	1.32836e+02	6.87000e+02	5.95845e+00	1.33500e+02
689	1.33850e+02	6.89000e+02	5.95838e+00	1.34500e+02
691	1.34854e+02	6.91000e+02	5.95831e+00	1.35500e+02
693	1.35868e+02	6.93000e+02	5.95822e+00	1.36500e+02
695	1.36877e+02	6.95000e+02	5.95810e+00	1.37500e+02
697	1.37909e+02	6.97000e+02	5.95796e+00	1.38500e+02
699	1.38901e+02	6.99000e+02	5.95783e+00	1.39500e+02
701	1.39900e+02	7.01000e+02	5.95772e+00	1.40500e+02
703	1.40927e+02	7.03000e+02	5.95763e+00	1.41500e+02
705	1.41952e+02	7.05000e+02	5.95757e+00	1.42500e+02
707	1.42956e+02	7.07000e+02	5.95748e+00	1.43500e+02
709	1.43977e+02	7.09000e+02	5.95736e+00	1.44500e+02
711	1.44998e+02	7.11000e+02	5.95722e+00	1.45500e+02
713	1.46025e+02	7.13000e+02	5.95704e+00	1.46500e+02
715	1.47036e+02	7.15000e+02	5.95688e+00	1.47500e+02
717	1.48055e+02	7.17000e+02	5.95671e+00	1.48500e+02
719	1.49090e+02	7.19000e+02	5.95654e+00	1.49500e+02
721	1.50112e+02	7.21000e+02	5.95637e+00	1.50500e+02
723	1.51123e+02	7.23000e+02	5.95618e+00	1.51500e+02
725	1.52141e+02	7.25000e+02	5.95596e+00	1.52500e+02
727	1.53156e+02	7.27000e+02	5.95575e+00	1.53500e+02
729	1.54165e+02	7.29000e+02	5.95554e+00	1.54500e+02
731	1.55175e+02	7.31000e+02	5.95534e+00	1.55500e+02
733	1.56190e+02	7.33000e+02	5.95512e+00	1.56500e+02
735	1.57191e+02	7.35000e+02	5.95490e+00	1.57500e+02
737	1.58205e+02	7.37000e+02	5.95468e+00	1.58500e+02
739	1.59216e+02	7.39000e+02	5.95448e+00	1.59500e+02
741	1.60241e+02	7.41000e+02	5.95429e+00	1.60500e+02
743	1.61247e+02	7.43000e+02	5.95409e+00	1.61500e+02
745	1.62251e+02	7.45000e+02	5.95388e+00	1.62500e+02
747	1.63270e+02	7.47000e+02	5.95369e+00	1.63500e+02
749	1.64275e+02	7.49000e+02	5.95349e+00	1.64500e+02
751	1.65299e+02	7.51000e+02	5.95329e+00	1.65500e+02
753	1.66305e+02	7.53000e+02	5.95307e+00	1.66500e+02
755	1.67316e+02	7.55000e+02	5.95285e+00	1.67500e+02
757	1.68327e+02	7.57000e+02	5.95260e+00	1.68500e+02
759	1.69353e+02	7.59000e+02	5.95232e+00	1.69500e+02
761	1.70369e+02	7.61000e+02	5.95201e+00	1.70500e+02
763	1.71374e+02	7.63000e+02	5.95172e+00	1.71500e+02
765	1.72405e+02	7.65000e+02	5.95145e+00	1.72500e+02
767	1.73415e+02	7.67000e+02	5.95116e+00	1.73500e+02
769	1.74433e+02	7.69000e+02	5.95087e+00	1.74500e+02
771	1.75432e+02	7.71000e+02	5.95061e+00	1.75500e+02
773	1.76473e+02	7.73000e+02	5.95035e+00	1.76500e+02
775	1.77471e+02	7.75000e+02	5.95009e+00	1.77500e+02
777	1.78486e+02	7.77000e+02	5.94981e+00	1.78500e+02
779	1.79501e+02	7.79000e+02	5.94951e+00	1.79500e+02
781	1.80527e+02	7.81000e+02	5.94917e+00	1.80500e+02
783	1.81545e+02	7.83000e+02	5.94885e+00	1.81500e+02
785	1.82571e+02	7.85000e+02	5.94854e+00	1.82500e+02
787	1.83571e+02	7.87000e+02	5.94824e+00	1.83500e+02
789	1.84587e+02	7.89000e+02	5.94794e+00	1.84500e+02
791	1.85610e+02	7.91000e+02	5.94761e+00	1.85500e+02
793	1.86624e+02	7.93000e+02	5.94723e+00	1.86500e+02
795	1.87638e+02	7.95000e+02	5.94682e+00	1.87500e+02
797	1.88651e+02	7.97000e+02	5.94637e+00	1.88500e+02
799	1.89661e+02	7.99000e+02	5.94591e+00	1.89500e+02
801	1.90686e+02	8.01000e+02	5.94543e+00	1.90500e+02
803	1.91698e+02	8.03000e+02	5.94493e+00	1.91500e+02
805	1.92706e+02	8.05000e+02	5.94439e+00	1.92500e+02
807	1.93725e+02	8.07000e+02	5.94382e+00	1.93500e+02
809	1.94745e+02	8.09000e+02	5.94318e+00	1.94500e+02
811	1.95755e+02	8.11000e+02	5.94252e+00	1.95500e+02
813	1.96781e+02	8.13000e+02	5.94179e+00	1.96500e+02
815	1.97795e+02	8.15000e+02	5.94106e+00	1.97500e+02
817	1.98812e+02	8.17000e+02	5.94027e+00	1.98500e+02
819	1.99828e+02	8.19000e+02	5.93947e+00	1.99500e+02
821	2.00829e+02	8.21000e+02	5.93862e+00	2.00500e+02
823	2.01834e+02	8.23000e+02	5.93777e+00	2.01500e+02
825	2.02861e+02	8.25000e+02	5.93687e+00	2.02500e+02
827	2.03876e+02	8.27000e+02	5.93594e+00	2.03500e+02
829	2.04886e+02	8.29000e+02	5.93496e+00	2.04500e+02
831	2.05911e+02	8.31000e+02	5.93397e+00	2.05500e+02
833	2.06924e+02	8.33000e+02	5.93292e+00	2.06500e+02
835	2.07938e+02	8.35000e+02	5.93184e+00	2.07500e+02
837	2.08953e+02	8.37000e+02	5.93069e+00	2.08500e+02
839	2.09976e+02	8.39000e+02	5.92954e+00	2.09500e+02
841	2.10996e+02	8.41000e+02	5.92833e+00	2.10500e+02
843	2.12022e+02	8.43000e+02	5.92710e+00	2.11500e+02
845	2.13031e+02	8.45000e+02	5.92586e+00	2.12500e+02
847	2.14053e+02	8.47000e+02	5.92464e+00	2.13500e+02
849	2.15079e+02	8.49000e+02	5.92342e+00	2.14500e+02
851	2.16096e+02	8.51000e+02	5.92220e+00	2.15500e+02
853	2.17128e+02	8.53000e+02	5.92099e+00	2.16500e+02
855	2.18145e+02	8.55000e+02	5.91979e+00	2.17500e+02
857	2.19174e+02	8.57000e+02	5.91858e+00	2.18500e+02
859	2.20201e+02	8.59000e+02	5.91736e+00	2.19500e+02
861	2.21210e+02	8.61000e+02	5.91612e+00	2.20500e+02
863	2.22238e+02	8.63000e+02	5.91491e+00	2.21500e+02
865	2.23277e+02	8.65000e+02	5.91372e+00	2.22500e+02
867	2.24309e+02	8.67000e+02	5.91252e+00	2.23500e+02
869	2.25314e+02	8.69000e+02	5.91132e+00	2.24500e+02
871	2.26342e+02	8.71000e+02	5.91011e+00	2.25500e+02
873	2.27377e+02	8.73000e+02	5.90887e+00	2.26500e+02
875	2.28417e+02	8.75000e+02	5.90763e+00	2.27500e+02
877	2.29466e+02	8.77000e+02	5.90637e+00	2.28500e+02
879	2.30487e+02	8.79000e+02	5.90511e+00	2.29500e+02
881	2.31503e+02	8.81000e+02	5.90384e+00	2.30500e+02
883	2.32508e+02	8.83000e+02	5.90255e+00	2.31500e+02
885	2.33531e+02	8.85000e+02	5.90121e+00	2.32500e+02
887	2.34557e+02	8.87000e+02	5.89989e+00	2.33500e+02
889	2.35574e+02	8.89000e+02	5.89857e+00	2.34500e+02
891	2.36581e+02	8.91000e+02	5.89725e+00	2.35500e+02
893	2.37601e+02	8.93000e+02	5.89593e+00	2.36500e+02
895	2.38619e+02	8.95000e+02	5.89458e+00	2.37500e+02
897	2.39635e+02	8.97000e+02	5.89319e+00	2.38500e+02
899	2.40640e+02	8.99000e+02	5.89178e+00	2.39500e+02
901	2.41665e+02	9.01000e+02	5.89032e+00	2.40500e+02
903	2.42683e+02	9.03000e+02	5.88887e+00	2.41500e+02
905	2.43702e+02	9.05000e+02	5.88741e+00	2.42500e+02
907	2.44731e+02	9.07000e+02	5.88594e+00	2.43500e+02
909	2.45752e+02	9.09000e+02	5.88446e+00	2.44500e+02
911	2.46768e+02	9.11000e+02	5.88296e+00	2.45500e+02
913	2.47809e+02	9.13000e+02	5.88141e+00	2.46500e+02
915	2.48833e+02	9.15000e+02	5.87987e+00	2.47500e+02
917	2.49862e+02	9.17000e+02	5.87832e+00	2.48500e+02
919	2.50871e+02	9.19000e+02	5.87677e+00	2.49500e+02
921	2.51890e+02	9.21000e+02	5.87523e+00	2.50500e+02
923	2.52919e+02	9.23000e+02	5.87369e+00	2.51500e+02
925	2.53899e+02	9.25000e+02	5.87213e+00	2.52500e+02
927	2.54942e+02	9.27000e+02	5.87054e+00	2.53500e+02
929	2.55943e+02	9.29000e+02	5.86892e+00	2.54500e+02
931	2.56964e+02	9.31000e+02	5.86728e+00	2.55500e+02
933	2.57979e+02	9.33000e+02	5.86559e+00	2.56500e+02
935	2.58987e+02	9.35000e+02	5.86387e+00	2.57500e+02
937	2.60013e+02	9.37000e+02	5.86207e+00	2.58500e+02
939	2.61043e+02	9.39000e+02	5.86025e+00	2.59500e+02
941	2.62060e+02	9.41000e+02	5.85840e+00	2.60500e+02
943	2.63073e+02	9.43000e+02	5.85657e+00	2.61500e+02
945	2.64108e+02	9.45000e+02	5.85476e+00	2.62500e+02
947	2.65117e+02	9.47000e+02	5.85299e+00	2.63500e+02
949	2.66141e+02	9.49000e+02	5.85126e+00	2.64500e+02
951	2.67155e+02	9.51000e+02	5.84951e+00	2.65500e+02
953	2.68171e+02	9.53000e+02	5.84774e+00	2.66500e+02
955	2.69193e+02	9.55000e+02	5.84592e+00	2.67500e+02
957	2.70223e+02	9.57000e+02	5.84401e+00	2.68500e+02
959	2.71232e+02	9.59000e+02	5.84211e+00	2.69500e+02
961	2.72262e+02	9.61000e+02	5.84017e+00	2.70500e+02
963	2.73278e+02	9.63000e+02	5.83822e+00	2.71500e+02
965	2.74293e+02	9.65000e+02	5.83625e+00	2.72500e+02
967	2.75333e+02	9.67000e+02	5.83424e+00	2.73500e+02
969	2.76359e+02	9.69000e+02	5.83214e+00	2.74500e+02
971	2.77372e+02	9.71000e+02	5.83003e+00	2.75500e+02
973	2.78412e+02	9.73000e+02	5.82786e+00	2.76500e+02
975	2.79443e+02	9.75000e+02	5.82569e+00	2.77500e+02
977	2.80445e+02	9.77000e+02	5.82346e+00	2.78500e+02
979	2.81459e+02	9.79000e+02	5.82122e+00	2.79500e+02
981	2.82486e+02	9.81000e+02	5.81886e+00	2.80500e+02
983	2.83488e+02	9.83000e+02	5.81643e+00	2.81500e+02
985	2.84508e+02	9.85000e+02	5.81383e+00	2.82500e+02
987	2.85543e+02	9.87000e+02	5.81120e+00	2.83500e+02
989	2.86563e+02	9.89000e+02	5.80846e+00	2.84500e+02
991	2.87595e+02	9.91000e+02	5.80575e+00	2.85500e+02
993	2.88628e+02	9.93000e+02	5.80299e+00	2.86500e+02
995	2.89665e+02	9.95000e+02	5.80020e+00	2.87500e+02
997	2.90676e+02	9.97000e+02	5.79734e+00	2.88500e+02
999	2.91707e+02	9.99000e+02	5.79443e+00	2.89500e+02
1001	2.92734e+02	1.00100e+03	5.79138e+00	2.90500e+02
1003	2.93748e+02	1.00300e+03	5.78827e+00	2.91500e+02
1005	2.94753e+02	1.00500e+03	5.78499e+00	2.92500e+02
1007	2.95754e+02	1.00700e+03	5.78171e+00	2.93500e+02
1009	2.96760e+02	1.00900e+03	5.77831e+00	2.94500e+02
1011	2.97763e+02	1.01100e+03	5.77487e+00	2.95500e+02
1013	2.98788e+02	1.01300e+03	5.77130e+00	2.96500e+02
1015	2.99785e+02	1.01500e+03	5.76769e+00	2.97500e+02
1017	3.00783e+02	1.01700e+03	5.76389e+00	2.98500e+02
1019	3.01776e+02	1.01900e+03	5.75998e+00	2.99500e+02
1021	3.02789e+02	1.02100e+03	5.75575e+00	3.00500e+02
1023	3.03807e+02	1.02300e+03	5.75142e+00	3.01500e+02
1025	3.04819e+02	1.02500e+03	5.74678e+00	3.02500e+02
1027	3.05818e+02	1.02700e+03	5.74212e+00	3.03500e+02
1029	3.06829e+02	1.02900e+03	5.73726e+00	3.04500e+02
1031	3.07844e+02	1.03100e+03	5.73237e+00	3.05500e+02
1033	3.08851e+02	1.03300e+03	5.72729e+00	3.06500e+02
1035	3.09862e+02	1.03500e+03	5.72214e+00	3.07500e+02
1037	3.10866e+02	1.03700e+03	5.71677e+00	3.08500e+02
1039	3.11889e+02	1.03900e+03	5.71135e+00	3.09500e+02
1041	3.12894e+02	1.04100e+03	5.70573e+00	3.10500e+02
1043	3.13921e+02	1.04300e+03	5.70007e+00	3.11500e+02
1045	3.14929e+02	1.04500e+03	5.69420e+00	3.12500e+02
1047	3.15931e+02	1.04700e+03	5.68826e+00	3.13500e+02
1049	3.16930e+02	1.04900e+03	5.68214e+00	3.14500e+02
1051	3.17914e+02	1.05100e+03	5.67602e+00	3.15500e+02
1053	3.18915e+02	1.05300e+03	5.66981e+00	3.16500e+02
1055	3.19892e+02	1.05500e+03	5.66360e+00	3.17500e+02
1057	3.20864e+02	1.05700e+03	5.65728e+00	3.18500e+02
1059	3.21840e+02	1.05900e+03	5.65086e+00	3.19500e+02
1061	3.22803e+02	1.06100e+03	5.64426e+00	3.20500e+02
1063	3.23745e+02	1.06300e+03	5.63766e+00	3.21500e+02
1065	3.24695e+02	1.06500e+03	5.63086e+00	3.22500e+02
1067	3.25655e+02	1.06700e+03	5.62394e+00	3.23500e+02
1069	3.26630e+02	1.06900e+03	5.61673e+00	3.24500e+02
1071	3.27618e+02	1.07100e+03	5.60950e+00	3.25500e+02
1073	3.28606e+02	1.07300e+03	5.60213e+00	3.26500e+02
1075	3.29605e+02	1.07500e+03	5.59480e+00	3.27500e+02
1077	3.30596e+02	1.07700e+03	5.58742e+00	3.28500e+02
1079	3.31599e+02	1.07900e+03	5.57998e+00	3.29500e+02
1081	3.32595e+02	1.08100e+03	5.57239e+00	3.30500e+02
1083	3.33590e+02	1.08300e+03	5.56471e+00	3.31500e+02
1085	3.34596e+02	1.08500e+03	5.55673e+00	3.32500e+02
1087	3.35601e+02	1.08700e+03	5.54864e+00	3.33500e+02
1089	3.36601e+02	1.08900e+03	5.54019e+00	3.34500e+02
1091	3.37589e+02	1.09100e+03	5.53164e+00	3.35500e+02
1093	3.38613e+02	1.09300e+03	5.52265e+00	3.36500e+02
1095	3.39601e+02	1.09500e+03	5.51346e+00	3.37500e+02
1097	3.40608e+02	1.09700e+03	5.50368e+00	3.38500e+02
1099	3.41612e+02	1.09900e+03	5.49373e+00	3.39500e+02
1101	3.42602e+02	1.10100e+03	5.48304e+00	3.40500e+02
1103	3.43606e+02	1.10300e+03	5.47210e+00	3.41500e+02
1105	3.44607e+02	1.10500e+03	5.46023e+00	3.42500e+02
1107	3.45612e+02	1.10700e+03	5.44803e+00	3.43500e+02
1109	3.46596e+02	1.10900e+03	5.43463e+00	3.44500e+02
1111	3.47592e+02	1.11100e+03	5.42077e+00	3.45500e+02
1113	3.48610e+02	1.11300e+03	5.40535e+00	3.46500e+02
1115	3.49592e+02	1.11500e+03	5.38939e+00	3.47500e+02
1117	3.50572e+02	1.11700e+03	5.37145e+00	3.48500e+02
1119	3.51558e+02	1.11900e+03	5.35270e+00	3.49500e+02
1121	3.52536e+02	1.12100e+03	5.33124e+00	3.50500e+02
1123	3.53524e+02	1.12300e+03	5.30888e+00	3.51500e+02
1125	3.54540e+02	1.12500e+03	5.28350e+00	3.52500e+02
1127	3.55553e+02	1.12700e+03	5.25755e+00	3.53500e+02
1129	3.56583e+02	1.12900e+03	5.22881e+00	3.54500e+02
1131	3.57600e+02	1.13100e+03	5.19944e+00	3.55500e+02
1133	3.58591e+02	1.13300e+03	5.16712e+00	3.56500e+02
1135	3.59576e+02	1.13500e+03	5.13370e+00	3.57500e+02
1137	3.60573e+02	1.13700e+03	5.09664e+00	3.58500e+02
1139	3.61550e+02	1.13900e+03	5.05749e+00	3.59500e+02
1141	3.62551e+02	1.14100e+03	5.01422e+00	3.60500e+02
1143	3.63526e+02	1.14300e+03	4.96887e+00	3.61500e+02
1145	3.64525e+02	1.14500e+03	4.91998e+00	3.62500e+02
1147	3.65502e+02	1.14700e+03	4.86763e+00	3.63500e+02
1149	3.66497e+02	1.14900e+03	4.81176e+00	3.64500e+02
1151	3.67510e+02	1.15100e+03	4.75463e+00	3.65500e+02
1153	3.68483e+02	1.15300e+03	4.69337e+00	3.66500e+02
1155	3.69467e+02	1.15500e+03	4.63115e+00	3.67500e+02
1157	3.70452e+02	1.15700e+03	4.56496e+00	3.68500e+02
1159	3.71456e+02	1.15900e+03	4.49800e+00	3.69500e+02
1161	3.72418e+02	1.16100e+03	4.42737e+00	3.70500e+02
1163	3.73395e+02	1.16300e+03	4.35595e+00	3.71500e+02
1165	3.74364e+02	1.16500e+03	4.28124e+00	3.72500e+02
1167	3.75346e+02	1.16700e+03	4.20596e+00	3.73500e+02
1169	3.76328e+02	1.16900e+03	4.12760e+00	3.74500e+02
1171	3.77314e+02	1.17100e+03	4.04822e+00	3.75500e+02
1173	3.78296e+02	1.17300e+03	3.96525e+00	3.76500e+02
1175	3.79258e+02	1.17500e+03	3.88127e+00	3.77500e+02
1177	3.80246e+02	1.17700e+03	3.79345e+00	3.78500e+02
1179	3.81241e+02	1.17900e+03	3.70479e+00	3.79500e+02
1181	3.82255e+02	1.18100e+03	3.61244e+00	3.80500e+02
1183	3.83218e+02	1.18300e+03	3.51936e+00	3.81500e+02
1185	3.84237e+02	1.18500e+03	3.42316e+00	3.82500e+02
1187	3.85216e+02	1.18700e+03	3.32683e+00	3.83500e+02
1189	3.86221e+02	1.18900e+03	3.22852e+00	3.84500e+02
1191	3.87218e+02	1.19100e+03	3.13011e+00	3.85500e+02
1193	3.88189e+02	1.19300e+03	3.03031e+00	3.86500e+02
1195	3.89174e+02	1.19500e+03	2.93032e+00	3.87500e+02
1197	3.90170e+02	1.19700e+03	2.82927e+00	3.88500e+02
1199	3.91143e+02	1.19900e+03	2.72829e+00	3.89500e+02
1201	3.92167e+02	1.20100e+03	2.62703e+00	3.90500e+02
1203	3.93176e+02	1.20300e+03	2.52604e+00	3.91500e+02
1205	3.94162e+02	1.20500e+03	2.42525e+00	3.92500e+02
1207	3.95159e+02	1.20700e+03	2.32446e+00	3.93500e+02
1209	3.96162e+02	1.20900e+03	2.22398e+00	3.94500e+02
1211	3.97145e+02	1.21100e+03	2.12389e+00	3.95500e+02
1213	3.98144e+02	1.21300e+03	2.02470e+00	3.96500e+02
1215	3.99139e+02	1.21500e+03	1.92586e+00	3.97500e+02
1217	4.00152e+02	1.21700e+03	1.82821e+00	3.98500e+02
1219	4.01129e+02	1.21900e+03	1.73082e+00	3.99500e+02
1221	4.02149e+02	1.22100e+03	1.63473e+00	4.00500e+02
1223	4.03156e+02	1.22300e+03	1.53906e+00	4.01500e+02
1225	4.04187e+02	1.22500e+03	1.44502e+00	4.02500e+02
1227	4.05213e+02	1.22700e+03	1.35154e+00	4.03500e+02
1229	4.06251e+02	1.22900e+03	1.26031e+00	4.04500e+02
1231	4.07263e+02	1.23100e+03	1.17014e+00	4.05500e+02
1233	4.08310e+02	1.23300e+03	1.08332e+00	4.06500e+02
1235	4.09357e+02	1.23500e+03	9.97463e-01	4.07500e+02
1237	4.10395e+02	1.23700e+03	9.18077e-01	4.08500e+02
1239	4.11455e+02	1.23900e+03	8.41237e-01	4.09500e+02
1241	4.12542e+02	1.24100e+03	7.70935e-01	4.10500e+02
1243	4.13631e+02	1.24300e+03	7.03253e-01	4.11500e+02
1245	4.14697e+02	1.24500e+03	6.42275e-01	4.12500e+02
1247	4.15792e+02	1.24700e+03	5.83805e-01	4.13500e+02
1249	4.16868e+02	1.24900e+03	5.31656e-01	4.14500e+02
1251	4.17921e+02	1.25100e+03	4.81645e-01	4.15500e+02
1253	4.19013e+02	1.25300e+03	4.37357e-01	4.16500e+02
1255	4.20065e+02	1.25500e+03	3.95166e-01	4.17500e+02
1257	4.21120e+02	1.25700e+03	3.58379e-01	4.18500e+02
1259	4.22199e+02	1.25900e+03	3.24750e-01	4.19500e+02
1261	4.23274e+02	1.26100e+03	2.94401e-01	4.20500e+02
1263	4.24372e+02	1.26300e+03	2.66056e-01	4.21500e+02
1265	4.25367e+02	1.26500e+03	2.41677e-01	4.22500e+02
1267	4.26415e+02	1.26700e+03	2.18324e-01	4.23500e+02
1269	4.27449e+02	1.26900e+03	1.98764e-01	4.24500e+02
1271	4.28411e+02	1.27100e+03	1.79828e-01	4.25500e+02
1273	4.29433e+02	1.27300e+03	1.64094e-01	4.26500e+02
1275	4.30412e+02	1.27500e+03	1.48803e-01	4.27500e+02
1277	4.31436e+02	1.27700e+03	1.36050e-01	4.28500e+02
1279	4.32465e+02	1.27900e+03	1.23622e-01	4.29500e+02
1281	4.33476e+02	1.28100e+03	1.13187e-01	4.30500e+02
1283	4.34471e+02	1.28300e+03	1.03039e-01	4.31500e+02
1285	4.35528e+02	1.28500e+03	9.44987e-02	4.32500e+02
1287	4.36553e+02	1.28700e+03	8.61741e-02	4.33500e+02
1289	4.37674e+02	1.28900e+03	7.91138e-02	4.34500e+02
1291	4.38803e+02	1.29100e+03	7.22015e-02	4.35500e+02
1293	4.39801e+02	1.29300e+03	6.62216e-02	4.36500e+02
1295	4.40859e+02	1.29500e+03	6.03367e-02	4.37500e+02
1297	4.41894e+02	1.29700e+03	5.51482e-02	4.38500e+02
1299	4.42920e+02	1.29900e+03	5.00596e-02	4.39500e+02
1301	4.43903e+02	1.30100e+03	4.55349e-02	4.40500e+02
1303	4.44946e+02	1.30300e+03	4.11067e-02	4.41500e+02
1305	4.45953e+02	1.30500e+03	3.71803e-02	4.42500e+02
1307	4.46970e+02	1.30700e+03	3.33558e-02	4.43500e+02
1309	4.47982e+02	1.30900e+03	3.00002e-02	4.44500e+02
1311	4.48999e+02	1.31100e+03	2.67364e-02	4.45500e+02
1313	4.50016e+02	1.31300e+03	2.38945e-02	4.46500e+02
1315	4.51030e+02	1.31500e+03	2.11364e-02	4.47500e+02
1317	4.52771e+02	1.31700e+03	1.87762e-02	4.48500e+02
1319	4.53549e+02	1.31900e+03	1.65029e-02	4.49500e+02
1321	4.54489e+02	1.32100e+03	1.46211e-02	4.50500e+02
1323	4.55364e+02	1.32300e+03	1.28332e-02	4.51500e+02
1325	4.56197e+02	1.32500e+03	1.14434e-02	4.52500e+02
1327	4.57062e+02	1.32700e+03	1.01416e-02	4.53500e+02
1329	4.57993e+02	1.32900e+03	9.19805e-03	4.54500e+02
1331	4.58927e+02	1.33100e+03	8.29149e-03	4.55500e+02
1333	4.59890e+02	1.33300e+03	7.65954e-03	4.56500e+02
1335	4.60775e+02	1.33500e+03	7.06667e-03	4.57500e+02
1337	4.61622e+02	1.33700e+03	6.66580e-03	4.58500e+02
1339	4.62519e+02	1.33900e+03	6.26373e-03	4.59500e+02
1341	4.63464e+02	1.34100e+03	5.96287e-03	4.60500e+02
1343	4.64419e+02	1.34300e+03	5.65438e-03	4.61500e+02
1345	4.65374e+02	1.34500e+03	5.37472e-03	4.62500e+02
1347	4.66350e+02	1.34700e+03	5.07801e-03	4.63500e+02
1349	4.67335e+02	1.34900e+03	4.79563e-03	4.64500e+02
1351	4.68324e+02	1.35100e+03	4.54393e-03	4.65500e+02
1353	4.69280e+02	1.35300e+03	4.33191e-03	4.66500e+02
1355	4.70253e+02	1.35500e+03	4.10947e-03	4.67500e+02
1357	4.71228e+02	1.35700e+03	3.91098e-03	4.68500e+02
1359	4.72204e+02	1.35900e+03	3.72126e-03	4.69500e+02
1361	4.73177e+02	1.36100e+03	3.55937e-03	4.70500e+02
1363	4.74152e+02	1.36300e+03	3.40977e-03	4.71500e+02
1365	4.75140e+02	1.36500e+03	3.30516e-03	4.72500e+02
1367	4.76115e+02	1.36700e+03	3.20967e-03	4.73500e+02
1369	4.77101e+02	1.36900e+03	3.13163e-03	4.74500e+02
1371	4.78080e+02	1.37100e+03	3.02220e-03	4.75500e+02
1373	4.79070e+02	1.37300e+03	2.89301e-03	4.76500e+02
1375	4.80062e+02	1.37500e+03	2.77264e-03	4.77500e+02
1377	4.81042e+02	1.37700e+03	2.63989e-03	4.78500e+02
1379	4.82022e+02	1.37900e+03	2.50678e-03	4.79500e+02
1381	4.83000e+02	1.38100e+03	2.39846e-03	4.80500e+02
1383	4.83981e+02	1.38300e+03	2.31119e-03	4.81500e+02
1385	4.84966e+02	1.38500e+03	2.25617e-03	4.82500e+02
1387	4.85959e+02	1.38700e+03	2.18322e-03	4.83500e+02
1389	4.86940e+02	1.38900e+03	2.10412e-03	4.84500e+02
1391	4.87908e+02	1.39100e+03	2.03414e-03	4.85500e+02
1393	4.88890e+02	1.39300e+03	1.98137e-03	4.86500e+02
1395	4.89885e+02	1.39500e+03	1.94065e-03	4.87500e+02
1397	4.90872e+02	1.39700e+03	1.90963e-03	4.88500e+02
1399	4.91855e+02	1.39900e+03	1.85434e-03	4.89500e+02
1401	4.92843e+02	1.40100e+03	1.76941e-03	4.90500e+02
1403	4.93819e+02	1.40300e+03	1.67555e-03	4.91500e+02
1405	4.94801e+02	1.40500e+03	1.54194e-03	4.92500e+02
1407	4.95793e+02	1.40700e+03	1.40884e-03	4.93500e+02
1409	4.96777e+02	1.40900e+03	1.27717e-03	4.94500e+02
1411	4.97765e+02	1.41100e+03	1.17968e-03	4.95500e+02
1413	4.98757e+02	1.41300e+03	1.12878e-03	4.96500e+02
1415	4.99734e+02	1.41500e+03	1.06442e-03	4.97500e+02
1417	5.00715e+02	1.41700e+03	9.99527e-04	4.98500e+02
1419	5.01698e+02	1.41900e+03	9.23902e-04	4.99500e+02
1421	5.02691e+02	1.42100e+03	8.19634e-04	5.00500e+02
1423	5.03668e+02	1.42300e+03	7.21743e-04	5.01500e+02
1425	5.04646e+02	1.42500e+03	6.28722e-04	5.02500e+02
1427	5.05635e+02	1.42700e+03	5.56931e-04	5.03500e+02
1429	5.06632e+02	1.42900e+03	5.10974e-04	5.04500e+02
1431	5.07606e+02	1.43100e+03	4.57567e-04	5.05500e+02
1433	5.08589e+02	1.43300e+03	4.29428e-04	5.06500e+02
1435	5.09589e+02	1.43500e+03	4.22479e-04	5.07500e+02
1437	5.10568e+02	1.43700e+03	4.32604e-04	5.08500e+02
1439	5.11544e+02	1.43900e+03	4.11583e-04	5.09500e+02
1441	5.12531e+02	1.44100e+03	3.56457e-04	5.10500e+02
1443	5.13503e+02	1.44300e+03	2.94720e-04	5.11500e+02
1445	5.14487e+02	1.44500e+03	1.86784e-04	5.12500e+02
1447	5.15461e+02	1.44700e+03	5.94098e-05	5.13500e+02
1449	5.16451e+02	1.44900e+03	-1.21072e-04	5.14500e+02
1451	5.17420e+02	1.45100e+03	-2.79031e-04	5.15500e+02
1453	5.18412e+02	1.45300e+03	-3.67478e-04	5.16500e+02
1455	5.19395e+02	1.45500e+03	-3.69747e-04	5.17500e+02
1457	5.20383e+02	1.45700e+03	-2.08362e-04	5.18500e+02
1459	5.21351e+02	1.45900e+03	-7.33787e-05	5.19500e+02
1461	5.22342e+02	1.46100e+03	3.80945e-05	5.20500e+02
1463	5.23321e+02	1.46300e+03	5.94716e-05	5.21500e+02
1465	5.24311e+02	1.46500e+03	-2.50577e-05	5.22500e+02
1467	5.25286e+02	1.46700e+03	-6.38514e-05	5.23500e+02
1469	5.26274e+02	1.46900e+03	-1.01979e-04	5.24500e+02
1471	5.27258e+02	1.47100e+03	-1.43761e-04	5.25500e+02
1473	5.28245e+02	1.47300e+03	-2.11075e-04	5.26500e+02
1475	5.29235e+02	1.47500e+03	-3.06251e-04	5.27500e+02
1477	5.30223e+02	1.47700e+03	-4.34526e-04	5.28500e+02
1479	5.31203e+02	1.47900e+03	-5.34376e-04	5.29500e+02
1481	5.32193e+02	1.48100e+03	-6.04856e-04	5.30500e+02
1483	5.33187e+02	1.48300e+03	-6.61816e-04	5.31500e+02
1485	5.34171e+02	1.48500e+03	-6.77695e-04	5.32500e+02
1487	5.35156e+02	1.48700e+03	-6.92645e-04	5.33500e+02
1489	5.36140e+02	1.48900e+03	-7.03793e-04	5.34500e+02
1491	5.37125e+02	1.49100e+03	-7.43725e-04	5.35500e+02
1493	5.38109e+02	1.49300e+03	-8.08279e-04	5.36500e+02
1495	5.39109e+02	1.49500e+03	-8.71855e-04	5.37500e+02
1497	5.40078e+02	1.49700e+03	-9.56578e-04	5.38500e+02
1499	5.41079e+02	1.49900e+03	-1.04610e-03	5.39500e+02
1501	5.42063e+02	1.50100e+03	-1.12853e-03	5.40500e+02
1503	5.43038e+02	1.50300e+03	-1.18477e-03	5.41500e+02
1505	5.44019e+02	1.50500e+03	-1.21147e-03	5.42500e+02
1507	5.45005e+02	1.50700e+03	-1.24715e-03	5.43500e+02
1509	5.45988e+02	1.50900e+03	-1.26988e-03	5.44500e+02
1511	5.46964e+02	1.51100e+03	-1.28916e-03	5.45500e+02
1513	5.47972e+02	1.51300e+03	-1.31825e-03	5.46500e+02
1515	5.48946e+02	1.51500e+03	-1.36639e-03	5.47500e+02
1517	5.49925e+02	1.51700e+03	-1.42587e-03	5.48500e+02
1519	5.50923e+02	1.51900e+03	-1.46489e-03	5.49500e+02
1521	5.51908e+02	1.52100e+03	-1.49200e-03	5.50500e+02
1523	5.52896e+02	1.52300e+03	-1.53013e-03	5.51500e+02
1525	5.53871e+02	1.52500e+03	-1.56522e-03	5.52500e+02
1527	5.54847e+02	1.52700e+03	-1.60332e-03	5.53500e+02
1529	5.55830e+02	1.52900e+03	-1.69498e-03	5.54500e+02
1531	5.56805e+02	1.53100e+03	-1.84106e-03	5.55500e+02
1533	5.57785e+02	1.53300e+03	-2.03274e-03	5.56500e+02
1535	5.58758e+02	1.53500e+03	-2.14166e-03	5.57500e+02
1537	5.59736e+02	1.53700e+03	-2.12278e-03	5.58500e+02
1539	5.60709e+02	1.53900e+03	-2.07559e-03	5.59500e+02
1541	5.61687e+02	1.54100e+03	-1.96893e-03	5.60500e+02
1543	5.62649e+02	1.54300e+03	-1.93878e-03	5.61500e+02
1545	5.63628e+02	1.54500e+03	-2.00906e-03	5.62500e+02
1547	5.64627e+02	1.54700e+03	-2.07087e-03	5.63500e+02
1549	5.65605e+02	1.54900e+03	-2.14348e-03	5.64500e+02
1551	5.66587e+02	1.55100e+03	-2.17268e-03	5.65500e+02
1553	5.67546e+02	1.55300e+03	-2.14646e-03	5.66500e+02
1555	5.68541e+02	1.55500e+03	-2.14267e-03	5.67500e+02
1557	5.69526e+02	1.55700e+03	-2.16409e-03	5.68500e+02
1559	5.70524e+02	1.55900e+03	-2.20949e-03	5.69500e+02
1561	5.71506e+02	1.56100e+03	-2.29458e-03	5.70500e+02
1563	5.72503e+02	1.56300e+03	-2.35970e-03	5.71500e+02
1565	5.73505e+02	1.56500e+03	-2.41830e-03	5.72500e+02
1567	5.74498e+02	1.56700e+03	-2.47229e-03	5.73500e+02
1569	5.75470e+02	1.56900e+03	-2.49919e-03	5.74500e+02
1571	5.76433e+02	1.57100e+03	-2.50662e-03	5.75500e+02
1573	5.77428e+02	1.57300e+03	-2.48445e-03	5.76500e+02
1575	5.78407e+02	1.57500e+03	-2.47306e-03	5.77500e+02
1577	5.79380e+02	1.57700e+03	-2.46037e-03	5.78500e+02
1579	5.80343e+02	1.57900e+03	-2.45355e-03	5.79500e+02
1581	5.81331e+02	1.58100e+03	-2.46026e-03	5.80500e+02
1583	5.82324e+02	1.58300e+03	-2.47401e-03	5.81500e+02
1585	5.83322e+02	1.58500e+03	-2.51270e-03	5.82500e+02
1587	5.84321e+02	1.58700e+03	-2.55934e-03	5.83500e+02
1589	5.85319e+02	1.58900e+03	-2.64084e-03	5.84500e+02
1591	5.86288e+02	1.59100e+03	-2.71604e-03	5.85500e+02
1593	5.87266e+02	1.59300e+03	-2.78050e-03	5.86500e+02
1595	5.88238e+02	1.59500e+03	-2.82152e-03	5.87500e+02
1597	5.89245e+02	1.59700e+03	-2.84161e-03	5.88500e+02
1599	5.90230e+02	1.59900e+03	-2.88700e-03	5.89500e+02
1601	5.91210e+02	1.60100e+03	-2.94884e-03	5.90500e+02
1603	5.92190e+02	1.60300e+03	-3.00118e-03	5.91500e+02
1605	5.93176e+02	1.60500e+03	-3.05510e-03	5.92500e+02
1607	5.94174e+02	1.60700e+03	-3.11072e-03	5.93500e+02
1609	5.95180e+02	1.60900e+03	-3.15429e-03	5.94500e+02
1611	5.96168e+02	1.61100e+03	-3.18410e-03	5.95500e+02
1613	5.97167e+02	1.61300e+03	-3.20412e-03	5.96500e+02
1615	5.98179e+02	1.61500e+03	-3.24198e-03	5.97500e+02
1617	5.99160e+02	1.61700e+03	-3.29338e-03	5.98500e+02
1619	6.00172e+02	1.61900e+03	-3.33583e-03	5.99500e+02
1621	6.01133e+02	1.62100e+03	-3.39767e-03	6.00500e+02
1623	6.02151e+02	1.62300e+03	-3.49014e-03	6.01500e+02
1625	6.03170e+02	1.62500e+03	-3.63542e-03	6.02500e+02
1627	6.04192e+02	1.62700e+03	-3.77104e-03	6.03500e+02
1629	6.05231e+02	1.62900e+03	-3.85414e-03	6.04500e+02
1631	6.06251e+02	1.63100e+03	-3.83902e-03	6.05500e+02
1633	6.07227e+02	1.63300e+03	-3.68894e-03	6.06500e+02
1635	6.08232e+02	1.63500e+03	-3.59449e-03	6.07500e+02
1637	6.09217e+02	1.63700e+03	-3.53081e-03	6.08500e+02
1639	6.10211e+02	1.63900e+03	-3.53065e-03	6.09500e+02
1641	6.11201e+02	1.64100e+03	-3.60968e-03	6.10500e+02
1643	6.12189e+02	1.64300e+03	-3.63759e-03	6.11500e+02
1645	6.13174e+02	1.64500e+03	-3.63157e-03	6.12500e+02
1647	6.14177e+02	1.64700e+03	-3.61465e-03	6.13500e+02
1649	6.15158e+02	1.64900e+03	-3.58302e-03	6.14500e+02
1651	6.16139e+02	1.65100e+03	-3.60279e-03	6.15500e+02
1653	6.17131e+02	1.65300e+03	-3.69568e-03	6.16500e+02
1655	6.18128e+02	1.65500e+03	-3.78882e-03	6.17500e+02
1657	6.19133e+02	1.65700e+03	-3.90030e-03	6.18500e+02
1659	6.20140e+02	1.65900e+03	-3.97467e-03	6.19500e+02
1661	6.21156e+02	1.66100e+03	-4.01116e-03	6.20500e+02
1663	6.22167e+02	1.66300e+03	-4.03590e-03	6.21500e+02
1665	6.23176e+02	1.66500e+03	-4.01318e-03	6.22500e+02
1667	6.24205e+02	1.66700e+03	-4.00461e-03	6.23500e+02
1669	6.25268e+02	1.66900e+03	-4.02445e-03	6.24500e+02
1671	6.26338e+02	1.67100e+03	-4.09372e-03	6.25500e+02
1673	6.27325e+02	1.67300e+03	-4.22518e-03	6.26500e+02
1675	6.28337e+02	1.67500e+03	-4.31329e-03	6.27500e+02
1677	6.29386e+02	1.67700e+03	-4.36323e-03	6.28500e+02
1679	6.30383e+02	1.67900e+03	-4.39260e-03	6.29500e+02
1681	6.31466e+02	1.68100e+03	-4.38431e-03	6.30500e+02
1683	6.32554e+02	1.68300e+03	-4.39372e-03	6.31500e+02
1685	6.33543e+02	1.68500e+03	-4.38596e-03	6.32500e+02
1687	6.34567e+02	1.68700e+03	-4.36743e-03	6.33500e+02
1689	6.35589e+02	1.68900e+03	-4.35638e-03	6.34500e+02
1691	6.36615e+02	1.69100e+03	-4.38593e-03	6.35500e+02
1693	6.37632e+02	1.69300e+03	-4.43509e-03	6.36500e+02
1695	6.38629e+02	1.69500e+03	-4.44459e-03	6.37500e+02
1697	6.39674e+02	1.69700e+03	-4.42734e-03	6.38500e+02
1699	6.40697e+02	1.69900e+03	-4.40750e-03	6.39500e+02
1701	6.41704e+02	1.70100e+03	-4.37026e-03	6.40500e+02
1703	6.42716e+02	1.70300e+03	-4.34377e-03	6.41500e+02
1705	6.43704e+02	1.70500e+03	-4.34398e-03	6.42500e+02
1707	6.44718e+02	1.70700e+03	-4.37481e-03	6.43500e+02
1709	6.45722e+02	1.70900e+03	-4.44808e-03	6.44500e+02
1711	6.46730e+02	1.71100e+03	-4.50069e-03	6.45500e+02
1713	6.47751e+02	1.71300e+03	-4.54990e-03	6.46500e+02
1715	6.48793e+02	1.71500e+03	-4.59298e-03	6.47500e+02
1717	6.49841e+02	1.71700e+03	-4.64059e-03	6.48500e+02
1719	6.50841e+02	1.71900e+03	-4.72111e-03	6.49500e+02
1721	6.51836e+02	1.72100e+03	-4.85077e-03	6.50500e+02
1723	6.52808e+02	1.72300e+03	-4.96181e-03	6.51500e+02
1725	6.53808e+02	1.72500e+03	-5.01187e-03	6.52500e+02
1727	6.54825e+02	1.72700e+03	-4.97697e-03	6.53500e+02
1729	6.55840e+02	1.72900e+03	-4.78675e-03	6.54500e+02
1731	6.56852e+02	1.73100e+03	-4.61647e-03	6.55500e+02
1733	6.57901e+02	1.73300e+03	-4.43733e-03	6.56500e+02
1735	6.58922e+02	1.73500e+03	-4.33332e-03	6.57500e+02
1737	6.59946e+02	1.73700e+03	-4.34845e-03	6.58500e+02
1739	6.60917e+02	1.73900e+03	-4.38570e-03	6.59500e+02
1741	6.61901e+02	1.74100e+03	-4.53365e-03	6.60500e+02
1743	6.62920e+02	1.74300e+03	-4.67865e-03	6.61500e+02
1745	6.63926e+02	1.74500e+03	-4.83572e-03	6.62500e+02
1747	6.64920e+02	1.74700e+03	-4.94652e-03	6.63500e+02
1749	6.65896e+02	1.74900e+03	-4.99986e-03	6.64500e+02
1751	6.66879e+02	1.75100e+03	-5.04743e-03	6.65500e+02
1753	6.67879e+02	1.75300e+03	-5.02437e-03	6.66500e+02
1755	6.68875e+02	1.75500e+03	-4.97909e-03	6.67500e+02
1757	6.69878e+02	1.75700e+03	-4.89032e-03	6.68500e+02
1759	6.70880e+02	1.75900e+03	-4.83881e-03	6.69500e+02
1761	6.71883e+02	1.76100e+03	-4.82346e-03	6.70500e+02
1763	6.72892e+02	1.76300e+03	-4.81797e-03	6.71500e+02
1765	6.73877e+02	1.76500e+03	-4.86672e-03	6.72500e+02
1767	6.74867e+02	1.76700e+03	-4.92380e-03	6.73500e+02
1769	6.75862e+02	1.76900e+03	-4.98963e-03	6.74500e+02
1771	6.76857e+02	1.77100e+03	-5.03278e-03	6.75500e+02
1773	6.77866e+02	1.77300e+03	-5.07281e-03	6.76500e+02
1775	6.78839e+02	1.77500e+03	-5.13569e-03	6.77500e+02
1777	6.79820e+02	1.77700e+03	-5.20175e-03	6.78500e+02
1779	6.80801e+02	1.77900e+03	-5.23962e-03	6.79500e+02
1781	6.81771e+02	1.78100e+03	-5.25258e-03	6.80500e+02
1783	6.82748e+02	1.78300e+03	-5.29011e-03	6.81500e+02
1785	6.83732e+02	1.78500e+03	-5.36660e-03	6.82500e+02
1787	6.84723e+02	1.78700e+03	-5.45725e-03	6.83500e+02
1789	6.85705e+02	1.78900e+03	-5.56205e-03	6.84500e+02
1791	6.86694e+02	1.79100e+03	-5.60769e-03	6.85500e+02
1793	6.87669e+02	1.79300e+03	-5.53369e-03	6.86500e+02
1795	6.88369e+02	1.79500e+03	-5.42471e-03	6.87500e+02
1797	6.88859e+02	1.79700e+03	-5.24300e-03	6.88500e+02
1799	6.89593e+02	1.79900e+03	-5.12115e-03	6.89500e+02
1801	6.90307e+02	1.80100e+03	-5.05359e-03	6.90500e+02
1803	6.90958e+02	1.80300e+03	-5.00843e-03	6.91500e+02
1805	6.91575e+02	1.80500e+03	-5.03594e-03	6.92500e+02
1807	6.92150e+02	1.80700e+03	-5.08493e-03	6.93500e+02
1809	6.92688e+02	1.80900e+03	-5.19313e-03	6.94500e+02
1811	6.93206e+02	1.81100e+03	-5.27846e-03	6.95500e+02
1813	6.93680e+02	1.81300e+03	-5.35097e-03	6.96500e+02
1815	6.94119e+02	1.81500e+03	-5.39825e-03	6.97500e+02
1817	6.94554e+02	1.81700e+03	-5.40434e-03	6.98500e+02
1819	6.94962e+02	1.81900e+03	-5.40735e-03	6.99500e+02
1820	6.95150e+02	1.82000e+03	-5.39660e-03	7.00000e+02