File: Experiments/TUBS/tga_nonisotherm/tga_dynamic_n2_dyn5_powder_2mg_r3.txt
index	ts	t	weight	tr
[#]	[°C]	[s]	[mg]	[°C]
1083	1.31320e+02	1.08300e+03	2.04515e+00	1.30250e+02
1091	1.31994e+02	1.09100e+03	2.04506e+00	1.30917e+02
1099	1.32650e+02	1.09900e+03	2.04482e+00	1.31583e+02
1107	1.33347e+02	1.10700e+03	2.04478e+00	1.32250e+02
1115	1.34018e+02	1.11500e+03	2.04454e+00	1.32917e+02
1123	1.34692e+02	1.12300e+03	2.04443e+00	1.33583e+02
1131	1.35369e+02	1.13100e+03	2.04433e+00	1.34250e+02
1139	1.36036e+02	1.13900e+03	2.04416e+00	1.34917e+02
1147	1.36715e+02	1.14700e+03	2.04402e+00	1.35583e+02
1155	1.37379e+02	1.15500e+03	2.04391e+00	1.36250e+02
1163	1.38052e+02	1.16300e+03	2.04371e+00	1.36917e+02
1171	1.38732e+02	1.17100e+03	2.04355e+00	1.37583e+02
1179	1.39399e+02	1.17900e+03	2.04346e+00	1.38250e+02
1187	1.40084e+02	1.18700e+03	2.04321e+00	1.38917e+02
1195	1.40772e+02	1.19500e+03	2.04292e+00	1.39583e+02
1203	1.41438e+02	1.20300e+03	2.04268e+00	1.40250e+02
1211	1.42113e+02	1.21100e+03	2.04252e+00	1.40917e+02
1219	1.42777e+02	1.21900e+03	2.04225e+00	1.41583e+02
1227	1.43471e+02	1.22700e+03	2.04197e+00	1.42250e+02
1235	1.44133e+02	1.23500e+03	2.04159e+00	1.42917e+02
1243	1.44804e+02	1.24300e+03	2.04146e+00	1.43583e+02
1251	1.45485e+02	1.25100e+03	2.04117e+00	1.44250e+02
1259	1.46151e+02	1.25900e+03	2.04091e+00	1.44917e+02
1267	1.46820e+02	1.26700e+03	2.04055e+00	1.45583e+02
1275	1.47503e+02	1.27500e+03	2.04028e+00	1.46250e+02
1283	1.48182e+02	1.28300e+03	2.04000e+00	1.46917e+02
1291	1.48843e+02	1.29100e+03	2.03967e+00	1.47583e+02
1299	1.49532e+02	1.29900e+03	2.03934e+00	1.48250e+02
1307	1.50207e+02	1.30700e+03	2.03884e+00	1.48917e+02
1315	1.50884e+02	1.31500e+03	2.03855e+00	1.49583e+02
1323	1.51545e+02	1.32300e+03	2.03826e+00	1.50250e+02
1331	1.52227e+02	1.33100e+03	2.03782e+00	1.50917e+02
1339	1.52904e+02	1.33900e+03	2.03735e+00	1.51583e+02
1347	1.53587e+02	1.34700e+03	2.03697e+00	1.52250e+02
1355	1.54245e+02	1.35500e+03	2.03654e+00	1.52917e+02
1363	1.54919e+02	1.36300e+03	2.03606e+00	1.53583e+02
1371	1.55601e+02	1.37100e+03	2.03560e+00	1.54250e+02
1379	1.56276e+02	1.37900e+03	2.03512e+00	1.54917e+02
1387	1.56944e+02	1.38700e+03	2.03450e+00	1.55583e+02
1395	1.57614e+02	1.39500e+03	2.03384e+00	1.56250e+02
1403	1.58290e+02	1.40300e+03	2.03327e+00	1.56917e+02
1411	1.58968e+02	1.41100e+03	2.03273e+00	1.57583e+02
1419	1.59643e+02	1.41900e+03	2.03207e+00	1.58250e+02
1427	1.60312e+02	1.42700e+03	2.03137e+00	1.58917e+02
1435	1.61000e+02	1.43500e+03	2.03055e+00	1.59583e+02
1443	1.61664e+02	1.44300e+03	2.02962e+00	1.60250e+02
1451	1.62336e+02	1.45100e+03	2.02859e+00	1.60917e+02
1459	1.63012e+02	1.45900e+03	2.02745e+00	1.61583e+02
1467	1.63681e+02	1.46700e+03	2.02634e+00	1.62250e+02
1475	1.64362e+02	1.47500e+03	2.02530e+00	1.62917e+02
1483	1.65028e+02	1.48300e+03	2.02403e+00	1.63583e+02
1491	1.65698e+02	1.49100e+03	2.02261e+00	1.64250e+02
1499	1.66372e+02	1.49900e+03	2.02116e+00	1.64917e+02
1507	1.67052e+02	1.50700e+03	2.01969e+00	1.65583e+02
1515	1.67725e+02	1.51500e+03	2.01808e+00	1.66250e+02
1523	1.68402e+02	1.52300e+03	2.01640e+00	1.66917e+02
1531	1.69075e+02	1.53100e+03	2.01467e+00	1.67583e+02
1539	1.69734e+02	1.53900e+03	2.01294e+00	1.68250e+02
1547	1.70425e+02	1.54700e+03	2.01102e+00	1.68917e+02
1555	1.71093e+02	1.55500e+03	2.00913e+00	1.69583e+02
1563	1.71767e+02	1.56300e+03	2.00713e+00	1.70250e+02
1571	1.72426e+02	1.57100e+03	2.00512e+00	1.70917e+02
1579	1.73100e+02	1.57900e+03	2.00314e+00	1.71583e+02
1587	1.73792e+02	1.58700e+03	2.00108e+00	1.72250e+02
1595	1.74458e+02	1.59500e+03	1.99882e+00	1.72917e+02
1603	1.75118e+02	1.60300e+03	1.99670e+00	1.73583e+02
1611	1.75790e+02	1.61100e+03	1.99449e+00	1.74250e+02
1619	1.76471e+02	1.61900e+03	1.99236e+00	1.74917e+02
1627	1.77140e+02	1.62700e+03	1.99038e+00	1.75583e+02
1635	1.77810e+02	1.63500e+03	1.98843e+00	1.76250e+02
1643	1.78481e+02	1.64300e+03	1.98644e+00	1.76917e+02
1651	1.79166e+02	1.65100e+03	1.98445e+00	1.77583e+02
1659	1.79829e+02	1.65900e+03	1.98249e+00	1.78250e+02
1667	1.80521e+02	1.66700e+03	1.98057e+00	1.78917e+02
1675	1.81182e+02	1.67500e+03	1.97885e+00	1.79583e+02
1683	1.81868e+02	1.68300e+03	1.97715e+00	1.80250e+02
1691	1.82534e+02	1.69100e+03	1.97553e+00	1.80917e+02
1699	1.83211e+02	1.69900e+03	1.97392e+00	1.81583e+02
1707	1.83895e+02	1.70700e+03	1.97235e+00	1.82250e+02
1715	1.84572e+02	1.71500e+03	1.97093e+00	1.82917e+02
1723	1.85248e+02	1.72300e+03	1.96969e+00	1.83583e+02
1731	1.85904e+02	1.73100e+03	1.96843e+00	1.84250e+02
1739	1.86583e+02	1.73900e+03	1.96723e+00	1.84917e+02
1747	1.87272e+02	1.74700e+03	1.96626e+00	1.85583e+02
1755	1.87940e+02	1.75500e+03	1.96540e+00	1.86250e+02
1763	1.88610e+02	1.76300e+03	1.96456e+00	1.86917e+02
1771	1.89279e+02	1.77100e+03	1.96376e+00	1.87583e+02
1779	1.89962e+02	1.77900e+03	1.96297e+00	1.88250e+02
1787	1.90640e+02	1.78700e+03	1.96219e+00	1.88917e+02
1795	1.91321e+02	1.79500e+03	1.96153e+00	1.89583e+02
1803	1.91989e+02	1.80300e+03	1.96118e+00	1.90250e+02
1811	1.92652e+02	1.81100e+03	1.96063e+00	1.90917e+02
1819	1.93329e+02	1.81900e+03	1.96016e+00	1.91583e+02
1827	1.93991e+02	1.82700e+03	1.95969e+00	1.92250e+02
1835	1.94669e+02	1.83500e+03	1.95923e+00	1.92917e+02
1843	1.95344e+02	1.84300e+03	1.95883e+00	1.93583e+02
1851	1.96019e+02	1.85100e+03	1.95852e+00	1.94250e+02
1859	1.96665e+02	1.85900e+03	1.95815e+00	1.94917e+02
1867	1.97339e+02	1.86700e+03	1.95782e+00	1.95583e+02
1875	1.98008e+02	1.87500e+03	1.95743e+00	1.96250e+02
1883	1.98672e+02	1.88300e+03	1.95703e+00	1.96917e+02
1891	1.99342e+02	1.89100e+03	1.95672e+00	1.97583e+02
1899	2.00005e+02	1.89900e+03	1.95632e+00	1.98250e+02
1907	2.00665e+02	1.90700e+03	1.95599e+00	1.98917e+02
1915	2.01338e+02	1.91500e+03	1.95563e+00	1.99583e+02
1923	2.01998e+02	1.92300e+03	1.95546e+00	2.00250e+02
1931	2.02673e+02	1.93100e+03	1.95516e+00	2.00917e+02
1939	2.03331e+02	1.93900e+03	1.95485e+00	2.01583e+02
1947	2.03998e+02	1.94700e+03	1.95458e+00	2.02250e+02
1955	2.04679e+02	1.95500e+03	1.95432e+00	2.02917e+02
1963	2.05336e+02	1.96300e+03	1.95397e+00	2.03583e+02
1971	2.05998e+02	1.97100e+03	1.95375e+00	2.04250e+02
1979	2.06675e+02	1.97900e+03	1.95343e+00	2.04917e+02
1987	2.07339e+02	1.98700e+03	1.95302e+00	2.05583e+02
1995	2.07995e+02	1.99500e+03	1.95270e+00	2.06250e+02
2003	2.08664e+02	2.00300e+03	1.95242e+00	2.06917e+02
2011	2.09333e+02	2.01100e+03	1.95215e+00	2.07583e+02
2019	2.10003e+02	2.01900e+03	1.95200e+00	2.08250e+02
2027	2.10669e+02	2.02700e+03	1.95186e+00	2.08917e+02
2035	2.11342e+02	2.03500e+03	1.95173e+00	2.09583e+02
2043	2.12014e+02	2.04300e+03	1.95147e+00	2.10250e+02
2051	2.12683e+02	2.05100e+03	1.95123e+00	2.10917e+02
2059	2.13350e+02	2.05900e+03	1.95104e+00	2.11583e+02
2067	2.14010e+02	2.06700e+03	1.95086e+00	2.12250e+02
2075	2.14666e+02	2.07500e+03	1.95060e+00	2.12917e+02
2083	2.15354e+02	2.08300e+03	1.95037e+00	2.13583e+02
2091	2.16000e+02	2.09100e+03	1.95017e+00	2.14250e+02
2099	2.16676e+02	2.09900e+03	1.94999e+00	2.14917e+02
2107	2.17343e+02	2.10700e+03	1.94985e+00	2.15583e+02
2115	2.18003e+02	2.11500e+03	1.94982e+00	2.16250e+02
2123	2.18667e+02	2.12300e+03	1.94962e+00	2.16917e+02
2131	2.19336e+02	2.13100e+03	1.94946e+00	2.17583e+02
2139	2.20017e+02	2.13900e+03	1.94933e+00	2.18250e+02
2147	2.20686e+02	2.14700e+03	1.94916e+00	2.18917e+02
2155	2.21356e+02	2.15500e+03	1.94907e+00	2.19583e+02
2163	2.22029e+02	2.16300e+03	1.94899e+00	2.20250e+02
2171	2.22690e+02	2.17100e+03	1.94873e+00	2.20917e+02
2179	2.23358e+02	2.17900e+03	1.94862e+00	2.21583e+02
2187	2.24018e+02	2.18700e+03	1.94853e+00	2.22250e+02
2195	2.24693e+02	2.19500e+03	1.94836e+00	2.22917e+02
2203	2.25353e+02	2.20300e+03	1.94833e+00	2.23583e+02
2211	2.26016e+02	2.21100e+03	1.94825e+00	2.24250e+02
2219	2.26681e+02	2.21900e+03	1.94813e+00	2.24917e+02
2227	2.27360e+02	2.22700e+03	1.94807e+00	2.25583e+02
2235	2.28020e+02	2.23500e+03	1.94794e+00	2.26250e+02
2243	2.28680e+02	2.24300e+03	1.94787e+00	2.26917e+02
2251	2.29350e+02	2.25100e+03	1.94766e+00	2.27583e+02
2259	2.30018e+02	2.25900e+03	1.94754e+00	2.28250e+02
2267	2.30689e+02	2.26700e+03	1.94740e+00	2.28917e+02
2275	2.31358e+02	2.27500e+03	1.94726e+00	2.29583e+02
2283	2.32018e+02	2.28300e+03	1.94719e+00	2.30250e+02
2291	2.32677e+02	2.29100e+03	1.94709e+00	2.30917e+02
2299	2.33352e+02	2.29900e+03	1.94697e+00	2.31583e+02
2307	2.34020e+02	2.30700e+03	1.94682e+00	2.32250e+02
2315	2.34677e+02	2.31500e+03	1.94667e+00	2.32917e+02
2323	2.35353e+02	2.32300e+03	1.94660e+00	2.33583e+02
2331	2.36004e+02	2.33100e+03	1.94650e+00	2.34250e+02
2339	2.36670e+02	2.33900e+03	1.94628e+00	2.34917e+02
2347	2.37337e+02	2.34700e+03	1.94609e+00	2.35583e+02
2355	2.38002e+02	2.35500e+03	1.94604e+00	2.36250e+02
2363	2.38676e+02	2.36300e+03	1.94602e+00	2.36917e+02
2371	2.39332e+02	2.37100e+03	1.94592e+00	2.37583e+02
2379	2.40006e+02	2.37900e+03	1.94579e+00	2.38250e+02
2387	2.40669e+02	2.38700e+03	1.94567e+00	2.38917e+02
2395	2.41339e+02	2.39500e+03	1.94553e+00	2.39583e+02
2403	2.41983e+02	2.40300e+03	1.94531e+00	2.40250e+02
2411	2.42660e+02	2.41100e+03	1.94514e+00	2.40917e+02
2419	2.43325e+02	2.41900e+03	1.94511e+00	2.41583e+02
2427	2.43988e+02	2.42700e+03	1.94502e+00	2.42250e+02
2435	2.44660e+02	2.43500e+03	1.94474e+00	2.42917e+02
2443	2.45326e+02	2.44300e+03	1.94453e+00	2.43583e+02
2451	2.45987e+02	2.45100e+03	1.94448e+00	2.44250e+02
2459	2.46663e+02	2.45900e+03	1.94443e+00	2.44917e+02
2467	2.47327e+02	2.46700e+03	1.94426e+00	2.45583e+02
2475	2.47999e+02	2.47500e+03	1.94396e+00	2.46250e+02
2483	2.48669e+02	2.48300e+03	1.94371e+00	2.46917e+02
2491	2.49322e+02	2.49100e+03	1.94342e+00	2.47583e+02
2499	2.49997e+02	2.49900e+03	1.94326e+00	2.48250e+02
2507	2.50657e+02	2.50700e+03	1.94312e+00	2.48917e+02
2515	2.51314e+02	2.51500e+03	1.94296e+00	2.49583e+02
2523	2.51983e+02	2.52300e+03	1.94267e+00	2.50250e+02
2531	2.52642e+02	2.53100e+03	1.94238e+00	2.50917e+02
2539	2.53304e+02	2.53900e+03	1.94215e+00	2.51583e+02
2547	2.53971e+02	2.54700e+03	1.94187e+00	2.52250e+02
2555	2.54627e+02	2.55500e+03	1.94174e+00	2.52917e+02
2563	2.55289e+02	2.56300e+03	1.94149e+00	2.53583e+02
2571	2.55949e+02	2.57100e+03	1.94106e+00	2.54250e+02
2579	2.56610e+02	2.57900e+03	1.94071e+00	2.54917e+02
2587	2.57277e+02	2.58700e+03	1.94038e+00	2.55583e+02
2595	2.57931e+02	2.59500e+03	1.94015e+00	2.56250e+02
2603	2.58603e+02	2.60300e+03	1.93980e+00	2.56917e+02
2611	2.59265e+02	2.61100e+03	1.93938e+00	2.57583e+02
2619	2.59931e+02	2.61900e+03	1.93900e+00	2.58250e+02
2627	2.60608e+02	2.62700e+03	1.93867e+00	2.58917e+02
2635	2.61266e+02	2.63500e+03	1.93825e+00	2.59583e+02
2643	2.61935e+02	2.64300e+03	1.93798e+00	2.60250e+02
2651	2.62597e+02	2.65100e+03	1.93764e+00	2.60917e+02
2659	2.63254e+02	2.65900e+03	1.93708e+00	2.61583e+02
2667	2.63922e+02	2.66700e+03	1.93657e+00	2.62250e+02
2675	2.64606e+02	2.67500e+03	1.93616e+00	2.62917e+02
2683	2.65273e+02	2.68300e+03	1.93570e+00	2.63583e+02
2691	2.65955e+02	2.69100e+03	1.93516e+00	2.64250e+02
2699	2.66606e+02	2.69900e+03	1.93451e+00	2.64917e+02
2707	2.67274e+02	2.70700e+03	1.93394e+00	2.65583e+02
2715	2.67949e+02	2.71500e+03	1.93324e+00	2.66250e+02
2723	2.68598e+02	2.72300e+03	1.93257e+00	2.66917e+02
2731	2.69282e+02	2.73100e+03	1.93180e+00	2.67583e+02
2739	2.69952e+02	2.73900e+03	1.93108e+00	2.68250e+02
2747	2.70620e+02	2.74700e+03	1.93035e+00	2.68917e+02
2755	2.71298e+02	2.75500e+03	1.92964e+00	2.69583e+02
2763	2.71953e+02	2.76300e+03	1.92878e+00	2.70250e+02
2771	2.72635e+02	2.77100e+03	1.92794e+00	2.70917e+02
2779	2.73301e+02	2.77900e+03	1.92696e+00	2.71583e+02
2787	2.73983e+02	2.78700e+03	1.92604e+00	2.72250e+02
2795	2.74639e+02	2.79500e+03	1.92510e+00	2.72917e+02
2803	2.75314e+02	2.80300e+03	1.92413e+00	2.73583e+02
2811	2.75988e+02	2.81100e+03	1.92309e+00	2.74250e+02
2819	2.76654e+02	2.81900e+03	1.92193e+00	2.74917e+02
2827	2.77325e+02	2.82700e+03	1.92080e+00	2.75583e+02
2835	2.77996e+02	2.83500e+03	1.91955e+00	2.76250e+02
2843	2.78678e+02	2.84300e+03	1.91823e+00	2.76917e+02
2851	2.79341e+02	2.85100e+03	1.91691e+00	2.77583e+02
2859	2.80007e+02	2.85900e+03	1.91549e+00	2.78250e+02
2867	2.80674e+02	2.86700e+03	1.91402e+00	2.78917e+02
2875	2.81359e+02	2.87500e+03	1.91252e+00	2.79583e+02
2883	2.82015e+02	2.88300e+03	1.91095e+00	2.80250e+02
2891	2.82706e+02	2.89100e+03	1.90939e+00	2.80917e+02
2899	2.83364e+02	2.89900e+03	1.90776e+00	2.81583e+02
2907	2.84040e+02	2.90700e+03	1.90617e+00	2.82250e+02
2915	2.84703e+02	2.91500e+03	1.90445e+00	2.82917e+02
2923	2.85371e+02	2.92300e+03	1.90263e+00	2.83583e+02
2931	2.86027e+02	2.93100e+03	1.90075e+00	2.84250e+02
2939	2.86690e+02	2.93900e+03	1.89888e+00	2.84917e+02
2947	2.87357e+02	2.94700e+03	1.89702e+00	2.85583e+02
2955	2.88013e+02	2.95500e+03	1.89507e+00	2.86250e+02
2963	2.88666e+02	2.96300e+03	1.89308e+00	2.86917e+02
2971	2.89343e+02	2.97100e+03	1.89117e+00	2.87583e+02
2979	2.90005e+02	2.97900e+03	1.88901e+00	2.88250e+02
2987	2.90667e+02	2.98700e+03	1.88677e+00	2.88917e+02
2995	2.91331e+02	2.99500e+03	1.88466e+00	2.89583e+02
3003	2.91995e+02	3.00300e+03	1.88244e+00	2.90250e+02
3011	2.92661e+02	3.01100e+03	1.88007e+00	2.90917e+02
3019	2.93338e+02	3.01900e+03	1.87799e+00	2.91583e+02
3027	2.93999e+02	3.02700e+03	1.87564e+00	2.92250e+02
3035	2.94660e+02	3.03500e+03	1.87331e+00	2.92917e+02
3043	2.95345e+02	3.04300e+03	1.87099e+00	2.93583e+02
3051	2.96027e+02	3.05100e+03	1.86883e+00	2.94250e+02
3059	2.96718e+02	3.05900e+03	1.86654e+00	2.94917e+02
3067	2.97414e+02	3.06700e+03	1.86427e+00	2.95583e+02
3075	2.98153e+02	3.07500e+03	1.86195e+00	2.96250e+02
3083	2.98833e+02	3.08300e+03	1.85945e+00	2.96917e+02
3091	2.99550e+02	3.09100e+03	1.85717e+00	2.97583e+02
3099	3.00303e+02	3.09900e+03	1.85487e+00	2.98250e+02
3107	3.01085e+02	3.10700e+03	1.85246e+00	2.98917e+02
3115	3.01773e+02	3.11500e+03	1.85009e+00	2.99583e+02
3123	3.02470e+02	3.12300e+03	1.84779e+00	3.00250e+02
3131	3.03150e+02	3.13100e+03	1.84529e+00	3.00917e+02
3139	3.03797e+02	3.13900e+03	1.84293e+00	3.01583e+02
3147	3.04460e+02	3.14700e+03	1.84049e+00	3.02250e+02
3155	3.05133e+02	3.15500e+03	1.83810e+00	3.02917e+02
3163	3.05814e+02	3.16300e+03	1.83558e+00	3.03583e+02
3171	3.06488e+02	3.17100e+03	1.83308e+00	3.04250e+02
3179	3.07192e+02	3.17900e+03	1.83038e+00	3.04917e+02
3187	3.07843e+02	3.18700e+03	1.82783e+00	3.05583e+02
3195	3.08516e+02	3.19500e+03	1.82512e+00	3.06250e+02
3203	3.09178e+02	3.20300e+03	1.82230e+00	3.06917e+02
3211	3.09851e+02	3.21100e+03	1.81957e+00	3.07583e+02
3219	3.10518e+02	3.21900e+03	1.81664e+00	3.08250e+02
3227	3.11180e+02	3.22700e+03	1.81357e+00	3.08917e+02
3235	3.11850e+02	3.23500e+03	1.81057e+00	3.09583e+02
3243	3.12517e+02	3.24300e+03	1.80727e+00	3.10250e+02
3251	3.13185e+02	3.25100e+03	1.80394e+00	3.10917e+02
3259	3.13857e+02	3.25900e+03	1.80060e+00	3.11583e+02
3267	3.14520e+02	3.26700e+03	1.79706e+00	3.12250e+02
3275	3.15180e+02	3.27500e+03	1.79345e+00	3.12917e+02
3283	3.15850e+02	3.28300e+03	1.78952e+00	3.13583e+02
3291	3.16499e+02	3.29100e+03	1.78532e+00	3.14250e+02
3299	3.17170e+02	3.29900e+03	1.78123e+00	3.14917e+02
3307	3.17838e+02	3.30700e+03	1.77686e+00	3.15583e+02
3315	3.18490e+02	3.31500e+03	1.77234e+00	3.16250e+02
3323	3.19161e+02	3.32300e+03	1.76763e+00	3.16917e+02
3331	3.19840e+02	3.33100e+03	1.76261e+00	3.17583e+02
3339	3.20508e+02	3.33900e+03	1.75732e+00	3.18250e+02
3347	3.21171e+02	3.34700e+03	1.75185e+00	3.18917e+02
3355	3.21846e+02	3.35500e+03	1.74614e+00	3.19583e+02
3363	3.22517e+02	3.36300e+03	1.74022e+00	3.20250e+02
3371	3.23188e+02	3.37100e+03	1.73392e+00	3.20917e+02
3379	3.23866e+02	3.37900e+03	1.72732e+00	3.21583e+02
3387	3.24524e+02	3.38700e+03	1.72052e+00	3.22250e+02
3395	3.25200e+02	3.39500e+03	1.71326e+00	3.22917e+02
3403	3.25866e+02	3.40300e+03	1.70580e+00	3.23583e+02
3411	3.26542e+02	3.41100e+03	1.69806e+00	3.24250e+02
3419	3.27255e+02	3.41900e+03	1.68990e+00	3.24917e+02
3427	3.27958e+02	3.42700e+03	1.68143e+00	3.25583e+02
3435	3.28649e+02	3.43500e+03	1.67246e+00	3.26250e+02
3443	3.29363e+02	3.44300e+03	1.66308e+00	3.26917e+02
3451	3.30135e+02	3.45100e+03	1.65324e+00	3.27583e+02
3459	3.30862e+02	3.45900e+03	1.64293e+00	3.28250e+02
3467	3.31540e+02	3.46700e+03	1.63240e+00	3.28917e+02
3475	3.32227e+02	3.47500e+03	1.62140e+00	3.29583e+02
3483	3.32856e+02	3.48300e+03	1.60994e+00	3.30250e+02
3491	3.33526e+02	3.49100e+03	1.59808e+00	3.30917e+02
3499	3.34193e+02	3.49900e+03	1.58573e+00	3.31583e+02
3507	3.34869e+02	3.50700e+03	1.57298e+00	3.32250e+02
3515	3.35567e+02	3.51500e+03	1.55965e+00	3.32917e+02
3523	3.36271e+02	3.52300e+03	1.54589e+00	3.33583e+02
3531	3.36959e+02	3.53100e+03	1.53146e+00	3.34250e+02
3539	3.37711e+02	3.53900e+03	1.51670e+00	3.34917e+02
3547	3.38383e+02	3.54700e+03	1.50154e+00	3.35583e+02
3555	3.39128e+02	3.55500e+03	1.48585e+00	3.36250e+02
3563	3.39908e+02	3.56300e+03	1.46960e+00	3.36917e+02
3571	3.40588e+02	3.57100e+03	1.45288e+00	3.37583e+02
3579	3.41251e+02	3.57900e+03	1.43573e+00	3.38250e+02
3587	3.41952e+02	3.58700e+03	1.41817e+00	3.38917e+02
3595	3.42646e+02	3.59500e+03	1.40023e+00	3.39583e+02
3603	3.43350e+02	3.60300e+03	1.38178e+00	3.40250e+02
3611	3.44047e+02	3.61100e+03	1.36277e+00	3.40917e+02
3619	3.44737e+02	3.61900e+03	1.34359e+00	3.41583e+02
3627	3.45466e+02	3.62700e+03	1.32403e+00	3.42250e+02
3635	3.46149e+02	3.63500e+03	1.30397e+00	3.42917e+02
3643	3.46815e+02	3.64300e+03	1.28365e+00	3.43583e+02
3651	3.47459e+02	3.65100e+03	1.26280e+00	3.44250e+02
3659	3.48131e+02	3.65900e+03	1.24159e+00	3.44917e+02
3667	3.48785e+02	3.66700e+03	1.22008e+00	3.45583e+02
3675	3.49466e+02	3.67500e+03	1.19819e+00	3.46250e+02
3683	3.50142e+02	3.68300e+03	1.17591e+00	3.46917e+02
3691	3.50823e+02	3.69100e+03	1.15341e+00	3.47583e+02
3699	3.51483e+02	3.69900e+03	1.13054e+00	3.48250e+02
3707	3.52154e+02	3.70700e+03	1.10751e+00	3.48917e+02
3715	3.52814e+02	3.71500e+03	1.08431e+00	3.49583e+02
3723	3.53467e+02	3.72300e+03	1.06094e+00	3.50250e+02
3731	3.54121e+02	3.73100e+03	1.03746e+00	3.50917e+02
3739	3.54813e+02	3.73900e+03	1.01380e+00	3.51583e+02
3747	3.55507e+02	3.74700e+03	9.90026e-01	3.52250e+02
3755	3.56187e+02	3.75500e+03	9.65868e-01	3.52917e+02
3763	3.56878e+02	3.76300e+03	9.41861e-01	3.53583e+02
3771	3.57555e+02	3.77100e+03	9.18074e-01	3.54250e+02
3779	3.58218e+02	3.77900e+03	8.94104e-01	3.54917e+02
3787	3.58893e+02	3.78700e+03	8.70263e-01	3.55583e+02
3795	3.59558e+02	3.79500e+03	8.46356e-01	3.56250e+02
3803	3.60224e+02	3.80300e+03	8.22006e-01	3.56917e+02
3811	3.60889e+02	3.81100e+03	7.97906e-01	3.57583e+02
3819	3.61557e+02	3.81900e+03	7.73074e-01	3.58250e+02
3827	3.62237e+02	3.82700e+03	7.48401e-01	3.58917e+02
3835	3.62896e+02	3.83500e+03	7.24092e-01	3.59583e+02
3843	3.63560e+02	3.84300e+03	7.00037e-01	3.60250e+02
3851	3.64232e+02	3.85100e+03	6.76237e-01	3.60917e+02
3859	3.64914e+02	3.85900e+03	6.52764e-01	3.61583e+02
3867	3.65607e+02	3.86700e+03	6.29221e-01	3.62250e+02
3875	3.66223e+02	3.87500e+03	6.06054e-01	3.62917e+02
3883	3.66866e+02	3.88300e+03	5.83200e-01	3.63583e+02
3891	3.67497e+02	3.89100e+03	5.60726e-01	3.64250e+02
3899	3.68177e+02	3.89900e+03	5.38576e-01	3.64917e+02
3907	3.68811e+02	3.90700e+03	5.16875e-01	3.65583e+02
3915	3.69434e+02	3.91500e+03	4.95545e-01	3.66250e+02
3923	3.70060e+02	3.92300e+03	4.74861e-01	3.66917e+02
3931	3.70689e+02	3.93100e+03	4.54511e-01	3.67583e+02
3939	3.71319e+02	3.93900e+03	4.34632e-01	3.68250e+02
3947	3.71981e+02	3.94700e+03	4.15475e-01	3.68917e+02
3955	3.72789e+02	3.95500e+03	3.96628e-01	3.69583e+02
3963	3.73449e+02	3.96300e+03	3.78488e-01	3.70250e+02
3971	3.74068e+02	3.97100e+03	3.60728e-01	3.70917e+02
3979	3.74707e+02	3.97900e+03	3.43322e-01	3.71583e+02
3987	3.75353e+02	3.98700e+03	3.26536e-01	3.72250e+02
3995	3.76000e+02	3.99500e+03	3.10396e-01	3.72917e+02
4003	3.76674e+02	4.00300e+03	2.94770e-01	3.73583e+02
4011	3.77292e+02	4.01100e+03	2.79769e-01	3.74250e+02
4019	3.77936e+02	4.01900e+03	2.65165e-01	3.74917e+02
4027	3.78571e+02	4.02700e+03	2.51082e-01	3.75583e+02
4035	3.79233e+02	4.03500e+03	2.37664e-01	3.76250e+02
4043	3.79874e+02	4.04300e+03	2.24621e-01	3.76917e+02
4051	3.80481e+02	4.05100e+03	2.12228e-01	3.77583e+02
4059	3.81096e+02	4.05900e+03	2.00197e-01	3.78250e+02
4067	3.81756e+02	4.06700e+03	1.88537e-01	3.78917e+02
4075	3.82415e+02	4.07500e+03	1.77845e-01	3.79583e+02
4083	3.83053e+02	4.08300e+03	1.67488e-01	3.80250e+02
4091	3.83703e+02	4.09100e+03	1.57423e-01	3.80917e+02
4099	3.84344e+02	4.09900e+03	1.47974e-01	3.81583e+02
4107	3.84997e+02	4.10700e+03	1.39164e-01	3.82250e+02
4115	3.85652e+02	4.11500e+03	1.30522e-01	3.82917e+02
4123	3.86295e+02	4.12300e+03	1.22294e-01	3.83583e+02
4131	3.86950e+02	4.13100e+03	1.14342e-01	3.84250e+02
4139	3.87604e+02	4.13900e+03	1.06846e-01	3.84917e+02
4147	3.88268e+02	4.14700e+03	9.98711e-02	3.85583e+02
4155	3.88919e+02	4.15500e+03	9.33135e-02	3.86250e+02
4163	3.89568e+02	4.16300e+03	8.72109e-02	3.86917e+02
4171	3.90213e+02	4.17100e+03	8.13686e-02	3.87583e+02
4179	3.90881e+02	4.17900e+03	7.57914e-02	3.88250e+02
4187	3.91535e+02	4.18700e+03	7.05745e-02	3.88917e+02
4195	3.92205e+02	4.19500e+03	6.57834e-02	3.89583e+02
4203	3.92873e+02	4.20300e+03	6.12929e-02	3.90250e+02
4211	3.93555e+02	4.21100e+03	5.69643e-02	3.90917e+02
4219	3.94239e+02	4.21900e+03	5.28354e-02	3.91583e+02
4227	3.94889e+02	4.22700e+03	4.89008e-02	3.92250e+02
4235	3.95544e+02	4.23500e+03	4.56346e-02	3.92917e+02
4243	3.96200e+02	4.24300e+03	4.24869e-02	3.93583e+02
4251	3.96854e+02	4.25100e+03	3.94455e-02	3.94250e+02
4259	3.97505e+02	4.25900e+03	3.66357e-02	3.94917e+02
4267	3.98161e+02	4.26700e+03	3.40983e-02	3.95583e+02
4275	3.98814e+02	4.27500e+03	3.17451e-02	3.96250e+02
4283	3.99449e+02	4.28300e+03	2.95397e-02	3.96917e+02
4291	4.00110e+02	4.29100e+03	2.74059e-02	3.97583e+02
4299	4.00763e+02	4.29900e+03	2.55631e-02	3.98250e+02
4307	4.01423e+02	4.30700e+03	2.37754e-02	3.98917e+02
4315	4.02095e+02	4.31500e+03	2.20544e-02	3.99583e+02
4323	4.02759e+02	4.32300e+03	2.04992e-02	4.00250e+02
4331	4.03421e+02	4.33100e+03	1.91376e-02	4.00917e+02
4339	4.04064e+02	4.33900e+03	1.78179e-02	4.01583e+02
4347	4.04703e+02	4.34700e+03	1.66086e-02	4.02250e+02
4355	4.05360e+02	4.35500e+03	1.55863e-02	4.02917e+02
4363	4.06017e+02	4.36300e+03	1.45089e-02	4.03583e+02
4371	4.06692e+02	4.37100e+03	1.35234e-02	4.04250e+02
4379	4.07355e+02	4.37900e+03	1.26425e-02	4.04917e+02
4387	4.08052e+02	4.38700e+03	1.18413e-02	4.05583e+02
4395	4.08726e+02	4.39500e+03	1.10600e-02	4.06250e+02
4403	4.09396e+02	4.40300e+03	1.03680e-02	4.06917e+02
4411	4.10046e+02	4.41100e+03	9.77151e-03	4.07583e+02
4419	4.10708e+02	4.41900e+03	9.30920e-03	4.08250e+02
4427	4.11362e+02	4.42700e+03	8.75519e-03	4.08917e+02
4435	4.12040e+02	4.43500e+03	8.27587e-03	4.09583e+02
4443	4.12726e+02	4.44300e+03	7.87511e-03	4.10250e+02
4451	4.13395e+02	4.45100e+03	7.39250e-03	4.10917e+02
4459	4.14090e+02	4.45900e+03	6.96414e-03	4.11583e+02
4467	4.14791e+02	4.46700e+03	6.71299e-03	4.12250e+02
4475	4.15472e+02	4.47500e+03	6.49974e-03	4.12917e+02
4483	4.16369e+02	4.48300e+03	6.23275e-03	4.13583e+02
4491	4.17198e+02	4.49100e+03	5.95778e-03	4.14250e+02
4499	4.18042e+02	4.49900e+03	5.83420e-03	4.14917e+02
4507	4.18657e+02	4.50700e+03	5.63203e-03	4.15583e+02
4515	4.19212e+02	4.51500e+03	5.48281e-03	4.16250e+02
4523	4.19833e+02	4.52300e+03	5.34196e-03	4.16917e+02
4531	4.20390e+02	4.53100e+03	5.19446e-03	4.17583e+02
4539	4.20957e+02	4.53900e+03	5.07454e-03	4.18250e+02
4547	4.21570e+02	4.54700e+03	4.97639e-03	4.18917e+02
4555	4.22194e+02	4.55500e+03	4.99567e-03	4.19583e+02
4563	4.22841e+02	4.56300e+03	4.88759e-03	4.20250e+02
4571	4.23478e+02	4.57100e+03	4.72083e-03	4.20917e+02
4579	4.24100e+02	4.57900e+03	4.60867e-03	4.21583e+02
4587	4.24733e+02	4.58700e+03	4.53797e-03	4.22250e+02
4595	4.25378e+02	4.59500e+03	4.55295e-03	4.22917e+02
4603	4.26021e+02	4.60300e+03	4.51746e-03	4.23583e+02
4611	4.26641e+02	4.61100e+03	4.39476e-03	4.24250e+02
4619	4.27287e+02	4.61900e+03	4.33056e-03	4.24917e+02
4627	4.27922e+02	4.62700e+03	4.38234e-03	4.25583e+02
4635	4.28520e+02	4.63500e+03	4.39548e-03	4.26250e+02
4643	4.28896e+02	4.64300e+03	4.31021e-03	4.26917e+02
4651	4.29477e+02	4.65100e+03	3.83853e-03	4.27583e+02
4659	4.30103e+02	4.65900e+03	3.87610e-03	4.28250e+02
4667	4.30741e+02	4.66700e+03	4.74958e-03	4.28917e+02
4675	4.31387e+02	4.67500e+03	4.59112e-03	4.29583e+02
4683	4.32035e+02	4.68300e+03	4.32035e-03	4.30250e+02
4691	4.32678e+02	4.69100e+03	4.37970e-03	4.30917e+02
4699	4.33340e+02	4.69900e+03	4.03547e-03	4.31583e+02
4707	4.33973e+02	4.70700e+03	4.13101e-03	4.32250e+02
4715	4.34620e+02	4.71500e+03	4.25926e-03	4.32917e+02
4723	4.35260e+02	4.72300e+03	3.62629e-03	4.33583e+02
4731	4.35912e+02	4.73100e+03	4.02012e-03	4.34250e+02
4739	4.36556e+02	4.73900e+03	4.40016e-03	4.34917e+02
4747	4.37211e+02	4.74700e+03	3.93513e-03	4.35583e+02
4755	4.37859e+02	4.75500e+03	3.88478e-03	4.36250e+02
4763	4.38509e+02	4.76300e+03	3.99599e-03	4.36917e+02
4771	4.39155e+02	4.77100e+03	4.01947e-03	4.37583e+02
4779	4.39803e+02	4.77900e+03	4.06879e-03	4.38250e+02
4787	4.40458e+02	4.78700e+03	3.95850e-03	4.38917e+02
4795	4.41110e+02	4.79500e+03	3.86146e-03	4.39583e+02
4803	4.41757e+02	4.80300e+03	3.82518e-03	4.40250e+02
4811	4.42412e+02	4.81100e+03	3.79713e-03	4.40917e+02
4819	4.43058e+02	4.81900e+03	3.34703e-03	4.41583e+02
4827	4.43717e+02	4.82700e+03	3.30778e-03	4.42250e+02
4835	4.44373e+02	4.83500e+03	3.67173e-03	4.42917e+02
4843	4.45008e+02	4.84300e+03	3.90476e-03	4.43583e+02
4851	4.45661e+02	4.85100e+03	4.06714e-03	4.44250e+02
4859	4.46308e+02	4.85900e+03	3.83239e-03	4.44917e+02
4867	4.46955e+02	4.86700e+03	3.86180e-03	4.45583e+02
4875	4.47603e+02	4.87500e+03	3.87134e-03	4.46250e+02
4883	4.48249e+02	4.88300e+03	3.79587e-03	4.46917e+02
4891	4.48890e+02	4.89100e+03	3.78705e-03	4.47583e+02
4899	4.49540e+02	4.89900e+03	3.88910e-03	4.48250e+02
4907	4.50184e+02	4.90700e+03	3.83891e-03	4.48917e+02
4915	4.50827e+02	4.91500e+03	3.80042e-03	4.49583e+02
4923	4.51484e+02	4.92300e+03	3.67074e-03	4.50250e+02
4931	4.52125e+02	4.93100e+03	3.77039e-03	4.50917e+02
4939	4.52773e+02	4.93900e+03	3.73368e-03	4.51583e+02
4947	4.53420e+02	4.94700e+03	3.67876e-03	4.52250e+02
4955	4.54061e+02	4.95500e+03	3.68221e-03	4.52917e+02
4963	4.54714e+02	4.96300e+03	3.75375e-03	4.53583e+02
4971	4.55368e+02	4.97100e+03	3.79306e-03	4.54250e+02
4979	4.56010e+02	4.97900e+03	3.74361e-03	4.54917e+02
4987	4.56669e+02	4.98700e+03	3.72251e-03	4.55583e+02
4995	4.57316e+02	4.99500e+03	3.71357e-03	4.56250e+02
5003	4.57964e+02	5.00300e+03	3.72676e-03	4.56917e+02
5011	4.58613e+02	5.01100e+03	3.83387e-03	4.57583e+02
5019	4.59273e+02	5.01900e+03	3.75690e-03	4.58250e+02
5027	4.59922e+02	5.02700e+03	3.79636e-03	4.58917e+02
5035	4.60577e+02	5.03500e+03	3.73697e-03	4.59583e+02
5043	4.61245e+02	5.04300e+03	3.74378e-03	4.60250e+02
5051	4.61903e+02	5.05100e+03	3.78370e-03	4.60917e+02
5059	4.62548e+02	5.05900e+03	3.80285e-03	4.61583e+02
5067	4.63207e+02	5.06700e+03	3.77782e-03	4.62250e+02
5075	4.63861e+02	5.07500e+03	3.73933e-03	4.62917e+02
5083	4.64527e+02	5.08300e+03	3.75137e-03	4.63583e+02
5091	4.65176e+02	5.09100e+03	3.69859e-03	4.64250e+02
5099	4.65828e+02	5.09900e+03	3.66053e-03	4.64917e+02
5107	4.66479e+02	5.10700e+03	3.65945e-03	4.65583e+02
5115	4.67136e+02	5.11500e+03	3.73388e-03	4.66250e+02
5123	4.67790e+02	5.12300e+03	3.68333e-03	4.66917e+02
5131	4.68441e+02	5.13100e+03	3.76914e-03	4.67583e+02
5139	4.69108e+02	5.13900e+03	3.76046e-03	4.68250e+02
5147	4.69765e+02	5.14700e+03	3.66616e-03	4.68917e+02
5155	4.70419e+02	5.15500e+03	3.58792e-03	4.69583e+02
5163	4.71068e+02	5.16300e+03	3.65086e-03	4.70250e+02
5171	4.71733e+02	5.17100e+03	3.66581e-03	4.70917e+02
5179	4.72395e+02	5.17900e+03	3.72878e-03	4.71583e+02
5187	4.73046e+02	5.18700e+03	3.68777e-03	4.72250e+02
5195	4.73709e+02	5.19500e+03	3.73815e-03	4.72917e+02
5203	4.74363e+02	5.20300e+03	3.81958e-03	4.73583e+02
5211	4.75012e+02	5.21100e+03	3.82156e-03	4.74250e+02
5219	4.75664e+02	5.21900e+03	3.78033e-03	4.74917e+02
5227	4.76320e+02	5.22700e+03	3.72606e-03	4.75583e+02
5235	4.76986e+02	5.23500e+03	3.74305e-03	4.76250e+02
5243	4.77637e+02	5.24300e+03	3.90505e-03	4.76917e+02
5251	4.78293e+02	5.25100e+03	3.79654e-03	4.77583e+02
5259	4.78954e+02	5.25900e+03	3.70096e-03	4.78250e+02
5267	4.79611e+02	5.26700e+03	3.66119e-03	4.78917e+02
5275	4.80269e+02	5.27500e+03	3.72871e-03	4.79583e+02
5283	4.80927e+02	5.28300e+03	3.62480e-03	4.80250e+02
5291	4.81585e+02	5.29100e+03	3.60083e-03	4.80917e+02
5299	4.82237e+02	5.29900e+03	3.57028e-03	4.81583e+02
5307	4.82887e+02	5.30700e+03	3.60882e-03	4.82250e+02
5315	4.83546e+02	5.31500e+03	3.78678e-03	4.82917e+02
5323	4.84209e+02	5.32300e+03	3.85555e-03	4.83583e+02
5331	4.84867e+02	5.33100e+03	3.76038e-03	4.84250e+02
5339	4.85515e+02	5.33900e+03	3.68411e-03	4.84917e+02
5347	4.86174e+02	5.34700e+03	3.77327e-03	4.85583e+02
5355	4.86843e+02	5.35500e+03	3.82706e-03	4.86250e+02
5363	4.87498e+02	5.36300e+03	3.76141e-03	4.86917e+02
5371	4.88166e+02	5.37100e+03	3.72632e-03	4.87583e+02
5379	4.88826e+02	5.37900e+03	3.74994e-03	4.88250e+02
5387	4.89468e+02	5.38700e+03	3.73061e-03	4.88917e+02
5395	4.90137e+02	5.39500e+03	3.74845e-03	4.89583e+02
5403	4.90808e+02	5.40300e+03	3.79929e-03	4.90250e+02
5411	4.91459e+02	5.41100e+03	3.80390e-03	4.90917e+02
5419	4.92128e+02	5.41900e+03	3.75121e-03	4.91583e+02
5427	4.92792e+02	5.42700e+03	3.77533e-03	4.92250e+02
5435	4.93449e+02	5.43500e+03	3.79099e-03	4.92917e+02
5443	4.94110e+02	5.44300e+03	3.71106e-03	4.93583e+02
5451	4.94765e+02	5.45100e+03	3.70788e-03	4.94250e+02
5459	4.95432e+02	5.45900e+03	3.71588e-03	4.94917e+02
5467	4.96088e+02	5.46700e+03	3.70057e-03	4.95583e+02
5475	4.96754e+02	5.47500e+03	3.73653e-03	4.96250e+02
5483	4.97412e+02	5.48300e+03	3.65688e-03	4.96917e+02
5491	4.98078e+02	5.49100e+03	3.67037e-03	4.97583e+02
5499	4.98738e+02	5.49900e+03	3.75714e-03	4.98250e+02
5507	4.99399e+02	5.50700e+03	3.78960e-03	4.98917e+02
5515	5.00068e+02	5.51500e+03	3.72268e-03	4.99583e+02
5523	5.00730e+02	5.52300e+03	3.61877e-03	5.00250e+02
5531	5.01402e+02	5.53100e+03	3.69328e-03	5.00917e+02
5539	5.02056e+02	5.53900e+03	3.78318e-03	5.01583e+02
5547	5.02734e+02	5.54700e+03	3.71740e-03	5.02250e+02
5555	5.03389e+02	5.55500e+03	3.71508e-03	5.02917e+02
5563	5.04058e+02	5.56300e+03	3.71552e-03	5.03583e+02
5571	5.04733e+02	5.57100e+03	3.72159e-03	5.04250e+02
5579	5.05388e+02	5.57900e+03	3.72655e-03	5.04917e+02
5587	5.06049e+02	5.58700e+03	3.81219e-03	5.05583e+02
5595	5.06734e+02	5.59500e+03	3.80345e-03	5.06250e+02
5603	5.07387e+02	5.60300e+03	3.82286e-03	5.06917e+02
5611	5.08050e+02	5.61100e+03	3.86565e-03	5.07583e+02
5619	5.08706e+02	5.61900e+03	3.76622e-03	5.08250e+02
5627	5.09360e+02	5.62700e+03	3.80726e-03	5.08917e+02
5635	5.10030e+02	5.63500e+03	3.84584e-03	5.09583e+02
5643	5.10694e+02	5.64300e+03	3.81686e-03	5.10250e+02
5651	5.11359e+02	5.65100e+03	3.93467e-03	5.10917e+02
5659	5.12008e+02	5.65900e+03	3.91884e-03	5.11583e+02
5667	5.12674e+02	5.66700e+03	3.89216e-03	5.12250e+02
5675	5.13341e+02	5.67500e+03	3.84655e-03	5.12917e+02
5683	5.14011e+02	5.68300e+03	3.81872e-03	5.13583e+02
5691	5.14672e+02	5.69100e+03	3.91517e-03	5.14250e+02
5699	5.15336e+02	5.69900e+03	3.97836e-03	5.14917e+02
5707	5.16004e+02	5.70700e+03	3.95556e-03	5.15583e+02
5715	5.16662e+02	5.71500e+03	3.96928e-03	5.16250e+02
5723	5.17325e+02	5.72300e+03	3.97348e-03	5.16917e+02
5731	5.17986e+02	5.73100e+03	3.98753e-03	5.17583e+02
5739	5.18655e+02	5.73900e+03	3.93760e-03	5.18250e+02
5747	5.19325e+02	5.74700e+03	3.89671e-03	5.18917e+02
5755	5.19995e+02	5.75500e+03	3.89589e-03	5.19583e+02
5763	5.20650e+02	5.76300e+03	3.92318e-03	5.20250e+02
5771	5.21310e+02	5.77100e+03	3.97161e-03	5.20917e+02
5779	5.21983e+02	5.77900e+03	3.95674e-03	5.21583e+02
5787	5.22648e+02	5.78700e+03	3.95571e-03	5.22250e+02
5795	5.23311e+02	5.79500e+03	3.87577e-03	5.22917e+02
5803	5.23964e+02	5.80300e+03	3.88198e-03	5.23583e+02
5811	5.24626e+02	5.81100e+03	3.87449e-03	5.24250e+02
5819	5.25301e+02	5.81900e+03	3.89907e-03	5.24917e+02
5827	5.25970e+02	5.82700e+03	3.99263e-03	5.25583e+02
5835	5.26640e+02	5.83500e+03	3.94435e-03	5.26250e+02
5843	5.27317e+02	5.84300e+03	3.91976e-03	5.26917e+02
5851	5.27995e+02	5.85100e+03	3.91384e-03	5.27583e+02
5859	5.28657e+02	5.85900e+03	3.94654e-03	5.28250e+02
5867	5.29334e+02	5.86700e+03	3.97919e-03	5.28917e+02
5875	5.30004e+02	5.87500e+03	3.92899e-03	5.29583e+02
5883	5.30676e+02	5.88300e+03	3.96036e-03	5.30250e+02
5891	5.31345e+02	5.89100e+03	4.07507e-03	5.30917e+02
5899	5.32005e+02	5.89900e+03	4.12971e-03	5.31583e+02
5907	5.32669e+02	5.90700e+03	4.08878e-03	5.32250e+02
5915	5.33314e+02	5.91500e+03	4.08419e-03	5.32917e+02
5923	5.33985e+02	5.92300e+03	4.12578e-03	5.33583e+02
5931	5.34644e+02	5.93100e+03	4.14562e-03	5.34250e+02
5939	5.35314e+02	5.93900e+03	4.10654e-03	5.34917e+02
5947	5.35969e+02	5.94700e+03	4.00517e-03	5.35583e+02
5955	5.36632e+02	5.95500e+03	4.01139e-03	5.36250e+02
5963	5.37285e+02	5.96300e+03	4.01200e-03	5.36917e+02
5971	5.37956e+02	5.97100e+03	4.06934e-03	5.37583e+02
5979	5.38622e+02	5.97900e+03	4.17243e-03	5.38250e+02
5987	5.39287e+02	5.98700e+03	4.14398e-03	5.38917e+02
5995	5.39942e+02	5.99500e+03	4.13410e-03	5.39583e+02
6003	5.40612e+02	6.00300e+03	4.08177e-03	5.40250e+02
6011	5.41285e+02	6.01100e+03	4.04536e-03	5.40917e+02
6019	5.41951e+02	6.01900e+03	4.14573e-03	5.41583e+02
6027	5.42613e+02	6.02700e+03	4.13277e-03	5.42250e+02
6035	5.43287e+02	6.03500e+03	4.04912e-03	5.42917e+02
6043	5.43941e+02	6.04300e+03	4.01613e-03	5.43583e+02
6051	5.44613e+02	6.05100e+03	4.03091e-03	5.44250e+02
6059	5.45289e+02	6.05900e+03	4.00877e-03	5.44917e+02
6067	5.45964e+02	6.06700e+03	4.11301e-03	5.45583e+02
6075	5.46637e+02	6.07500e+03	4.09112e-03	5.46250e+02
6083	5.47304e+02	6.08300e+03	4.09640e-03	5.46917e+02
6091	5.47968e+02	6.09100e+03	4.24014e-03	5.47583e+02
6099	5.48638e+02	6.09900e+03	4.24556e-03	5.48250e+02
6107	5.49314e+02	6.10700e+03	4.19177e-03	5.48917e+02
6115	5.49987e+02	6.11500e+03	4.21013e-03	5.49583e+02
6123	5.50667e+02	6.12300e+03	4.23822e-03	5.50250e+02
6131	5.51344e+02	6.13100e+03	4.24915e-03	5.50917e+02
6139	5.52019e+02	6.13900e+03	4.15259e-03	5.51583e+02
6147	5.52701e+02	6.14700e+03	4.08484e-03	5.52250e+02
6155	5.53369e+02	6.15500e+03	4.05647e-03	5.52917e+02
6163	5.54035e+02	6.16300e+03	4.14557e-03	5.53583e+02
6171	5.54708e+02	6.17100e+03	4.19605e-03	5.54250e+02
6179	5.55385e+02	6.17900e+03	4.18879e-03	5.54917e+02
6187	5.56047e+02	6.18700e+03	4.18928e-03	5.55583e+02
6195	5.56717e+02	6.19500e+03	4.14297e-03	5.56250e+02
6203	5.57390e+02	6.20300e+03	4.14656e-03	5.56917e+02
6211	5.58057e+02	6.21100e+03	4.18155e-03	5.57583e+02
6219	5.58732e+02	6.21900e+03	4.20397e-03	5.58250e+02
6227	5.59419e+02	6.22700e+03	4.24770e-03	5.58917e+02
6235	5.60076e+02	6.23500e+03	4.19419e-03	5.59583e+02
6243	5.60754e+02	6.24300e+03	4.03969e-03	5.60250e+02
6251	5.61431e+02	6.25100e+03	4.13621e-03	5.60917e+02
6259	5.62110e+02	6.25900e+03	4.20685e-03	5.61583e+02
6267	5.62788e+02	6.26700e+03	4.28135e-03	5.62250e+02
6275	5.63473e+02	6.27500e+03	4.29957e-03	5.62917e+02
6283	5.64150e+02	6.28300e+03	4.20484e-03	5.63583e+02
6291	5.64823e+02	6.29100e+03	4.17469e-03	5.64250e+02
6299	5.65495e+02	6.29900e+03	4.24108e-03	5.64917e+02
6307	5.66161e+02	6.30700e+03	4.24034e-03	5.65583e+02
6315	5.66823e+02	6.31500e+03	4.13226e-03	5.66250e+02
6323	5.67496e+02	6.32300e+03	4.08654e-03	5.66917e+02
6331	5.68170e+02	6.33100e+03	4.09668e-03	5.67583e+02
6339	5.68841e+02	6.33900e+03	4.06861e-03	5.68250e+02
6347	5.69512e+02	6.34700e+03	4.06919e-03	5.68917e+02
6355	5.70192e+02	6.35500e+03	4.10715e-03	5.69583e+02
6363	5.70864e+02	6.36300e+03	4.02613e-03	5.70250e+02
6371	5.71523e+02	6.37100e+03	4.01382e-03	5.70917e+02
6379	5.72198e+02	6.37900e+03	3.96429e-03	5.71583e+02
6387	5.72884e+02	6.38700e+03	4.08552e-03	5.72250e+02
6395	5.73568e+02	6.39500e+03	4.10019e-03	5.72917e+02
6403	5.74234e+02	6.40300e+03	4.12392e-03	5.73583e+02
6411	5.74909e+02	6.41100e+03	4.13638e-03	5.74250e+02
6419	5.75596e+02	6.41900e+03	4.11572e-03	5.74917e+02
6427	5.76282e+02	6.42700e+03	4.10743e-03	5.75583e+02
6435	5.76951e+02	6.43500e+03	4.14097e-03	5.76250e+02
6443	5.77602e+02	6.44300e+03	4.17360e-03	5.76917e+02
6451	5.78277e+02	6.45100e+03	4.13084e-03	5.77583e+02
6459	5.78967e+02	6.45900e+03	4.13893e-03	5.78250e+02
6467	5.79638e+02	6.46700e+03	4.14998e-03	5.78917e+02
6475	5.80319e+02	6.47500e+03	4.09829e-03	5.79583e+02
6483	5.80987e+02	6.48300e+03	4.21454e-03	5.80250e+02
6491	5.81647e+02	6.49100e+03	4.31024e-03	5.80917e+02
6499	5.82302e+02	6.49900e+03	4.33407e-03	5.81583e+02
6507	5.82960e+02	6.50700e+03	4.29210e-03	5.82250e+02
6515	5.83623e+02	6.51500e+03	4.19027e-03	5.82917e+02
6523	5.84271e+02	6.52300e+03	4.24758e-03	5.83583e+02
6531	5.84934e+02	6.53100e+03	4.31048e-03	5.84250e+02
6539	5.85598e+02	6.53900e+03	4.30507e-03	5.84917e+02
6547	5.86260e+02	6.54700e+03	4.30703e-03	5.85583e+02
6555	5.86920e+02	6.55500e+03	4.29005e-03	5.86250e+02
6563	5.87587e+02	6.56300e+03	4.33255e-03	5.86917e+02
6571	5.88259e+02	6.57100e+03	4.26040e-03	5.87583e+02
6579	5.88918e+02	6.57900e+03	4.15696e-03	5.88250e+02
6587	5.89590e+02	6.58700e+03	4.24499e-03	5.88917e+02
6595	5.90253e+02	6.59500e+03	4.29059e-03	5.89583e+02
6603	5.90912e+02	6.60300e+03	4.30699e-03	5.90250e+02
6611	5.91575e+02	6.61100e+03	4.18973e-03	5.90917e+02
6619	5.92243e+02	6.61900e+03	4.14506e-03	5.91583e+02
6627	5.92911e+02	6.62700e+03	4.13794e-03	5.92250e+02
6635	5.93559e+02	6.63500e+03	4.25201e-03	5.92917e+02
6643	5.94220e+02	6.64300e+03	4.34137e-03	5.93583e+02
6651	5.94885e+02	6.65100e+03	4.32218e-03	5.94250e+02
6659	5.95549e+02	6.65900e+03	4.30283e-03	5.94917e+02
6667	5.96201e+02	6.66700e+03	4.29321e-03	5.95583e+02
6675	5.96846e+02	6.67500e+03	4.17840e-03	5.96250e+02
6683	5.97510e+02	6.68300e+03	4.20496e-03	5.96917e+02
6691	5.98173e+02	6.69100e+03	4.17113e-03	5.97583e+02
6699	5.98833e+02	6.69900e+03	4.25924e-03	5.98250e+02
6707	5.99488e+02	6.70700e+03	4.34140e-03	5.98917e+02
6715	6.00150e+02	6.71500e+03	4.30709e-03	5.99583e+02
6723	6.00815e+02	6.72300e+03	4.27695e-03	6.00250e+02
6731	6.01469e+02	6.73100e+03	4.30034e-03	6.00917e+02
6739	6.02117e+02	6.73900e+03	4.36928e-03	6.01583e+02
6747	6.02776e+02	6.74700e+03	4.34922e-03	6.02250e+02
6755	6.03435e+02	6.75500e+03	4.23555e-03	6.02917e+02
6763	6.04094e+02	6.76300e+03	4.25209e-03	6.03583e+02
6771	6.04742e+02	6.77100e+03	4.16179e-03	6.04250e+02
6779	6.05401e+02	6.77900e+03	4.19047e-03	6.04917e+02
6787	6.06051e+02	6.78700e+03	4.20292e-03	6.05583e+02
6795	6.06700e+02	6.79500e+03	4.07642e-03	6.06250e+02
6803	6.07381e+02	6.80300e+03	4.18049e-03	6.06917e+02
6811	6.08035e+02	6.81100e+03	4.23010e-03	6.07583e+02
6819	6.08687e+02	6.81900e+03	4.26962e-03	6.08250e+02
6827	6.09339e+02	6.82700e+03	4.20741e-03	6.08917e+02
6835	6.10001e+02	6.83500e+03	4.20208e-03	6.09583e+02
6843	6.10667e+02	6.84300e+03	4.26165e-03	6.10250e+02
6851	6.11315e+02	6.85100e+03	4.28281e-03	6.10917e+02
6859	6.11976e+02	6.85900e+03	4.40106e-03	6.11583e+02
6867	6.12652e+02	6.86700e+03	4.33119e-03	6.12250e+02
6875	6.13318e+02	6.87500e+03	4.30409e-03	6.12917e+02
6883	6.13973e+02	6.88300e+03	4.23667e-03	6.13583e+02
6891	6.14645e+02	6.89100e+03	4.15167e-03	6.14250e+02
6899	6.15289e+02	6.89900e+03	4.15972e-03	6.14917e+02
6907	6.15956e+02	6.90700e+03	4.13223e-03	6.15583e+02
6915	6.16603e+02	6.91500e+03	4.20562e-03	6.16250e+02
6923	6.17265e+02	6.92300e+03	4.13516e-03	6.16917e+02
6931	6.17913e+02	6.93100e+03	4.13851e-03	6.17583e+02
6939	6.18581e+02	6.93900e+03	4.17287e-03	6.18250e+02
6947	6.19244e+02	6.94700e+03	4.16412e-03	6.18917e+02
6955	6.19911e+02	6.95500e+03	4.21417e-03	6.19583e+02
6963	6.20560e+02	6.96300e+03	4.16001e-03	6.20250e+02
6971	6.21234e+02	6.97100e+03	4.14817e-03	6.20917e+02
6979	6.21896e+02	6.97900e+03	4.26164e-03	6.21583e+02
6987	6.22563e+02	6.98700e+03	4.20082e-03	6.22250e+02
6995	6.23234e+02	6.99500e+03	4.16505e-03	6.22917e+02
7003	6.23903e+02	7.00300e+03	4.23055e-03	6.23583e+02
7011	6.24568e+02	7.01100e+03	4.25458e-03	6.24250e+02
7019	6.25235e+02	7.01900e+03	4.17332e-03	6.24917e+02
7027	6.25899e+02	7.02700e+03	4.07852e-03	6.25583e+02
7035	6.26555e+02	7.03500e+03	4.17629e-03	6.26250e+02
7043	6.27227e+02	7.04300e+03	4.17263e-03	6.26917e+02
7051	6.27908e+02	7.05100e+03	4.16832e-03	6.27583e+02
7059	6.28571e+02	7.05900e+03	4.10227e-03	6.28250e+02
7067	6.29237e+02	7.06700e+03	4.14172e-03	6.28917e+02
7075	6.29901e+02	7.07500e+03	4.23036e-03	6.29583e+02
7083	6.30567e+02	7.08300e+03	4.30757e-03	6.30250e+02
7091	6.31243e+02	7.09100e+03	4.25555e-03	6.30917e+02
7099	6.31909e+02	7.09900e+03	4.15460e-03	6.31583e+02
7107	6.32595e+02	7.10700e+03	4.04509e-03	6.32250e+02
7115	6.33263e+02	7.11500e+03	4.18539e-03	6.32917e+02
7123	6.33922e+02	7.12300e+03	4.25976e-03	6.33583e+02
7131	6.34585e+02	7.13100e+03	4.25564e-03	6.34250e+02
7139	6.35258e+02	7.13900e+03	4.32178e-03	6.34917e+02
7147	6.35924e+02	7.14700e+03	4.38692e-03	6.35583e+02
7155	6.36598e+02	7.15500e+03	4.17913e-03	6.36250e+02
7163	6.37260e+02	7.16300e+03	4.09853e-03	6.36917e+02
7171	6.37931e+02	7.17100e+03	4.26968e-03	6.37583e+02
7179	6.38607e+02	7.17900e+03	4.27593e-03	6.38250e+02
7187	6.39278e+02	7.18700e+03	4.19434e-03	6.38917e+02
7195	6.39930e+02	7.19500e+03	4.18612e-03	6.39583e+02
7203	6.40597e+02	7.20300e+03	4.11405e-03	6.40250e+02
7211	6.41258e+02	7.21100e+03	4.15150e-03	6.40917e+02
7219	6.41922e+02	7.21900e+03	4.15313e-03	6.41583e+02
7227	6.42578e+02	7.22700e+03	4.18345e-03	6.42250e+02
7235	6.43254e+02	7.23500e+03	4.21916e-03	6.42917e+02
7243	6.43914e+02	7.24300e+03	4.19674e-03	6.43583e+02
7251	6.44580e+02	7.25100e+03	4.12545e-03	6.44250e+02
7259	6.45237e+02	7.25900e+03	4.03834e-03	6.44917e+02
7267	6.45907e+02	7.26700e+03	4.04784e-03	6.45583e+02
7275	6.46571e+02	7.27500e+03	4.13518e-03	6.46250e+02
7283	6.47251e+02	7.28300e+03	4.08973e-03	6.46917e+02
7291	6.47906e+02	7.29100e+03	4.00462e-03	6.47583e+02
7299	6.48589e+02	7.29900e+03	4.08344e-03	6.48250e+02
7307	6.49260e+02	7.30700e+03	4.13532e-03	6.48917e+02
7315	6.49930e+02	7.31500e+03	4.06339e-03	6.49583e+02
7323	6.50598e+02	7.32300e+03	4.04555e-03	6.50250e+02
7331	6.51274e+02	7.33100e+03	4.12160e-03	6.50917e+02
7339	6.51944e+02	7.33900e+03	4.17800e-03	6.51583e+02
7347	6.52617e+02	7.34700e+03	4.18335e-03	6.52250e+02
7355	6.53286e+02	7.35500e+03	4.23549e-03	6.52917e+02
7363	6.53949e+02	7.36300e+03	4.16921e-03	6.53583e+02
7371	6.54617e+02	7.37100e+03	4.17482e-03	6.54250e+02
7379	6.55288e+02	7.37900e+03	4.20849e-03	6.54917e+02
7387	6.55960e+02	7.38700e+03	4.10048e-03	6.55583e+02
7395	6.56612e+02	7.39500e+03	4.06548e-03	6.56250e+02
7403	6.57280e+02	7.40300e+03	4.12193e-03	6.56917e+02
7411	6.57944e+02	7.41100e+03	4.18090e-03	6.57583e+02
7419	6.58617e+02	7.41900e+03	4.21080e-03	6.58250e+02
7427	6.59272e+02	7.42700e+03	4.13855e-03	6.58917e+02
7435	6.59942e+02	7.43500e+03	4.15109e-03	6.59583e+02
7443	6.60619e+02	7.44300e+03	4.07991e-03	6.60250e+02
7451	6.61275e+02	7.45100e+03	3.99202e-03	6.60917e+02
7459	6.61953e+02	7.45900e+03	3.97678e-03	6.61583e+02
7467	6.62619e+02	7.46700e+03	4.07398e-03	6.62250e+02
7475	6.63282e+02	7.47500e+03	4.13305e-03	6.62917e+02
7483	6.63961e+02	7.48300e+03	4.04367e-03	6.63583e+02
7491	6.64618e+02	7.49100e+03	4.06686e-03	6.64250e+02
7499	6.65289e+02	7.49900e+03	4.21056e-03	6.64917e+02
7507	6.65961e+02	7.50700e+03	4.28188e-03	6.65583e+02
7515	6.66628e+02	7.51500e+03	4.21185e-03	6.66250e+02
7523	6.67309e+02	7.52300e+03	4.25544e-03	6.66917e+02
7531	6.67979e+02	7.53100e+03	4.35656e-03	6.67583e+02
7539	6.68659e+02	7.53900e+03	4.45741e-03	6.68250e+02
7547	6.69324e+02	7.54700e+03	4.45245e-03	6.68917e+02
7555	6.69995e+02	7.55500e+03	4.44718e-03	6.69583e+02
7563	6.70667e+02	7.56300e+03	4.42687e-03	6.70250e+02
7571	6.71341e+02	7.57100e+03	4.32074e-03	6.70917e+02
7579	6.72011e+02	7.57900e+03	4.39282e-03	6.71583e+02
7587	6.72684e+02	7.58700e+03	4.37896e-03	6.72250e+02
7595	6.73352e+02	7.59500e+03	4.41360e-03	6.72917e+02
7603	6.74029e+02	7.60300e+03	4.44936e-03	6.73583e+02
7611	6.74702e+02	7.61100e+03	4.46676e-03	6.74250e+02
7619	6.75374e+02	7.61900e+03	4.37311e-03	6.74917e+02
7627	6.76051e+02	7.62700e+03	4.30371e-03	6.75583e+02
7635	6.76718e+02	7.63500e+03	4.24121e-03	6.76250e+02
7643	6.77398e+02	7.64300e+03	4.18936e-03	6.76917e+02
7651	6.78059e+02	7.65100e+03	4.28714e-03	6.77583e+02
7659	6.78728e+02	7.65900e+03	4.23104e-03	6.78250e+02
7667	6.79401e+02	7.66700e+03	4.33050e-03	6.78917e+02
7675	6.80065e+02	7.67500e+03	4.38411e-03	6.79583e+02
7683	6.80719e+02	7.68300e+03	4.24460e-03	6.80250e+02
7691	6.81374e+02	7.69100e+03	4.23068e-03	6.80917e+02
7699	6.82035e+02	7.69900e+03	4.18857e-03	6.81583e+02
7707	6.82706e+02	7.70700e+03	4.29693e-03	6.82250e+02
7715	6.83365e+02	7.71500e+03	4.27470e-03	6.82917e+02
7723	6.84043e+02	7.72300e+03	4.28362e-03	6.83583e+02
7731	6.84708e+02	7.73100e+03	4.21936e-03	6.84250e+02
7739	6.85366e+02	7.73900e+03	4.18427e-03	6.84917e+02
7747	6.86033e+02	7.74700e+03	4.23978e-03	6.85583e+02
7755	6.86705e+02	7.75500e+03	4.34759e-03	6.86250e+02
7763	6.87368e+02	7.76300e+03	4.33494e-03	6.86917e+02
7771	6.88041e+02	7.77100e+03	4.38524e-03	6.87583e+02
7779	6.88705e+02	7.77900e+03	4.44161e-03	6.88250e+02
7787	6.89374e+02	7.78700e+03	4.48243e-03	6.88917e+02
7795	6.90044e+02	7.79500e+03	4.37240e-03	6.89583e+02
7803	6.90722e+02	7.80300e+03	4.37242e-03	6.90250e+02
7811	6.91397e+02	7.81100e+03	4.41253e-03	6.90917e+02
7819	6.92061e+02	7.81900e+03	4.42073e-03	6.91583e+02
7827	6.92722e+02	7.82700e+03	4.44078e-03	6.92250e+02
7835	6.93387e+02	7.83500e+03	4.35533e-03	6.92917e+02
7843	6.94046e+02	7.84300e+03	4.34219e-03	6.93583e+02
7851	6.94722e+02	7.85100e+03	4.28912e-03	6.94250e+02
7859	6.95382e+02	7.85900e+03	4.17102e-03	6.94917e+02
7867	6.96041e+02	7.86700e+03	4.15442e-03	6.95583e+02
7875	6.96714e+02	7.87500e+03	4.06995e-03	6.96250e+02
7883	6.97375e+02	7.88300e+03	4.19926e-03	6.96917e+02
7891	6.98047e+02	7.89100e+03	4.28324e-03	6.97583e+02
7899	6.98564e+02	7.89900e+03	4.40474e-03	6.98250e+02
7907	6.99018e+02	7.90700e+03	4.39444e-03	6.98917e+02
7915	6.99360e+02	7.91500e+03	4.25257e-03	6.99583e+02
7920	6.99533e+02	7.92000e+03	4.18514e-03	7.00000e+02