File: Experiments/TUBS/tga_nonisotherm/tga_dynamic_n2_dyn10_piece_2mg_r3.txt
index	ts	t	weight	tr
[#]	[°C]	[s]	[mg]	[°C]
843	1.30969e+02	8.43000e+02	1.96546e+00	1.30500e+02
847	1.31633e+02	8.47000e+02	1.96549e+00	1.31167e+02
851	1.32309e+02	8.51000e+02	1.96551e+00	1.31833e+02
855	1.32987e+02	8.55000e+02	1.96557e+00	1.32500e+02
859	1.33658e+02	8.59000e+02	1.96558e+00	1.33167e+02
863	1.34334e+02	8.63000e+02	1.96547e+00	1.33833e+02
867	1.35011e+02	8.67000e+02	1.96532e+00	1.34500e+02
871	1.35688e+02	8.71000e+02	1.96516e+00	1.35167e+02
875	1.36354e+02	8.75000e+02	1.96504e+00	1.35833e+02
879	1.37046e+02	8.79000e+02	1.96496e+00	1.36500e+02
883	1.37717e+02	8.83000e+02	1.96491e+00	1.37167e+02
887	1.38392e+02	8.87000e+02	1.96492e+00	1.37833e+02
891	1.39071e+02	8.91000e+02	1.96495e+00	1.38500e+02
895	1.39741e+02	8.95000e+02	1.96501e+00	1.39167e+02
899	1.40430e+02	8.99000e+02	1.96509e+00	1.39833e+02
903	1.41098e+02	9.03000e+02	1.96506e+00	1.40500e+02
907	1.41770e+02	9.07000e+02	1.96493e+00	1.41167e+02
911	1.42448e+02	9.11000e+02	1.96482e+00	1.41833e+02
915	1.43122e+02	9.15000e+02	1.96486e+00	1.42500e+02
919	1.43786e+02	9.19000e+02	1.96488e+00	1.43167e+02
923	1.44478e+02	9.23000e+02	1.96462e+00	1.43833e+02
927	1.45147e+02	9.27000e+02	1.96447e+00	1.44500e+02
931	1.45815e+02	9.31000e+02	1.96482e+00	1.45167e+02
935	1.46494e+02	9.35000e+02	1.96513e+00	1.45833e+02
939	1.47169e+02	9.39000e+02	1.96501e+00	1.46500e+02
943	1.47858e+02	9.43000e+02	1.96478e+00	1.47167e+02
947	1.48522e+02	9.47000e+02	1.96469e+00	1.47833e+02
951	1.49211e+02	9.51000e+02	1.96465e+00	1.48500e+02
955	1.49883e+02	9.55000e+02	1.96463e+00	1.49167e+02
959	1.50555e+02	9.59000e+02	1.96461e+00	1.49833e+02
963	1.51231e+02	9.63000e+02	1.96449e+00	1.50500e+02
967	1.51907e+02	9.67000e+02	1.96438e+00	1.51167e+02
971	1.52590e+02	9.71000e+02	1.96438e+00	1.51833e+02
975	1.53263e+02	9.75000e+02	1.96434e+00	1.52500e+02
979	1.53940e+02	9.79000e+02	1.96418e+00	1.53167e+02
983	1.54625e+02	9.83000e+02	1.96396e+00	1.53833e+02
987	1.55291e+02	9.87000e+02	1.96385e+00	1.54500e+02
991	1.55977e+02	9.91000e+02	1.96392e+00	1.55167e+02
995	1.56648e+02	9.95000e+02	1.96403e+00	1.55833e+02
999	1.57331e+02	9.99000e+02	1.96399e+00	1.56500e+02
1003	1.58000e+02	1.00300e+03	1.96386e+00	1.57167e+02
1007	1.58674e+02	1.00700e+03	1.96388e+00	1.57833e+02
1011	1.59359e+02	1.01100e+03	1.96395e+00	1.58500e+02
1015	1.60038e+02	1.01500e+03	1.96387e+00	1.59167e+02
1019	1.60706e+02	1.01900e+03	1.96378e+00	1.59833e+02
1023	1.61388e+02	1.02300e+03	1.96379e+00	1.60500e+02
1027	1.62062e+02	1.02700e+03	1.96381e+00	1.61167e+02
1031	1.62738e+02	1.03100e+03	1.96375e+00	1.61833e+02
1035	1.63420e+02	1.03500e+03	1.96364e+00	1.62500e+02
1039	1.64096e+02	1.03900e+03	1.96359e+00	1.63167e+02
1043	1.64771e+02	1.04300e+03	1.96357e+00	1.63833e+02
1047	1.65434e+02	1.04700e+03	1.96353e+00	1.64500e+02
1051	1.66114e+02	1.05100e+03	1.96349e+00	1.65167e+02
1055	1.66796e+02	1.05500e+03	1.96341e+00	1.65833e+02
1059	1.67469e+02	1.05900e+03	1.96327e+00	1.66500e+02
1063	1.68155e+02	1.06300e+03	1.96311e+00	1.67167e+02
1067	1.68833e+02	1.06700e+03	1.96307e+00	1.67833e+02
1071	1.69498e+02	1.07100e+03	1.96314e+00	1.68500e+02
1075	1.70169e+02	1.07500e+03	1.96323e+00	1.69167e+02
1079	1.70854e+02	1.07900e+03	1.96318e+00	1.69833e+02
1083	1.71512e+02	1.08300e+03	1.96297e+00	1.70500e+02
1087	1.72194e+02	1.08700e+03	1.96274e+00	1.71167e+02
1091	1.72875e+02	1.09100e+03	1.96254e+00	1.71833e+02
1095	1.73551e+02	1.09500e+03	1.96234e+00	1.72500e+02
1099	1.74231e+02	1.09900e+03	1.96223e+00	1.73167e+02
1103	1.74910e+02	1.10300e+03	1.96219e+00	1.73833e+02
1107	1.75587e+02	1.10700e+03	1.96210e+00	1.74500e+02
1111	1.76257e+02	1.11100e+03	1.96196e+00	1.75167e+02
1115	1.76936e+02	1.11500e+03	1.96180e+00	1.75833e+02
1119	1.77603e+02	1.11900e+03	1.96162e+00	1.76500e+02
1123	1.78285e+02	1.12300e+03	1.96147e+00	1.77167e+02
1127	1.78969e+02	1.12700e+03	1.96129e+00	1.77833e+02
1131	1.79629e+02	1.13100e+03	1.96105e+00	1.78500e+02
1135	1.80299e+02	1.13500e+03	1.96086e+00	1.79167e+02
1139	1.80973e+02	1.13900e+03	1.96064e+00	1.79833e+02
1143	1.81648e+02	1.14300e+03	1.96028e+00	1.80500e+02
1147	1.82322e+02	1.14700e+03	1.95987e+00	1.81167e+02
1151	1.82997e+02	1.15100e+03	1.95955e+00	1.81833e+02
1155	1.83669e+02	1.15500e+03	1.95935e+00	1.82500e+02
1159	1.84341e+02	1.15900e+03	1.95904e+00	1.83167e+02
1163	1.85024e+02	1.16300e+03	1.95867e+00	1.83833e+02
1167	1.85689e+02	1.16700e+03	1.95846e+00	1.84500e+02
1171	1.86357e+02	1.17100e+03	1.95819e+00	1.85167e+02
1175	1.87031e+02	1.17500e+03	1.95774e+00	1.85833e+02
1179	1.87701e+02	1.17900e+03	1.95731e+00	1.86500e+02
1183	1.88383e+02	1.18300e+03	1.95697e+00	1.87167e+02
1187	1.89041e+02	1.18700e+03	1.95658e+00	1.87833e+02
1191	1.89723e+02	1.19100e+03	1.95617e+00	1.88500e+02
1195	1.90387e+02	1.19500e+03	1.95580e+00	1.89167e+02
1199	1.91049e+02	1.19900e+03	1.95542e+00	1.89833e+02
1203	1.91735e+02	1.20300e+03	1.95506e+00	1.90500e+02
1207	1.92401e+02	1.20700e+03	1.95477e+00	1.91167e+02
1211	1.93085e+02	1.21100e+03	1.95435e+00	1.91833e+02
1215	1.93746e+02	1.21500e+03	1.95374e+00	1.92500e+02
1219	1.94427e+02	1.21900e+03	1.95313e+00	1.93167e+02
1223	1.95086e+02	1.22300e+03	1.95266e+00	1.93833e+02
1227	1.95771e+02	1.22700e+03	1.95226e+00	1.94500e+02
1231	1.96452e+02	1.23100e+03	1.95167e+00	1.95167e+02
1235	1.97122e+02	1.23500e+03	1.95095e+00	1.95833e+02
1239	1.97782e+02	1.23900e+03	1.95060e+00	1.96500e+02
1243	1.98464e+02	1.24300e+03	1.95051e+00	1.97167e+02
1247	1.99132e+02	1.24700e+03	1.95016e+00	1.97833e+02
1251	1.99812e+02	1.25100e+03	1.94961e+00	1.98500e+02
1255	2.00473e+02	1.25500e+03	1.94904e+00	1.99167e+02
1259	2.01152e+02	1.25900e+03	1.94844e+00	1.99833e+02
1263	2.01828e+02	1.26300e+03	1.94787e+00	2.00500e+02
1267	2.02510e+02	1.26700e+03	1.94738e+00	2.01167e+02
1271	2.03193e+02	1.27100e+03	1.94695e+00	2.01833e+02
1275	2.03853e+02	1.27500e+03	1.94652e+00	2.02500e+02
1279	2.04532e+02	1.27900e+03	1.94604e+00	2.03167e+02
1283	2.05194e+02	1.28300e+03	1.94554e+00	2.03833e+02
1287	2.05866e+02	1.28700e+03	1.94507e+00	2.04500e+02
1291	2.06542e+02	1.29100e+03	1.94456e+00	2.05167e+02
1295	2.07215e+02	1.29500e+03	1.94399e+00	2.05833e+02
1299	2.07889e+02	1.29900e+03	1.94351e+00	2.06500e+02
1303	2.08544e+02	1.30300e+03	1.94314e+00	2.07167e+02
1307	2.09230e+02	1.30700e+03	1.94277e+00	2.07833e+02
1311	2.09897e+02	1.31100e+03	1.94220e+00	2.08500e+02
1315	2.10572e+02	1.31500e+03	1.94144e+00	2.09167e+02
1319	2.11238e+02	1.31900e+03	1.94101e+00	2.09833e+02
1323	2.11904e+02	1.32300e+03	1.94095e+00	2.10500e+02
1327	2.12573e+02	1.32700e+03	1.94058e+00	2.11167e+02
1331	2.13253e+02	1.33100e+03	1.93985e+00	2.11833e+02
1335	2.13929e+02	1.33500e+03	1.93923e+00	2.12500e+02
1339	2.14583e+02	1.33900e+03	1.93879e+00	2.13167e+02
1343	2.15268e+02	1.34300e+03	1.93837e+00	2.13833e+02
1347	2.15933e+02	1.34700e+03	1.93789e+00	2.14500e+02
1351	2.16608e+02	1.35100e+03	1.93739e+00	2.15167e+02
1355	2.17263e+02	1.35500e+03	1.93690e+00	2.15833e+02
1359	2.17945e+02	1.35900e+03	1.93629e+00	2.16500e+02
1363	2.18609e+02	1.36300e+03	1.93564e+00	2.17167e+02
1367	2.19276e+02	1.36700e+03	1.93513e+00	2.17833e+02
1371	2.19946e+02	1.37100e+03	1.93465e+00	2.18500e+02
1375	2.20615e+02	1.37500e+03	1.93410e+00	2.19167e+02
1379	2.21295e+02	1.37900e+03	1.93351e+00	2.19833e+02
1383	2.21961e+02	1.38300e+03	1.93301e+00	2.20500e+02
1387	2.22640e+02	1.38700e+03	1.93264e+00	2.21167e+02
1391	2.23300e+02	1.39100e+03	1.93222e+00	2.21833e+02
1395	2.23978e+02	1.39500e+03	1.93167e+00	2.22500e+02
1399	2.24654e+02	1.39900e+03	1.93104e+00	2.23167e+02
1403	2.25330e+02	1.40300e+03	1.93042e+00	2.23833e+02
1407	2.25987e+02	1.40700e+03	1.92985e+00	2.24500e+02
1411	2.26671e+02	1.41100e+03	1.92929e+00	2.25167e+02
1415	2.27335e+02	1.41500e+03	1.92878e+00	2.25833e+02
1419	2.28001e+02	1.41900e+03	1.92829e+00	2.26500e+02
1423	2.28672e+02	1.42300e+03	1.92775e+00	2.27167e+02
1427	2.29345e+02	1.42700e+03	1.92722e+00	2.27833e+02
1431	2.30014e+02	1.43100e+03	1.92669e+00	2.28500e+02
1435	2.30675e+02	1.43500e+03	1.92611e+00	2.29167e+02
1439	2.31357e+02	1.43900e+03	1.92556e+00	2.29833e+02
1443	2.32028e+02	1.44300e+03	1.92510e+00	2.30500e+02
1447	2.32700e+02	1.44700e+03	1.92451e+00	2.31167e+02
1451	2.33377e+02	1.45100e+03	1.92387e+00	2.31833e+02
1455	2.34045e+02	1.45500e+03	1.92337e+00	2.32500e+02
1459	2.34718e+02	1.45900e+03	1.92281e+00	2.33167e+02
1463	2.35373e+02	1.46300e+03	1.92219e+00	2.33833e+02
1467	2.36044e+02	1.46700e+03	1.92163e+00	2.34500e+02
1471	2.36716e+02	1.47100e+03	1.92108e+00	2.35167e+02
1475	2.37381e+02	1.47500e+03	1.92047e+00	2.35833e+02
1479	2.38046e+02	1.47900e+03	1.91992e+00	2.36500e+02
1483	2.38705e+02	1.48300e+03	1.91947e+00	2.37167e+02
1487	2.39373e+02	1.48700e+03	1.91889e+00	2.37833e+02
1491	2.40047e+02	1.49100e+03	1.91825e+00	2.38500e+02
1495	2.40713e+02	1.49500e+03	1.91773e+00	2.39167e+02
1499	2.41382e+02	1.49900e+03	1.91725e+00	2.39833e+02
1503	2.42060e+02	1.50300e+03	1.91670e+00	2.40500e+02
1507	2.42728e+02	1.50700e+03	1.91607e+00	2.41167e+02
1511	2.43406e+02	1.51100e+03	1.91549e+00	2.41833e+02
1515	2.44073e+02	1.51500e+03	1.91495e+00	2.42500e+02
1519	2.44746e+02	1.51900e+03	1.91433e+00	2.43167e+02
1523	2.45421e+02	1.52300e+03	1.91380e+00	2.43833e+02
1527	2.46097e+02	1.52700e+03	1.91343e+00	2.44500e+02
1531	2.46761e+02	1.53100e+03	1.91287e+00	2.45167e+02
1535	2.47430e+02	1.53500e+03	1.91215e+00	2.45833e+02
1539	2.48105e+02	1.53900e+03	1.91150e+00	2.46500e+02
1543	2.48805e+02	1.54300e+03	1.91087e+00	2.47167e+02
1547	2.49487e+02	1.54700e+03	1.91031e+00	2.47833e+02
1551	2.50167e+02	1.55100e+03	1.90981e+00	2.48500e+02
1555	2.50835e+02	1.55500e+03	1.90930e+00	2.49167e+02
1559	2.51517e+02	1.55900e+03	1.90876e+00	2.49833e+02
1563	2.52184e+02	1.56300e+03	1.90814e+00	2.50500e+02
1567	2.52855e+02	1.56700e+03	1.90753e+00	2.51167e+02
1571	2.53541e+02	1.57100e+03	1.90701e+00	2.51833e+02
1575	2.54223e+02	1.57500e+03	1.90647e+00	2.52500e+02
1579	2.54900e+02	1.57900e+03	1.90585e+00	2.53167e+02
1583	2.55560e+02	1.58300e+03	1.90521e+00	2.53833e+02
1587	2.56235e+02	1.58700e+03	1.90458e+00	2.54500e+02
1591	2.56895e+02	1.59100e+03	1.90401e+00	2.55167e+02
1595	2.57569e+02	1.59500e+03	1.90356e+00	2.55833e+02
1599	2.58244e+02	1.59900e+03	1.90312e+00	2.56500e+02
1603	2.58909e+02	1.60300e+03	1.90252e+00	2.57167e+02
1607	2.59576e+02	1.60700e+03	1.90191e+00	2.57833e+02
1611	2.60255e+02	1.61100e+03	1.90131e+00	2.58500e+02
1615	2.60917e+02	1.61500e+03	1.90061e+00	2.59167e+02
1619	2.61600e+02	1.61900e+03	1.89996e+00	2.59833e+02
1623	2.62255e+02	1.62300e+03	1.89939e+00	2.60500e+02
1627	2.62930e+02	1.62700e+03	1.89873e+00	2.61167e+02
1631	2.63607e+02	1.63100e+03	1.89811e+00	2.61833e+02
1635	2.64267e+02	1.63500e+03	1.89759e+00	2.62500e+02
1639	2.64948e+02	1.63900e+03	1.89710e+00	2.63167e+02
1643	2.65612e+02	1.64300e+03	1.89653e+00	2.63833e+02
1647	2.66293e+02	1.64700e+03	1.89587e+00	2.64500e+02
1651	2.66968e+02	1.65100e+03	1.89519e+00	2.65167e+02
1655	2.67654e+02	1.65500e+03	1.89460e+00	2.65833e+02
1659	2.68339e+02	1.65900e+03	1.89398e+00	2.66500e+02
1663	2.69019e+02	1.66300e+03	1.89325e+00	2.67167e+02
1667	2.69687e+02	1.66700e+03	1.89251e+00	2.67833e+02
1671	2.70352e+02	1.67100e+03	1.89182e+00	2.68500e+02
1675	2.71034e+02	1.67500e+03	1.89112e+00	2.69167e+02
1679	2.71722e+02	1.67900e+03	1.89040e+00	2.69833e+02
1683	2.72397e+02	1.68300e+03	1.88976e+00	2.70500e+02
1687	2.73064e+02	1.68700e+03	1.88915e+00	2.71167e+02
1691	2.73737e+02	1.69100e+03	1.88853e+00	2.71833e+02
1695	2.74417e+02	1.69500e+03	1.88790e+00	2.72500e+02
1699	2.75078e+02	1.69900e+03	1.88719e+00	2.73167e+02
1703	2.75744e+02	1.70300e+03	1.88639e+00	2.73833e+02
1707	2.76422e+02	1.70700e+03	1.88562e+00	2.74500e+02
1711	2.77092e+02	1.71100e+03	1.88478e+00	2.75167e+02
1715	2.77781e+02	1.71500e+03	1.88385e+00	2.75833e+02
1719	2.78460e+02	1.71900e+03	1.88298e+00	2.76500e+02
1723	2.79125e+02	1.72300e+03	1.88220e+00	2.77167e+02
1727	2.79805e+02	1.72700e+03	1.88148e+00	2.77833e+02
1731	2.80480e+02	1.73100e+03	1.88072e+00	2.78500e+02
1735	2.81168e+02	1.73500e+03	1.87987e+00	2.79167e+02
1739	2.81860e+02	1.73900e+03	1.87895e+00	2.79833e+02
1743	2.82553e+02	1.74300e+03	1.87797e+00	2.80500e+02
1747	2.83226e+02	1.74700e+03	1.87700e+00	2.81167e+02
1751	2.83890e+02	1.75100e+03	1.87610e+00	2.81833e+02
1755	2.84566e+02	1.75500e+03	1.87523e+00	2.82500e+02
1759	2.85246e+02	1.75900e+03	1.87430e+00	2.83167e+02
1763	2.85944e+02	1.76300e+03	1.87337e+00	2.83833e+02
1767	2.86619e+02	1.76700e+03	1.87243e+00	2.84500e+02
1771	2.87297e+02	1.77100e+03	1.87146e+00	2.85167e+02
1775	2.87957e+02	1.77500e+03	1.87044e+00	2.85833e+02
1779	2.88628e+02	1.77900e+03	1.86932e+00	2.86500e+02
1783	2.89303e+02	1.78300e+03	1.86810e+00	2.87167e+02
1787	2.89972e+02	1.78700e+03	1.86687e+00	2.87833e+02
1791	2.90648e+02	1.79100e+03	1.86570e+00	2.88500e+02
1795	2.91310e+02	1.79500e+03	1.86452e+00	2.89167e+02
1799	2.91983e+02	1.79900e+03	1.86325e+00	2.89833e+02
1803	2.92655e+02	1.80300e+03	1.86199e+00	2.90500e+02
1807	2.93326e+02	1.80700e+03	1.86073e+00	2.91167e+02
1811	2.93993e+02	1.81100e+03	1.85933e+00	2.91833e+02
1815	2.94666e+02	1.81500e+03	1.85788e+00	2.92500e+02
1819	2.95344e+02	1.81900e+03	1.85657e+00	2.93167e+02
1823	2.96021e+02	1.82300e+03	1.85531e+00	2.93833e+02
1827	2.96700e+02	1.82700e+03	1.85384e+00	2.94500e+02
1831	2.97381e+02	1.83100e+03	1.85231e+00	2.95167e+02
1835	2.98053e+02	1.83500e+03	1.85082e+00	2.95833e+02
1839	2.98726e+02	1.83900e+03	1.84933e+00	2.96500e+02
1843	2.99397e+02	1.84300e+03	1.84785e+00	2.97167e+02
1847	3.00070e+02	1.84700e+03	1.84630e+00	2.97833e+02
1851	3.00749e+02	1.85100e+03	1.84473e+00	2.98500e+02
1855	3.01430e+02	1.85500e+03	1.84315e+00	2.99167e+02
1859	3.02113e+02	1.85900e+03	1.84155e+00	2.99833e+02
1863	3.02809e+02	1.86300e+03	1.83994e+00	3.00500e+02
1867	3.03475e+02	1.86700e+03	1.83831e+00	3.01167e+02
1871	3.04149e+02	1.87100e+03	1.83664e+00	3.01833e+02
1875	3.04832e+02	1.87500e+03	1.83492e+00	3.02500e+02
1879	3.05513e+02	1.87900e+03	1.83321e+00	3.03167e+02
1883	3.06232e+02	1.88300e+03	1.83151e+00	3.03833e+02
1887	3.07040e+02	1.88700e+03	1.82976e+00	3.04500e+02
1891	3.07714e+02	1.89100e+03	1.82800e+00	3.05167e+02
1895	3.08424e+02	1.89500e+03	1.82621e+00	3.05833e+02
1899	3.09079e+02	1.89900e+03	1.82443e+00	3.06500e+02
1903	3.09723e+02	1.90300e+03	1.82284e+00	3.07167e+02
1907	3.10377e+02	1.90700e+03	1.82122e+00	3.07833e+02
1911	3.11031e+02	1.91100e+03	1.81922e+00	3.08500e+02
1915	3.11686e+02	1.91500e+03	1.81722e+00	3.09167e+02
1919	3.12357e+02	1.91900e+03	1.81562e+00	3.09833e+02
1923	3.13034e+02	1.92300e+03	1.81407e+00	3.10500e+02
1927	3.13731e+02	1.92700e+03	1.81235e+00	3.11167e+02
1931	3.14398e+02	1.93100e+03	1.81054e+00	3.11833e+02
1935	3.15054e+02	1.93500e+03	1.80874e+00	3.12500e+02
1939	3.15742e+02	1.93900e+03	1.80702e+00	3.13167e+02
1943	3.16403e+02	1.94300e+03	1.80513e+00	3.13833e+02
1947	3.17046e+02	1.94700e+03	1.80309e+00	3.14500e+02
1951	3.17740e+02	1.95100e+03	1.80111e+00	3.15167e+02
1955	3.18409e+02	1.95500e+03	1.79916e+00	3.15833e+02
1959	3.19037e+02	1.95900e+03	1.79704e+00	3.16500e+02
1963	3.19696e+02	1.96300e+03	1.79486e+00	3.17167e+02
1967	3.20371e+02	1.96700e+03	1.79275e+00	3.17833e+02
1971	3.21038e+02	1.97100e+03	1.79065e+00	3.18500e+02
1975	3.21714e+02	1.97500e+03	1.78853e+00	3.19167e+02
1979	3.22385e+02	1.97900e+03	1.78627e+00	3.19833e+02
1983	3.23067e+02	1.98300e+03	1.78377e+00	3.20500e+02
1987	3.23763e+02	1.98700e+03	1.78112e+00	3.21167e+02
1991	3.24454e+02	1.99100e+03	1.77860e+00	3.21833e+02
1995	3.25110e+02	1.99500e+03	1.77613e+00	3.22500e+02
1999	3.25805e+02	1.99900e+03	1.77340e+00	3.23167e+02
2003	3.26507e+02	2.00300e+03	1.77059e+00	3.23833e+02
2007	3.27184e+02	2.00700e+03	1.76781e+00	3.24500e+02
2011	3.27863e+02	2.01100e+03	1.76481e+00	3.25167e+02
2015	3.28563e+02	2.01500e+03	1.76162e+00	3.25833e+02
2019	3.29234e+02	2.01900e+03	1.75839e+00	3.26500e+02
2023	3.29909e+02	2.02300e+03	1.75497e+00	3.27167e+02
2027	3.30620e+02	2.02700e+03	1.75137e+00	3.27833e+02
2031	3.31291e+02	2.03100e+03	1.74771e+00	3.28500e+02
2035	3.31968e+02	2.03500e+03	1.74387e+00	3.29167e+02
2039	3.32648e+02	2.03900e+03	1.73985e+00	3.29833e+02
2043	3.33329e+02	2.04300e+03	1.73594e+00	3.30500e+02
2047	3.34012e+02	2.04700e+03	1.73194e+00	3.31167e+02
2051	3.34672e+02	2.05100e+03	1.72731e+00	3.31833e+02
2055	3.35352e+02	2.05500e+03	1.72210e+00	3.32500e+02
2059	3.36022e+02	2.05900e+03	1.71690e+00	3.33167e+02
2063	3.36674e+02	2.06300e+03	1.71207e+00	3.33833e+02
2067	3.37320e+02	2.06700e+03	1.70712e+00	3.34500e+02
2071	3.38009e+02	2.07100e+03	1.70154e+00	3.35167e+02
2075	3.38683e+02	2.07500e+03	1.69542e+00	3.35833e+02
2079	3.39374e+02	2.07900e+03	1.68906e+00	3.36500e+02
2083	3.40068e+02	2.08300e+03	1.68262e+00	3.37167e+02
2087	3.40745e+02	2.08700e+03	1.67601e+00	3.37833e+02
2091	3.41418e+02	2.09100e+03	1.66908e+00	3.38500e+02
2095	3.42098e+02	2.09500e+03	1.66183e+00	3.39167e+02
2099	3.42758e+02	2.09900e+03	1.65428e+00	3.39833e+02
2103	3.43436e+02	2.10300e+03	1.64625e+00	3.40500e+02
2107	3.44085e+02	2.10700e+03	1.63743e+00	3.41167e+02
2111	3.44778e+02	2.11100e+03	1.62805e+00	3.41833e+02
2115	3.45449e+02	2.11500e+03	1.61838e+00	3.42500e+02
2119	3.46116e+02	2.11900e+03	1.60835e+00	3.43167e+02
2123	3.46811e+02	2.12300e+03	1.59809e+00	3.43833e+02
2127	3.47477e+02	2.12700e+03	1.58754e+00	3.44500e+02
2131	3.48147e+02	2.13100e+03	1.57665e+00	3.45167e+02
2135	3.48836e+02	2.13500e+03	1.56557e+00	3.45833e+02
2139	3.49524e+02	2.13900e+03	1.55430e+00	3.46500e+02
2143	3.50191e+02	2.14300e+03	1.54236e+00	3.47167e+02
2147	3.50854e+02	2.14700e+03	1.52942e+00	3.47833e+02
2151	3.51508e+02	2.15100e+03	1.51579e+00	3.48500e+02
2155	3.52168e+02	2.15500e+03	1.50179e+00	3.49167e+02
2159	3.52863e+02	2.15900e+03	1.48731e+00	3.49833e+02
2163	3.53564e+02	2.16300e+03	1.47224e+00	3.50500e+02
2167	3.54288e+02	2.16700e+03	1.45663e+00	3.51167e+02
2171	3.54956e+02	2.17100e+03	1.44039e+00	3.51833e+02
2175	3.55634e+02	2.17500e+03	1.42346e+00	3.52500e+02
2179	3.56317e+02	2.17900e+03	1.40603e+00	3.53167e+02
2183	3.57143e+02	2.18300e+03	1.38811e+00	3.53833e+02
2187	3.57797e+02	2.18700e+03	1.36972e+00	3.54500e+02
2191	3.58493e+02	2.19100e+03	1.35089e+00	3.55167e+02
2195	3.59171e+02	2.19500e+03	1.33156e+00	3.55833e+02
2199	3.59887e+02	2.19900e+03	1.31173e+00	3.56500e+02
2203	3.60610e+02	2.20300e+03	1.29128e+00	3.57167e+02
2207	3.61271e+02	2.20700e+03	1.27021e+00	3.57833e+02
2211	3.61948e+02	2.21100e+03	1.24867e+00	3.58500e+02
2215	3.62629e+02	2.21500e+03	1.22674e+00	3.59167e+02
2219	3.63283e+02	2.21900e+03	1.20433e+00	3.59833e+02
2223	3.63965e+02	2.22300e+03	1.18130e+00	3.60500e+02
2227	3.64633e+02	2.22700e+03	1.15770e+00	3.61167e+02
2231	3.65310e+02	2.23100e+03	1.13373e+00	3.61833e+02
2235	3.65958e+02	2.23500e+03	1.10951e+00	3.62500e+02
2239	3.66654e+02	2.23900e+03	1.08515e+00	3.63167e+02
2243	3.67408e+02	2.24300e+03	1.06080e+00	3.63833e+02
2247	3.68097e+02	2.24700e+03	1.03657e+00	3.64500e+02
2251	3.68830e+02	2.25100e+03	1.01241e+00	3.65167e+02
2255	3.69619e+02	2.25500e+03	9.88210e-01	3.65833e+02
2259	3.70351e+02	2.25900e+03	9.63837e-01	3.66500e+02
2263	3.71024e+02	2.26300e+03	9.39194e-01	3.67167e+02
2267	3.71687e+02	2.26700e+03	9.14188e-01	3.67833e+02
2271	3.72312e+02	2.27100e+03	8.88857e-01	3.68500e+02
2275	3.72984e+02	2.27500e+03	8.63368e-01	3.69167e+02
2279	3.73623e+02	2.27900e+03	8.37884e-01	3.69833e+02
2283	3.74222e+02	2.28300e+03	8.12427e-01	3.70500e+02
2287	3.74973e+02	2.28700e+03	7.86811e-01	3.71167e+02
2291	3.75647e+02	2.29100e+03	7.60797e-01	3.71833e+02
2295	3.76372e+02	2.29500e+03	7.34666e-01	3.72500e+02
2299	3.77036e+02	2.29900e+03	7.08646e-01	3.73167e+02
2303	3.77694e+02	2.30300e+03	6.82457e-01	3.73833e+02
2307	3.78358e+02	2.30700e+03	6.56337e-01	3.74500e+02
2311	3.79067e+02	2.31100e+03	6.30885e-01	3.75167e+02
2315	3.79760e+02	2.31500e+03	6.06254e-01	3.75833e+02
2319	3.80451e+02	2.31900e+03	5.82192e-01	3.76500e+02
2323	3.81124e+02	2.32300e+03	5.58167e-01	3.77167e+02
2327	3.81800e+02	2.32700e+03	5.33976e-01	3.77833e+02
2331	3.82464e+02	2.33100e+03	5.09936e-01	3.78500e+02
2335	3.83138e+02	2.33500e+03	4.86326e-01	3.79167e+02
2339	3.83855e+02	2.33900e+03	4.63083e-01	3.79833e+02
2343	3.84518e+02	2.34300e+03	4.40189e-01	3.80500e+02
2347	3.85200e+02	2.34700e+03	4.17848e-01	3.81167e+02
2351	3.85871e+02	2.35100e+03	3.96137e-01	3.81833e+02
2355	3.86534e+02	2.35500e+03	3.75170e-01	3.82500e+02
2359	3.87173e+02	2.35900e+03	3.54797e-01	3.83167e+02
2363	3.87816e+02	2.36300e+03	3.34918e-01	3.83833e+02
2367	3.88468e+02	2.36700e+03	3.15663e-01	3.84500e+02
2371	3.89211e+02	2.37100e+03	2.97337e-01	3.85167e+02
2375	3.90047e+02	2.37500e+03	2.80189e-01	3.85833e+02
2379	3.90701e+02	2.37900e+03	2.63745e-01	3.86500e+02
2383	3.91389e+02	2.38300e+03	2.47631e-01	3.87167e+02
2387	3.92091e+02	2.38700e+03	2.32266e-01	3.87833e+02
2391	3.92734e+02	2.39100e+03	2.17825e-01	3.88500e+02
2395	3.93467e+02	2.39500e+03	2.03988e-01	3.89167e+02
2399	3.94153e+02	2.39900e+03	1.90789e-01	3.89833e+02
2403	3.94890e+02	2.40300e+03	1.78400e-01	3.90500e+02
2407	3.95681e+02	2.40700e+03	1.66729e-01	3.91167e+02
2411	3.96375e+02	2.41100e+03	1.55736e-01	3.91833e+02
2415	3.97031e+02	2.41500e+03	1.45435e-01	3.92500e+02
2419	3.97717e+02	2.41900e+03	1.35737e-01	3.93167e+02
2423	3.98381e+02	2.42300e+03	1.26574e-01	3.93833e+02
2427	3.98961e+02	2.42700e+03	1.17958e-01	3.94500e+02
2431	3.99582e+02	2.43100e+03	1.09885e-01	3.95167e+02
2435	4.00240e+02	2.43500e+03	1.02259e-01	3.95833e+02
2439	4.00883e+02	2.43900e+03	9.51148e-02	3.96500e+02
2443	4.01557e+02	2.44300e+03	8.84800e-02	3.97167e+02
2447	4.02125e+02	2.44700e+03	8.22400e-02	3.97833e+02
2451	4.02711e+02	2.45100e+03	7.64607e-02	3.98500e+02
2455	4.03247e+02	2.45500e+03	7.12610e-02	3.99167e+02
2459	4.03821e+02	2.45900e+03	6.65088e-02	3.99833e+02
2463	4.04351e+02	2.46300e+03	6.19770e-02	4.00500e+02
2467	4.04933e+02	2.46700e+03	5.75557e-02	4.01167e+02
2471	4.05587e+02	2.47100e+03	5.34192e-02	4.01833e+02
2475	4.06232e+02	2.47500e+03	4.98152e-02	4.02500e+02
2479	4.06860e+02	2.47900e+03	4.65898e-02	4.03167e+02
2483	4.07475e+02	2.48300e+03	4.35017e-02	4.03833e+02
2487	4.08100e+02	2.48700e+03	4.05517e-02	4.04500e+02
2491	4.08744e+02	2.49100e+03	3.78057e-02	4.05167e+02
2495	4.09388e+02	2.49500e+03	3.53056e-02	4.05833e+02
2499	4.10043e+02	2.49900e+03	3.30266e-02	4.06500e+02
2503	4.10702e+02	2.50300e+03	3.08301e-02	4.07167e+02
2507	4.11338e+02	2.50700e+03	2.86903e-02	4.07833e+02
2511	4.12017e+02	2.51100e+03	2.66607e-02	4.08500e+02
2515	4.12697e+02	2.51500e+03	2.48062e-02	4.09167e+02
2519	4.13353e+02	2.51900e+03	2.31755e-02	4.09833e+02
2523	4.14017e+02	2.52300e+03	2.16581e-02	4.10500e+02
2527	4.14684e+02	2.52700e+03	2.02137e-02	4.11167e+02
2531	4.15357e+02	2.53100e+03	1.88747e-02	4.11833e+02
2535	4.16063e+02	2.53500e+03	1.76731e-02	4.12500e+02
2539	4.16768e+02	2.53900e+03	1.65808e-02	4.13167e+02
2543	4.17445e+02	2.54300e+03	1.54231e-02	4.13833e+02
2547	4.18074e+02	2.54700e+03	1.42623e-02	4.14500e+02
2551	4.18750e+02	2.55100e+03	1.32788e-02	4.15167e+02
2555	4.19399e+02	2.55500e+03	1.23872e-02	4.15833e+02
2559	4.20121e+02	2.55900e+03	1.14788e-02	4.16500e+02
2563	4.20838e+02	2.56300e+03	1.05939e-02	4.17167e+02
2567	4.21537e+02	2.56700e+03	9.79324e-03	4.17833e+02
2571	4.22098e+02	2.57100e+03	9.07883e-03	4.18500e+02
2575	4.22722e+02	2.57500e+03	8.38300e-03	4.19167e+02
2579	4.23368e+02	2.57900e+03	7.69201e-03	4.19833e+02
2583	4.23979e+02	2.58300e+03	7.04222e-03	4.20500e+02
2587	4.24627e+02	2.58700e+03	6.41721e-03	4.21167e+02
2591	4.25279e+02	2.59100e+03	5.82706e-03	4.21833e+02
2595	4.25938e+02	2.59500e+03	5.26065e-03	4.22500e+02
2599	4.26590e+02	2.59900e+03	4.67157e-03	4.23167e+02
2603	4.27285e+02	2.60300e+03	4.09811e-03	4.23833e+02
2607	4.27923e+02	2.60700e+03	3.58278e-03	4.24500e+02
2611	4.28568e+02	2.61100e+03	3.05039e-03	4.25167e+02
2615	4.29069e+02	2.61500e+03	2.59242e-03	4.25833e+02
2619	4.29687e+02	2.61900e+03	2.28431e-03	4.26500e+02
2623	4.30326e+02	2.62300e+03	2.04001e-03	4.27167e+02
2627	4.30932e+02	2.62700e+03	1.75251e-03	4.27833e+02
2631	4.31537e+02	2.63100e+03	1.38035e-03	4.28500e+02
2635	4.32152e+02	2.63500e+03	1.03531e-03	4.29167e+02
2639	4.32784e+02	2.63900e+03	7.09746e-04	4.29833e+02
2643	4.33465e+02	2.64300e+03	3.49015e-04	4.30500e+02
2647	4.34111e+02	2.64700e+03	3.31473e-06	4.31167e+02
2651	4.34786e+02	2.65100e+03	-2.79108e-04	4.31833e+02
2655	4.35436e+02	2.65500e+03	-5.18399e-04	4.32500e+02
2659	4.36080e+02	2.65900e+03	-7.32520e-04	4.33167e+02
2663	4.36741e+02	2.66300e+03	-8.93961e-04	4.33833e+02
2667	4.37420e+02	2.66700e+03	-1.00769e-03	4.34500e+02
2671	4.38083e+02	2.67100e+03	-1.09777e-03	4.35167e+02
2675	4.38753e+02	2.67500e+03	-1.15920e-03	4.35833e+02
2679	4.39407e+02	2.67900e+03	-1.21296e-03	4.36500e+02
2683	4.40066e+02	2.68300e+03	-1.29279e-03	4.37167e+02
2687	4.40712e+02	2.68700e+03	-1.36850e-03	4.37833e+02
2691	4.41365e+02	2.69100e+03	-1.43681e-03	4.38500e+02
2695	4.41970e+02	2.69500e+03	-1.52257e-03	4.39167e+02
2699	4.42595e+02	2.69900e+03	-1.59164e-03	4.39833e+02
2703	4.43234e+02	2.70300e+03	-1.63126e-03	4.40500e+02
2707	4.43882e+02	2.70700e+03	-1.64990e-03	4.41167e+02
2711	4.44540e+02	2.71100e+03	-1.68151e-03	4.41833e+02
2715	4.45182e+02	2.71500e+03	-1.70417e-03	4.42500e+02
2719	4.45835e+02	2.71900e+03	-1.69480e-03	4.43167e+02
2723	4.46483e+02	2.72300e+03	-1.66758e-03	4.43833e+02
2727	4.47142e+02	2.72700e+03	-1.64836e-03	4.44500e+02
2731	4.47782e+02	2.73100e+03	-1.65909e-03	4.45167e+02
2735	4.48435e+02	2.73500e+03	-1.65898e-03	4.45833e+02
2739	4.49087e+02	2.73900e+03	-1.67374e-03	4.46500e+02
2743	4.49762e+02	2.74300e+03	-1.74164e-03	4.47167e+02
2747	4.50432e+02	2.74700e+03	-1.79183e-03	4.47833e+02
2751	4.51104e+02	2.75100e+03	-1.72655e-03	4.48500e+02
2755	4.51769e+02	2.75500e+03	-1.71215e-03	4.49167e+02
2759	4.52421e+02	2.75900e+03	-1.81702e-03	4.49833e+02
2763	4.53086e+02	2.76300e+03	-1.82599e-03	4.50500e+02
2767	4.53748e+02	2.76700e+03	-1.80302e-03	4.51167e+02
2771	4.54406e+02	2.77100e+03	-1.85327e-03	4.51833e+02
2775	4.55068e+02	2.77500e+03	-1.94886e-03	4.52500e+02
2779	4.55724e+02	2.77900e+03	-2.10360e-03	4.53167e+02
2783	4.56389e+02	2.78300e+03	-2.20947e-03	4.53833e+02
2787	4.57049e+02	2.78700e+03	-2.18934e-03	4.54500e+02
2791	4.57663e+02	2.79100e+03	-2.11780e-03	4.55167e+02
2795	4.58216e+02	2.79500e+03	-2.05082e-03	4.55833e+02
2799	4.58763e+02	2.79900e+03	-2.04259e-03	4.56500e+02
2803	4.59377e+02	2.80300e+03	-2.11788e-03	4.57167e+02
2807	4.60014e+02	2.80700e+03	-2.20527e-03	4.57833e+02
2811	4.60657e+02	2.81100e+03	-2.22223e-03	4.58500e+02
2815	4.61299e+02	2.81500e+03	-2.20529e-03	4.59167e+02
2819	4.61944e+02	2.81900e+03	-2.22937e-03	4.59833e+02
2823	4.62607e+02	2.82300e+03	-2.24171e-03	4.60500e+02
2827	4.63270e+02	2.82700e+03	-2.22568e-03	4.61167e+02
2831	4.63934e+02	2.83100e+03	-2.23574e-03	4.61833e+02
2835	4.64573e+02	2.83500e+03	-2.29850e-03	4.62500e+02
2839	4.65211e+02	2.83900e+03	-2.38907e-03	4.63167e+02
2843	4.65861e+02	2.84300e+03	-2.43753e-03	4.63833e+02
2847	4.66518e+02	2.84700e+03	-2.40085e-03	4.64500e+02
2851	4.67166e+02	2.85100e+03	-2.36294e-03	4.65167e+02
2855	4.67820e+02	2.85500e+03	-2.42452e-03	4.65833e+02
2859	4.68472e+02	2.85900e+03	-2.44159e-03	4.66500e+02
2863	4.69127e+02	2.86300e+03	-2.39427e-03	4.67167e+02
2867	4.69782e+02	2.86700e+03	-2.38914e-03	4.67833e+02
2871	4.70431e+02	2.87100e+03	-2.37716e-03	4.68500e+02
2875	4.71088e+02	2.87500e+03	-2.35360e-03	4.69167e+02
2879	4.71733e+02	2.87900e+03	-2.30758e-03	4.69833e+02
2883	4.72389e+02	2.88300e+03	-2.25003e-03	4.70500e+02
2887	4.73034e+02	2.88700e+03	-2.30005e-03	4.71167e+02
2891	4.73680e+02	2.89100e+03	-2.44537e-03	4.71833e+02
2895	4.74335e+02	2.89500e+03	-2.54264e-03	4.72500e+02
2899	4.74987e+02	2.89900e+03	-2.52732e-03	4.73167e+02
2903	4.75645e+02	2.90300e+03	-2.50061e-03	4.73833e+02
2907	4.76296e+02	2.90700e+03	-2.45514e-03	4.74500e+02
2911	4.76932e+02	2.91100e+03	-2.35340e-03	4.75167e+02
2915	4.77590e+02	2.91500e+03	-2.28831e-03	4.75833e+02
2919	4.78244e+02	2.91900e+03	-2.33479e-03	4.76500e+02
2923	4.78902e+02	2.92300e+03	-2.48807e-03	4.77167e+02
2927	4.79565e+02	2.92700e+03	-2.57092e-03	4.77833e+02
2931	4.80223e+02	2.93100e+03	-2.49867e-03	4.78500e+02
2935	4.80886e+02	2.93500e+03	-2.38289e-03	4.79167e+02
2939	4.81540e+02	2.93900e+03	-2.33228e-03	4.79833e+02
2943	4.82194e+02	2.94300e+03	-2.29625e-03	4.80500e+02
2947	4.82849e+02	2.94700e+03	-2.28450e-03	4.81167e+02
2951	4.83500e+02	2.95100e+03	-2.36045e-03	4.81833e+02
2955	4.84164e+02	2.95500e+03	-2.43609e-03	4.82500e+02
2959	4.84827e+02	2.95900e+03	-2.47963e-03	4.83167e+02
2963	4.85489e+02	2.96300e+03	-2.58514e-03	4.83833e+02
2967	4.86151e+02	2.96700e+03	-2.70149e-03	4.84500e+02
2971	4.86805e+02	2.97100e+03	-2.65423e-03	4.85167e+02
2975	4.87462e+02	2.97500e+03	-2.52401e-03	4.85833e+02
2979	4.88109e+02	2.97900e+03	-2.54507e-03	4.86500e+02
2983	4.88773e+02	2.98300e+03	-2.70457e-03	4.87167e+02
2987	4.89442e+02	2.98700e+03	-2.82337e-03	4.87833e+02
2991	4.90101e+02	2.99100e+03	-2.79901e-03	4.88500e+02
2995	4.90760e+02	2.99500e+03	-2.70182e-03	4.89167e+02
2999	4.91425e+02	2.99900e+03	-2.60863e-03	4.89833e+02
3003	4.92076e+02	3.00300e+03	-2.50336e-03	4.90500e+02
3007	4.92730e+02	3.00700e+03	-2.44847e-03	4.91167e+02
3011	4.93400e+02	3.01100e+03	-2.50452e-03	4.91833e+02
3015	4.94060e+02	3.01500e+03	-2.54167e-03	4.92500e+02
3019	4.94701e+02	3.01900e+03	-2.54082e-03	4.93167e+02
3023	4.95363e+02	3.02300e+03	-2.57815e-03	4.93833e+02
3027	4.96025e+02	3.02700e+03	-2.55852e-03	4.94500e+02
3031	4.96689e+02	3.03100e+03	-2.48630e-03	4.95167e+02
3035	4.97350e+02	3.03500e+03	-2.54783e-03	4.95833e+02
3039	4.98014e+02	3.03900e+03	-2.63842e-03	4.96500e+02
3043	4.98676e+02	3.04300e+03	-2.59369e-03	4.97167e+02
3047	4.99337e+02	3.04700e+03	-2.58692e-03	4.97833e+02
3051	4.99995e+02	3.05100e+03	-2.66815e-03	4.98500e+02
3055	5.00658e+02	3.05500e+03	-2.73426e-03	4.99167e+02
3059	5.01329e+02	3.05900e+03	-2.71966e-03	4.99833e+02
3063	5.01978e+02	3.06300e+03	-2.67339e-03	5.00500e+02
3067	5.02651e+02	3.06700e+03	-2.65771e-03	5.01167e+02
3071	5.03298e+02	3.07100e+03	-2.65757e-03	5.01833e+02
3075	5.03979e+02	3.07500e+03	-2.69349e-03	5.02500e+02
3079	5.04647e+02	3.07900e+03	-2.75659e-03	5.03167e+02
3083	5.05325e+02	3.08300e+03	-2.77727e-03	5.03833e+02
3087	5.05984e+02	3.08700e+03	-2.75049e-03	5.04500e+02
3091	5.06636e+02	3.09100e+03	-2.76628e-03	5.05167e+02
3095	5.07300e+02	3.09500e+03	-2.82070e-03	5.05833e+02
3099	5.07934e+02	3.09900e+03	-2.82554e-03	5.06500e+02
3103	5.08563e+02	3.10300e+03	-2.74785e-03	5.07167e+02
3107	5.09219e+02	3.10700e+03	-2.67684e-03	5.07833e+02
3111	5.09860e+02	3.11100e+03	-2.68630e-03	5.08500e+02
3115	5.10503e+02	3.11500e+03	-2.73086e-03	5.09167e+02
3119	5.11141e+02	3.11900e+03	-2.83156e-03	5.09833e+02
3123	5.11801e+02	3.12300e+03	-2.96798e-03	5.10500e+02
3127	5.12454e+02	3.12700e+03	-2.99685e-03	5.11167e+02
3131	5.13092e+02	3.13100e+03	-2.91570e-03	5.11833e+02
3135	5.13738e+02	3.13500e+03	-2.85005e-03	5.12500e+02
3139	5.14369e+02	3.13900e+03	-2.81230e-03	5.13167e+02
3143	5.15009e+02	3.14300e+03	-2.76533e-03	5.13833e+02
3147	5.15656e+02	3.14700e+03	-2.66034e-03	5.14500e+02
3151	5.16312e+02	3.15100e+03	-2.52017e-03	5.15167e+02
3155	5.16953e+02	3.15500e+03	-2.46203e-03	5.15833e+02
3159	5.17605e+02	3.15900e+03	-2.58043e-03	5.16500e+02
3163	5.18250e+02	3.16300e+03	-2.71230e-03	5.17167e+02
3167	5.18921e+02	3.16700e+03	-2.77940e-03	5.17833e+02
3171	5.19569e+02	3.17100e+03	-2.83297e-03	5.18500e+02
3175	5.20223e+02	3.17500e+03	-2.80236e-03	5.19167e+02
3179	5.20890e+02	3.17900e+03	-2.79246e-03	5.19833e+02
3183	5.21541e+02	3.18300e+03	-2.80574e-03	5.20500e+02
3187	5.22204e+02	3.18700e+03	-2.79014e-03	5.21167e+02
3191	5.22873e+02	3.19100e+03	-2.84506e-03	5.21833e+02
3195	5.23524e+02	3.19500e+03	-2.92515e-03	5.22500e+02
3199	5.24198e+02	3.19900e+03	-2.94151e-03	5.23167e+02
3203	5.24860e+02	3.20300e+03	-2.90454e-03	5.23833e+02
3207	5.25533e+02	3.20700e+03	-2.82050e-03	5.24500e+02
3211	5.26197e+02	3.21100e+03	-2.76258e-03	5.25167e+02
3215	5.26889e+02	3.21500e+03	-2.80544e-03	5.25833e+02
3219	5.27555e+02	3.21900e+03	-2.91384e-03	5.26500e+02
3223	5.28243e+02	3.22300e+03	-2.98255e-03	5.27167e+02
3227	5.28894e+02	3.22700e+03	-2.99225e-03	5.27833e+02
3231	5.29564e+02	3.23100e+03	-2.97983e-03	5.28500e+02
3235	5.30221e+02	3.23500e+03	-2.96599e-03	5.29167e+02
3239	5.30873e+02	3.23900e+03	-2.95835e-03	5.29833e+02
3243	5.31535e+02	3.24300e+03	-2.94011e-03	5.30500e+02
3247	5.32187e+02	3.24700e+03	-2.91622e-03	5.31167e+02
3251	5.32868e+02	3.25100e+03	-2.90511e-03	5.31833e+02
3255	5.33542e+02	3.25500e+03	-2.91332e-03	5.32500e+02
3259	5.34203e+02	3.25900e+03	-2.92488e-03	5.33167e+02
3263	5.34866e+02	3.26300e+03	-2.92231e-03	5.33833e+02
3267	5.35516e+02	3.26700e+03	-2.91669e-03	5.34500e+02
3271	5.36156e+02	3.27100e+03	-2.96925e-03	5.35167e+02
3275	5.36805e+02	3.27500e+03	-3.07126e-03	5.35833e+02
3279	5.37462e+02	3.27900e+03	-3.14725e-03	5.36500e+02
3283	5.38110e+02	3.28300e+03	-3.19381e-03	5.37167e+02
3287	5.38776e+02	3.28700e+03	-3.18523e-03	5.37833e+02
3291	5.39425e+02	3.29100e+03	-3.10086e-03	5.38500e+02
3295	5.40061e+02	3.29500e+03	-3.02374e-03	5.39167e+02
3299	5.40717e+02	3.29900e+03	-2.97364e-03	5.39833e+02
3303	5.41359e+02	3.30300e+03	-2.91942e-03	5.40500e+02
3307	5.42016e+02	3.30700e+03	-2.90824e-03	5.41167e+02
3311	5.42672e+02	3.31100e+03	-2.96387e-03	5.41833e+02
3315	5.43328e+02	3.31500e+03	-3.10467e-03	5.42500e+02
3319	5.43986e+02	3.31900e+03	-3.30639e-03	5.43167e+02
3323	5.44642e+02	3.32300e+03	-3.32931e-03	5.43833e+02
3327	5.45300e+02	3.32700e+03	-3.08843e-03	5.44500e+02
3331	5.45963e+02	3.33100e+03	-2.88644e-03	5.45167e+02
3335	5.46614e+02	3.33500e+03	-2.90138e-03	5.45833e+02
3339	5.47263e+02	3.33900e+03	-3.03687e-03	5.46500e+02
3343	5.47907e+02	3.34300e+03	-3.15751e-03	5.47167e+02
3347	5.48561e+02	3.34700e+03	-3.17991e-03	5.47833e+02
3351	5.49204e+02	3.35100e+03	-3.14097e-03	5.48500e+02
3355	5.49859e+02	3.35500e+03	-3.04111e-03	5.49167e+02
3359	5.50516e+02	3.35900e+03	-2.93412e-03	5.49833e+02
3363	5.51168e+02	3.36300e+03	-2.93232e-03	5.50500e+02
3367	5.51832e+02	3.36700e+03	-2.96023e-03	5.51167e+02
3371	5.52477e+02	3.37100e+03	-3.00782e-03	5.51833e+02
3375	5.53130e+02	3.37500e+03	-3.10105e-03	5.52500e+02
3379	5.53779e+02	3.37900e+03	-3.15474e-03	5.53167e+02
3383	5.54427e+02	3.38300e+03	-3.12078e-03	5.53833e+02
3387	5.55087e+02	3.38700e+03	-3.03203e-03	5.54500e+02
3391	5.55747e+02	3.39100e+03	-2.97987e-03	5.55167e+02
3395	5.56418e+02	3.39500e+03	-3.04809e-03	5.55833e+02
3399	5.57085e+02	3.39900e+03	-3.20785e-03	5.56500e+02
3403	5.57742e+02	3.40300e+03	-3.27106e-03	5.57167e+02
3407	5.58402e+02	3.40700e+03	-3.19000e-03	5.57833e+02
3411	5.59061e+02	3.41100e+03	-3.13475e-03	5.58500e+02
3415	5.59703e+02	3.41500e+03	-3.17452e-03	5.59167e+02
3419	5.60364e+02	3.41900e+03	-3.22371e-03	5.59833e+02
3423	5.61013e+02	3.42300e+03	-3.20140e-03	5.60500e+02
3427	5.61672e+02	3.42700e+03	-3.16501e-03	5.61167e+02
3431	5.62333e+02	3.43100e+03	-3.21559e-03	5.61833e+02
3435	5.62998e+02	3.43500e+03	-3.31968e-03	5.62500e+02
3439	5.63664e+02	3.43900e+03	-3.32986e-03	5.63167e+02
3443	5.64324e+02	3.44300e+03	-3.23683e-03	5.63833e+02
3447	5.65006e+02	3.44700e+03	-3.16888e-03	5.64500e+02
3451	5.65674e+02	3.45100e+03	-3.18258e-03	5.65167e+02
3455	5.66348e+02	3.45500e+03	-3.25550e-03	5.65833e+02
3459	5.67016e+02	3.45900e+03	-3.31632e-03	5.66500e+02
3463	5.67693e+02	3.46300e+03	-3.34470e-03	5.67167e+02
3467	5.68361e+02	3.46700e+03	-3.34603e-03	5.67833e+02
3471	5.69036e+02	3.47100e+03	-3.33458e-03	5.68500e+02
3475	5.69725e+02	3.47500e+03	-3.32181e-03	5.69167e+02
3479	5.70380e+02	3.47900e+03	-3.28676e-03	5.69833e+02
3483	5.71058e+02	3.48300e+03	-3.28247e-03	5.70500e+02
3487	5.71727e+02	3.48700e+03	-3.29011e-03	5.71167e+02
3491	5.72414e+02	3.49100e+03	-3.25521e-03	5.71833e+02
3495	5.73090e+02	3.49500e+03	-3.25074e-03	5.72500e+02
3499	5.73775e+02	3.49900e+03	-3.27493e-03	5.73167e+02
3503	5.74458e+02	3.50300e+03	-3.26187e-03	5.73833e+02
3507	5.75126e+02	3.50700e+03	-3.26723e-03	5.74500e+02
3511	5.75802e+02	3.51100e+03	-3.36677e-03	5.75167e+02
3515	5.76476e+02	3.51500e+03	-3.49042e-03	5.75833e+02
3519	5.77141e+02	3.51900e+03	-3.53109e-03	5.76500e+02
3523	5.77810e+02	3.52300e+03	-3.46726e-03	5.77167e+02
3527	5.78491e+02	3.52700e+03	-3.34800e-03	5.77833e+02
3531	5.79159e+02	3.53100e+03	-3.28651e-03	5.78500e+02
3535	5.79834e+02	3.53500e+03	-3.28045e-03	5.79167e+02
3539	5.80507e+02	3.53900e+03	-3.25507e-03	5.79833e+02
3543	5.81178e+02	3.54300e+03	-3.25795e-03	5.80500e+02
3547	5.81845e+02	3.54700e+03	-3.33260e-03	5.81167e+02
3551	5.82522e+02	3.55100e+03	-3.41211e-03	5.81833e+02
3555	5.83193e+02	3.55500e+03	-3.43219e-03	5.82500e+02
3559	5.83863e+02	3.55900e+03	-3.44707e-03	5.83167e+02
3563	5.84526e+02	3.56300e+03	-3.45421e-03	5.83833e+02
3567	5.85194e+02	3.56700e+03	-3.40145e-03	5.84500e+02
3571	5.85835e+02	3.57100e+03	-3.38984e-03	5.85167e+02
3575	5.86503e+02	3.57500e+03	-3.48949e-03	5.85833e+02
3579	5.87165e+02	3.57900e+03	-3.57849e-03	5.86500e+02
3583	5.87806e+02	3.58300e+03	-3.55669e-03	5.87167e+02
3587	5.88460e+02	3.58700e+03	-3.48213e-03	5.87833e+02
3591	5.89121e+02	3.59100e+03	-3.48674e-03	5.88500e+02
3595	5.89783e+02	3.59500e+03	-3.59396e-03	5.89167e+02
3599	5.90431e+02	3.59900e+03	-3.69448e-03	5.89833e+02
3603	5.91089e+02	3.60300e+03	-3.73543e-03	5.90500e+02
3607	5.91751e+02	3.60700e+03	-3.72643e-03	5.91167e+02
3611	5.92408e+02	3.61100e+03	-3.65260e-03	5.91833e+02
3615	5.93074e+02	3.61500e+03	-3.53703e-03	5.92500e+02
3619	5.93730e+02	3.61900e+03	-3.46139e-03	5.93167e+02
3623	5.94384e+02	3.62300e+03	-3.43065e-03	5.93833e+02
3627	5.95044e+02	3.62700e+03	-3.43855e-03	5.94500e+02
3631	5.95691e+02	3.63100e+03	-3.48632e-03	5.95167e+02
3635	5.96346e+02	3.63500e+03	-3.51335e-03	5.95833e+02
3639	5.96991e+02	3.63900e+03	-3.50643e-03	5.96500e+02
3643	5.97650e+02	3.64300e+03	-3.53216e-03	5.97167e+02
3647	5.98317e+02	3.64700e+03	-3.59742e-03	5.97833e+02
3651	5.98982e+02	3.65100e+03	-3.62805e-03	5.98500e+02
3655	5.99643e+02	3.65500e+03	-3.58155e-03	5.99167e+02
3659	6.00299e+02	3.65900e+03	-3.52164e-03	5.99833e+02
3663	6.00948e+02	3.66300e+03	-3.56268e-03	6.00500e+02
3667	6.01609e+02	3.66700e+03	-3.68568e-03	6.01167e+02
3671	6.02274e+02	3.67100e+03	-3.75081e-03	6.01833e+02
3675	6.02952e+02	3.67500e+03	-3.71506e-03	6.02500e+02
3679	6.03621e+02	3.67900e+03	-3.69165e-03	6.03167e+02
3683	6.04283e+02	3.68300e+03	-3.71191e-03	6.03833e+02
3687	6.04945e+02	3.68700e+03	-3.71818e-03	6.04500e+02
3691	6.05618e+02	3.69100e+03	-3.71005e-03	6.05167e+02
3695	6.06283e+02	3.69500e+03	-3.72587e-03	6.05833e+02
3699	6.06954e+02	3.69900e+03	-3.75231e-03	6.06500e+02
3703	6.07626e+02	3.70300e+03	-3.72568e-03	6.07167e+02
3707	6.08300e+02	3.70700e+03	-3.65537e-03	6.07833e+02
3711	6.08965e+02	3.71100e+03	-3.62462e-03	6.08500e+02
3715	6.09635e+02	3.71500e+03	-3.64334e-03	6.09167e+02
3719	6.10295e+02	3.71900e+03	-3.68490e-03	6.09833e+02
3723	6.10956e+02	3.72300e+03	-3.69017e-03	6.10500e+02
3727	6.11616e+02	3.72700e+03	-3.65058e-03	6.11167e+02
3731	6.12285e+02	3.73100e+03	-3.64557e-03	6.11833e+02
3735	6.12943e+02	3.73500e+03	-3.68438e-03	6.12500e+02
3739	6.13606e+02	3.73900e+03	-3.72363e-03	6.13167e+02
3743	6.14265e+02	3.74300e+03	-3.75928e-03	6.13833e+02
3747	6.14939e+02	3.74700e+03	-3.82793e-03	6.14500e+02
3751	6.15592e+02	3.75100e+03	-3.90350e-03	6.15167e+02
3755	6.16259e+02	3.75500e+03	-3.96277e-03	6.15833e+02
3759	6.16913e+02	3.75900e+03	-3.99644e-03	6.16500e+02
3763	6.17583e+02	3.76300e+03	-3.99705e-03	6.17167e+02
3767	6.18251e+02	3.76700e+03	-3.95150e-03	6.17833e+02
3771	6.18919e+02	3.77100e+03	-3.86680e-03	6.18500e+02
3775	6.19590e+02	3.77500e+03	-3.82755e-03	6.19167e+02
3779	6.20258e+02	3.77900e+03	-3.86001e-03	6.19833e+02
3783	6.20939e+02	3.78300e+03	-3.87893e-03	6.20500e+02
3787	6.21598e+02	3.78700e+03	-3.83697e-03	6.21167e+02
3791	6.22260e+02	3.79100e+03	-3.81108e-03	6.21833e+02
3795	6.22926e+02	3.79500e+03	-3.82012e-03	6.22500e+02
3799	6.23585e+02	3.79900e+03	-3.79680e-03	6.23167e+02
3803	6.24234e+02	3.80300e+03	-3.74995e-03	6.23833e+02
3807	6.24903e+02	3.80700e+03	-3.74678e-03	6.24500e+02
3811	6.25561e+02	3.81100e+03	-3.83229e-03	6.25167e+02
3815	6.26222e+02	3.81500e+03	-3.89545e-03	6.25833e+02
3819	6.26878e+02	3.81900e+03	-3.89169e-03	6.26500e+02
3823	6.27544e+02	3.82300e+03	-3.92668e-03	6.27167e+02
3827	6.28205e+02	3.82700e+03	-3.96283e-03	6.27833e+02
3831	6.28864e+02	3.83100e+03	-3.93494e-03	6.28500e+02
3835	6.29525e+02	3.83500e+03	-3.87142e-03	6.29167e+02
3839	6.30198e+02	3.83900e+03	-3.84802e-03	6.29833e+02
3843	6.30866e+02	3.84300e+03	-3.88147e-03	6.30500e+02
3847	6.31528e+02	3.84700e+03	-3.91077e-03	6.31167e+02
3851	6.32196e+02	3.85100e+03	-3.95464e-03	6.31833e+02
3855	6.32850e+02	3.85500e+03	-3.99159e-03	6.32500e+02
3859	6.33520e+02	3.85900e+03	-3.95429e-03	6.33167e+02
3863	6.34180e+02	3.86300e+03	-3.96346e-03	6.33833e+02
3867	6.34856e+02	3.86700e+03	-4.07307e-03	6.34500e+02
3871	6.35519e+02	3.87100e+03	-4.13744e-03	6.35167e+02
3875	6.36190e+02	3.87500e+03	-4.12743e-03	6.35833e+02
3879	6.36858e+02	3.87900e+03	-4.08174e-03	6.36500e+02
3883	6.37521e+02	3.88300e+03	-3.97492e-03	6.37167e+02
3887	6.38194e+02	3.88700e+03	-3.84033e-03	6.37833e+02
3891	6.38863e+02	3.89100e+03	-3.79953e-03	6.38500e+02
3895	6.39527e+02	3.89500e+03	-3.88964e-03	6.39167e+02
3899	6.40186e+02	3.89900e+03	-4.02220e-03	6.39833e+02
3903	6.40855e+02	3.90300e+03	-4.03579e-03	6.40500e+02
3907	6.41516e+02	3.90700e+03	-3.97930e-03	6.41167e+02
3911	6.42190e+02	3.91100e+03	-3.96703e-03	6.41833e+02
3915	6.42848e+02	3.91500e+03	-3.97785e-03	6.42500e+02
3919	6.43505e+02	3.91900e+03	-4.01676e-03	6.43167e+02
3923	6.44163e+02	3.92300e+03	-4.10044e-03	6.43833e+02
3927	6.44836e+02	3.92700e+03	-4.22614e-03	6.44500e+02
3931	6.45508e+02	3.93100e+03	-4.31260e-03	6.45167e+02
3935	6.46172e+02	3.93500e+03	-4.35130e-03	6.45833e+02
3939	6.46839e+02	3.93900e+03	-4.33527e-03	6.46500e+02
3943	6.47496e+02	3.94300e+03	-4.21441e-03	6.47167e+02
3947	6.48175e+02	3.94700e+03	-4.07408e-03	6.47833e+02
3951	6.48858e+02	3.95100e+03	-4.02785e-03	6.48500e+02
3955	6.49517e+02	3.95500e+03	-4.01698e-03	6.49167e+02
3959	6.50196e+02	3.95900e+03	-4.00510e-03	6.49833e+02
3963	6.50855e+02	3.96300e+03	-4.03694e-03	6.50500e+02
3967	6.51550e+02	3.96700e+03	-4.09968e-03	6.51167e+02
3971	6.52217e+02	3.97100e+03	-4.22623e-03	6.51833e+02
3975	6.52886e+02	3.97500e+03	-4.34320e-03	6.52500e+02
3979	6.53563e+02	3.97900e+03	-4.34770e-03	6.53167e+02
3983	6.54234e+02	3.98300e+03	-4.33927e-03	6.53833e+02
3987	6.54905e+02	3.98700e+03	-4.39100e-03	6.54500e+02
3991	6.55569e+02	3.99100e+03	-4.42790e-03	6.55167e+02
3995	6.56225e+02	3.99500e+03	-4.44881e-03	6.55833e+02
3999	6.56898e+02	3.99900e+03	-4.50444e-03	6.56500e+02
4003	6.57559e+02	4.00300e+03	-4.55069e-03	6.57167e+02
4007	6.58222e+02	4.00700e+03	-4.53809e-03	6.57833e+02
4011	6.58877e+02	4.01100e+03	-4.51794e-03	6.58500e+02
4015	6.59547e+02	4.01500e+03	-4.57576e-03	6.59167e+02
4019	6.60208e+02	4.01900e+03	-4.66504e-03	6.59833e+02
4023	6.60874e+02	4.02300e+03	-4.69720e-03	6.60500e+02
4027	6.61539e+02	4.02700e+03	-4.66255e-03	6.61167e+02
4031	6.62185e+02	4.03100e+03	-4.59674e-03	6.61833e+02
4035	6.62849e+02	4.03500e+03	-4.53646e-03	6.62500e+02
4039	6.63512e+02	4.03900e+03	-4.48571e-03	6.63167e+02
4043	6.64170e+02	4.04300e+03	-4.43450e-03	6.63833e+02
4047	6.64836e+02	4.04700e+03	-4.44170e-03	6.64500e+02
4051	6.65489e+02	4.05100e+03	-4.55116e-03	6.65167e+02
4055	6.66157e+02	4.05500e+03	-4.64949e-03	6.65833e+02
4059	6.66819e+02	4.05900e+03	-4.66117e-03	6.66500e+02
4063	6.67491e+02	4.06300e+03	-4.60463e-03	6.67167e+02
4067	6.68147e+02	4.06700e+03	-4.53421e-03	6.67833e+02
4071	6.68813e+02	4.07100e+03	-4.53693e-03	6.68500e+02
4075	6.69472e+02	4.07500e+03	-4.54790e-03	6.69167e+02
4079	6.70141e+02	4.07900e+03	-4.55795e-03	6.69833e+02
4083	6.70812e+02	4.08300e+03	-4.61287e-03	6.70500e+02
4087	6.71474e+02	4.08700e+03	-4.63302e-03	6.71167e+02
4091	6.72138e+02	4.09100e+03	-4.62513e-03	6.71833e+02
4095	6.72800e+02	4.09500e+03	-4.63078e-03	6.72500e+02
4099	6.73454e+02	4.09900e+03	-4.60172e-03	6.73167e+02
4103	6.74115e+02	4.10300e+03	-4.54120e-03	6.73833e+02
4107	6.74776e+02	4.10700e+03	-4.49459e-03	6.74500e+02
4111	6.75459e+02	4.11100e+03	-4.49575e-03	6.75167e+02
4115	6.76114e+02	4.11500e+03	-4.56942e-03	6.75833e+02
4119	6.76762e+02	4.11900e+03	-4.64394e-03	6.76500e+02
4123	6.77424e+02	4.12300e+03	-4.68191e-03	6.77167e+02
4127	6.78089e+02	4.12700e+03	-4.74717e-03	6.77833e+02
4131	6.78745e+02	4.13100e+03	-4.79514e-03	6.78500e+02
4135	6.79401e+02	4.13500e+03	-4.77050e-03	6.79167e+02
4139	6.80066e+02	4.13900e+03	-4.78339e-03	6.79833e+02
4143	6.80729e+02	4.14300e+03	-4.87306e-03	6.80500e+02
4147	6.81392e+02	4.14700e+03	-4.93061e-03	6.81167e+02
4151	6.82055e+02	4.15100e+03	-4.91464e-03	6.81833e+02
4155	6.82724e+02	4.15500e+03	-4.87286e-03	6.82500e+02
4159	6.83391e+02	4.15900e+03	-4.82370e-03	6.83167e+02
4163	6.84058e+02	4.16300e+03	-4.76905e-03	6.83833e+02
4167	6.84724e+02	4.16700e+03	-4.70701e-03	6.84500e+02
4171	6.85395e+02	4.17100e+03	-4.68804e-03	6.85167e+02
4175	6.86063e+02	4.17500e+03	-4.70336e-03	6.85833e+02
4179	6.86728e+02	4.17900e+03	-4.68982e-03	6.86500e+02
4183	6.87387e+02	4.18300e+03	-4.70266e-03	6.87167e+02
4187	6.88077e+02	4.18700e+03	-4.73410e-03	6.87833e+02
4191	6.88734e+02	4.19100e+03	-4.73714e-03	6.88500e+02
4195	6.89407e+02	4.19500e+03	-4.71927e-03	6.89167e+02
4199	6.90073e+02	4.19900e+03	-4.63011e-03	6.89833e+02
4203	6.90754e+02	4.20300e+03	-4.48029e-03	6.90500e+02
4207	6.91415e+02	4.20700e+03	-4.34801e-03	6.91167e+02
4211	6.92089e+02	4.21100e+03	-4.28928e-03	6.91833e+02
4215	6.92769e+02	4.21500e+03	-4.31440e-03	6.92500e+02
4219	6.93432e+02	4.21900e+03	-4.37929e-03	6.93167e+02
4223	6.94092e+02	4.22300e+03	-4.46616e-03	6.93833e+02
4227	6.94760e+02	4.22700e+03	-4.55556e-03	6.94500e+02
4231	6.95439e+02	4.23100e+03	-4.60143e-03	6.95167e+02
4235	6.96022e+02	4.23500e+03	-4.58142e-03	6.95833e+02
4239	6.96464e+02	4.23900e+03	-4.53779e-03	6.96500e+02
4243	6.96944e+02	4.24300e+03	-4.49865e-03	6.97167e+02
4247	6.97369e+02	4.24700e+03	-4.50219e-03	6.97833e+02
4251	6.97753e+02	4.25100e+03	-4.55669e-03	6.98500e+02
4255	6.98087e+02	4.25500e+03	-4.57648e-03	6.99167e+02
4259	6.98362e+02	4.25900e+03	-4.59109e-03	6.99833e+02
4260	6.98426e+02	4.26000e+03	-4.60280e-03	7.00000e+02