File: Experiments/TUBS/tga_nonisotherm/tga_dynamic_n2_dyn60_powder_2mg_r3.txt
index	ts	t	weight	tr
[#]	[°C]	[s]	[mg]	[°C]
643	1.30594e+02	6.43000e+02	2.00922e+00	1.33000e+02
644	1.31605e+02	6.44000e+02	2.00920e+00	1.34000e+02
645	1.32628e+02	6.45000e+02	2.00917e+00	1.35000e+02
646	1.33632e+02	6.46000e+02	2.00913e+00	1.36000e+02
647	1.34659e+02	6.47000e+02	2.00909e+00	1.37000e+02
648	1.35674e+02	6.48000e+02	2.00905e+00	1.38000e+02
649	1.36663e+02	6.49000e+02	2.00900e+00	1.39000e+02
650	1.37686e+02	6.50000e+02	2.00895e+00	1.40000e+02
651	1.38702e+02	6.51000e+02	2.00890e+00	1.41000e+02
652	1.39702e+02	6.52000e+02	2.00883e+00	1.42000e+02
653	1.40710e+02	6.53000e+02	2.00876e+00	1.43000e+02
654	1.41720e+02	6.54000e+02	2.00868e+00	1.44000e+02
655	1.42723e+02	6.55000e+02	2.00860e+00	1.45000e+02
656	1.43742e+02	6.56000e+02	2.00850e+00	1.46000e+02
657	1.44740e+02	6.57000e+02	2.00841e+00	1.47000e+02
658	1.45752e+02	6.58000e+02	2.00832e+00	1.48000e+02
659	1.46750e+02	6.59000e+02	2.00822e+00	1.49000e+02
660	1.47775e+02	6.60000e+02	2.00810e+00	1.50000e+02
661	1.48770e+02	6.61000e+02	2.00799e+00	1.51000e+02
662	1.49775e+02	6.62000e+02	2.00786e+00	1.52000e+02
663	1.50778e+02	6.63000e+02	2.00772e+00	1.53000e+02
664	1.51788e+02	6.64000e+02	2.00754e+00	1.54000e+02
665	1.52788e+02	6.65000e+02	2.00736e+00	1.55000e+02
666	1.53790e+02	6.66000e+02	2.00717e+00	1.56000e+02
667	1.54800e+02	6.67000e+02	2.00697e+00	1.57000e+02
668	1.55797e+02	6.68000e+02	2.00672e+00	1.58000e+02
669	1.56797e+02	6.69000e+02	2.00648e+00	1.59000e+02
670	1.57801e+02	6.70000e+02	2.00624e+00	1.60000e+02
671	1.58801e+02	6.71000e+02	2.00599e+00	1.61000e+02
672	1.59811e+02	6.72000e+02	2.00571e+00	1.62000e+02
673	1.60806e+02	6.73000e+02	2.00544e+00	1.63000e+02
674	1.61803e+02	6.74000e+02	2.00516e+00	1.64000e+02
675	1.62797e+02	6.75000e+02	2.00488e+00	1.65000e+02
676	1.63810e+02	6.76000e+02	2.00458e+00	1.66000e+02
677	1.64799e+02	6.77000e+02	2.00429e+00	1.67000e+02
678	1.65795e+02	6.78000e+02	2.00399e+00	1.68000e+02
679	1.66801e+02	6.79000e+02	2.00368e+00	1.69000e+02
680	1.67803e+02	6.80000e+02	2.00336e+00	1.70000e+02
681	1.68796e+02	6.81000e+02	2.00304e+00	1.71000e+02
682	1.69797e+02	6.82000e+02	2.00271e+00	1.72000e+02
683	1.70801e+02	6.83000e+02	2.00237e+00	1.73000e+02
684	1.71792e+02	6.84000e+02	2.00200e+00	1.74000e+02
685	1.72791e+02	6.85000e+02	2.00162e+00	1.75000e+02
686	1.73788e+02	6.86000e+02	2.00123e+00	1.76000e+02
687	1.74794e+02	6.87000e+02	2.00082e+00	1.77000e+02
688	1.75788e+02	6.88000e+02	2.00035e+00	1.78000e+02
689	1.76786e+02	6.89000e+02	1.99988e+00	1.79000e+02
690	1.77790e+02	6.90000e+02	1.99938e+00	1.80000e+02
691	1.78771e+02	6.91000e+02	1.99887e+00	1.81000e+02
692	1.79775e+02	6.92000e+02	1.99826e+00	1.82000e+02
693	1.80771e+02	6.93000e+02	1.99765e+00	1.83000e+02
694	1.81774e+02	6.94000e+02	1.99701e+00	1.84000e+02
695	1.82770e+02	6.95000e+02	1.99634e+00	1.85000e+02
696	1.83769e+02	6.96000e+02	1.99554e+00	1.86000e+02
697	1.84763e+02	6.97000e+02	1.99475e+00	1.87000e+02
698	1.85775e+02	6.98000e+02	1.99392e+00	1.88000e+02
699	1.86767e+02	6.99000e+02	1.99304e+00	1.89000e+02
700	1.87759e+02	7.00000e+02	1.99199e+00	1.90000e+02
701	1.88751e+02	7.01000e+02	1.99095e+00	1.91000e+02
702	1.89752e+02	7.02000e+02	1.98985e+00	1.92000e+02
703	1.90747e+02	7.03000e+02	1.98871e+00	1.93000e+02
704	1.91748e+02	7.04000e+02	1.98735e+00	1.94000e+02
705	1.92742e+02	7.05000e+02	1.98602e+00	1.95000e+02
706	1.93744e+02	7.06000e+02	1.98464e+00	1.96000e+02
707	1.94756e+02	7.07000e+02	1.98322e+00	1.97000e+02
708	1.95750e+02	7.08000e+02	1.98158e+00	1.98000e+02
709	1.96745e+02	7.09000e+02	1.97998e+00	1.99000e+02
710	1.97741e+02	7.10000e+02	1.97834e+00	2.00000e+02
711	1.98744e+02	7.11000e+02	1.97668e+00	2.01000e+02
712	1.99737e+02	7.12000e+02	1.97484e+00	2.02000e+02
713	2.00736e+02	7.13000e+02	1.97305e+00	2.03000e+02
714	2.01744e+02	7.14000e+02	1.97125e+00	2.04000e+02
715	2.02736e+02	7.15000e+02	1.96944e+00	2.05000e+02
716	2.03742e+02	7.16000e+02	1.96754e+00	2.06000e+02
717	2.04739e+02	7.17000e+02	1.96569e+00	2.07000e+02
718	2.05740e+02	7.18000e+02	1.96384e+00	2.08000e+02
719	2.06742e+02	7.19000e+02	1.96200e+00	2.09000e+02
720	2.07753e+02	7.20000e+02	1.96019e+00	2.10000e+02
721	2.08751e+02	7.21000e+02	1.95842e+00	2.11000e+02
722	2.09763e+02	7.22000e+02	1.95669e+00	2.12000e+02
723	2.10760e+02	7.23000e+02	1.95499e+00	2.13000e+02
724	2.11766e+02	7.24000e+02	1.95346e+00	2.14000e+02
725	2.12775e+02	7.25000e+02	1.95194e+00	2.15000e+02
726	2.13777e+02	7.26000e+02	1.95048e+00	2.16000e+02
727	2.14780e+02	7.27000e+02	1.94906e+00	2.17000e+02
728	2.15780e+02	7.28000e+02	1.94788e+00	2.18000e+02
729	2.16787e+02	7.29000e+02	1.94667e+00	2.19000e+02
730	2.17797e+02	7.30000e+02	1.94551e+00	2.20000e+02
731	2.18799e+02	7.31000e+02	1.94440e+00	2.21000e+02
732	2.19805e+02	7.32000e+02	1.94352e+00	2.22000e+02
733	2.20826e+02	7.33000e+02	1.94259e+00	2.23000e+02
734	2.21833e+02	7.34000e+02	1.94170e+00	2.24000e+02
735	2.22858e+02	7.35000e+02	1.94085e+00	2.25000e+02
736	2.23878e+02	7.36000e+02	1.94018e+00	2.26000e+02
737	2.24865e+02	7.37000e+02	1.93946e+00	2.27000e+02
738	2.25877e+02	7.38000e+02	1.93876e+00	2.28000e+02
739	2.26895e+02	7.39000e+02	1.93810e+00	2.29000e+02
740	2.27911e+02	7.40000e+02	1.93756e+00	2.30000e+02
741	2.28909e+02	7.41000e+02	1.93699e+00	2.31000e+02
742	2.29946e+02	7.42000e+02	1.93644e+00	2.32000e+02
743	2.30970e+02	7.43000e+02	1.93590e+00	2.33000e+02
744	2.31986e+02	7.44000e+02	1.93545e+00	2.34000e+02
745	2.32999e+02	7.45000e+02	1.93496e+00	2.35000e+02
746	2.34007e+02	7.46000e+02	1.93447e+00	2.36000e+02
747	2.35034e+02	7.47000e+02	1.93399e+00	2.37000e+02
748	2.36047e+02	7.48000e+02	1.93354e+00	2.38000e+02
749	2.37060e+02	7.49000e+02	1.93307e+00	2.39000e+02
750	2.38086e+02	7.50000e+02	1.93261e+00	2.40000e+02
751	2.39100e+02	7.51000e+02	1.93215e+00	2.41000e+02
752	2.40103e+02	7.52000e+02	1.93170e+00	2.42000e+02
753	2.41117e+02	7.53000e+02	1.93124e+00	2.43000e+02
754	2.42121e+02	7.54000e+02	1.93077e+00	2.44000e+02
755	2.43119e+02	7.55000e+02	1.93029e+00	2.45000e+02
756	2.44123e+02	7.56000e+02	1.92979e+00	2.46000e+02
757	2.45130e+02	7.57000e+02	1.92929e+00	2.47000e+02
758	2.46140e+02	7.58000e+02	1.92879e+00	2.48000e+02
759	2.47152e+02	7.59000e+02	1.92828e+00	2.49000e+02
760	2.48158e+02	7.60000e+02	1.92775e+00	2.50000e+02
761	2.49166e+02	7.61000e+02	1.92723e+00	2.51000e+02
762	2.50183e+02	7.62000e+02	1.92671e+00	2.52000e+02
763	2.51187e+02	7.63000e+02	1.92619e+00	2.53000e+02
764	2.52196e+02	7.64000e+02	1.92566e+00	2.54000e+02
765	2.53202e+02	7.65000e+02	1.92513e+00	2.55000e+02
766	2.54215e+02	7.66000e+02	1.92460e+00	2.56000e+02
767	2.55215e+02	7.67000e+02	1.92407e+00	2.57000e+02
768	2.56216e+02	7.68000e+02	1.92354e+00	2.58000e+02
769	2.57241e+02	7.69000e+02	1.92302e+00	2.59000e+02
770	2.58251e+02	7.70000e+02	1.92251e+00	2.60000e+02
771	2.59265e+02	7.71000e+02	1.92200e+00	2.61000e+02
772	2.60309e+02	7.72000e+02	1.92151e+00	2.62000e+02
773	2.61312e+02	7.73000e+02	1.92102e+00	2.63000e+02
774	2.62335e+02	7.74000e+02	1.92054e+00	2.64000e+02
775	2.63348e+02	7.75000e+02	1.92006e+00	2.65000e+02
776	2.64359e+02	7.76000e+02	1.91961e+00	2.66000e+02
777	2.65390e+02	7.77000e+02	1.91916e+00	2.67000e+02
778	2.66407e+02	7.78000e+02	1.91872e+00	2.68000e+02
779	2.67424e+02	7.79000e+02	1.91828e+00	2.69000e+02
780	2.68439e+02	7.80000e+02	1.91787e+00	2.70000e+02
781	2.69464e+02	7.81000e+02	1.91745e+00	2.71000e+02
782	2.70480e+02	7.82000e+02	1.91704e+00	2.72000e+02
783	2.71488e+02	7.83000e+02	1.91662e+00	2.73000e+02
784	2.72512e+02	7.84000e+02	1.91622e+00	2.74000e+02
785	2.73527e+02	7.85000e+02	1.91581e+00	2.75000e+02
786	2.74528e+02	7.86000e+02	1.91540e+00	2.76000e+02
787	2.75552e+02	7.87000e+02	1.91499e+00	2.77000e+02
788	2.76559e+02	7.88000e+02	1.91457e+00	2.78000e+02
789	2.77564e+02	7.89000e+02	1.91416e+00	2.79000e+02
790	2.78583e+02	7.90000e+02	1.91373e+00	2.80000e+02
791	2.79602e+02	7.91000e+02	1.91330e+00	2.81000e+02
792	2.80633e+02	7.92000e+02	1.91285e+00	2.82000e+02
793	2.81646e+02	7.93000e+02	1.91239e+00	2.83000e+02
794	2.82675e+02	7.94000e+02	1.91192e+00	2.84000e+02
795	2.83687e+02	7.95000e+02	1.91145e+00	2.85000e+02
796	2.84697e+02	7.96000e+02	1.91093e+00	2.86000e+02
797	2.85714e+02	7.97000e+02	1.91041e+00	2.87000e+02
798	2.86734e+02	7.98000e+02	1.90987e+00	2.88000e+02
799	2.87754e+02	7.99000e+02	1.90931e+00	2.89000e+02
800	2.88768e+02	8.00000e+02	1.90868e+00	2.90000e+02
801	2.89780e+02	8.01000e+02	1.90804e+00	2.91000e+02
802	2.90797e+02	8.02000e+02	1.90737e+00	2.92000e+02
803	2.91803e+02	8.03000e+02	1.90668e+00	2.93000e+02
804	2.92825e+02	8.04000e+02	1.90587e+00	2.94000e+02
805	2.93855e+02	8.05000e+02	1.90506e+00	2.95000e+02
806	2.94859e+02	8.06000e+02	1.90422e+00	2.96000e+02
807	2.95880e+02	8.07000e+02	1.90334e+00	2.97000e+02
808	2.96904e+02	8.08000e+02	1.90230e+00	2.98000e+02
809	2.97908e+02	8.09000e+02	1.90126e+00	2.99000e+02
810	2.98916e+02	8.10000e+02	1.90018e+00	3.00000e+02
811	2.99936e+02	8.11000e+02	1.89906e+00	3.01000e+02
812	3.00936e+02	8.12000e+02	1.89772e+00	3.02000e+02
813	3.01953e+02	8.13000e+02	1.89640e+00	3.03000e+02
814	3.02970e+02	8.14000e+02	1.89503e+00	3.04000e+02
815	3.03991e+02	8.15000e+02	1.89360e+00	3.05000e+02
816	3.04982e+02	8.16000e+02	1.89193e+00	3.06000e+02
817	3.06005e+02	8.17000e+02	1.89029e+00	3.07000e+02
818	3.07015e+02	8.18000e+02	1.88860e+00	3.08000e+02
819	3.08030e+02	8.19000e+02	1.88685e+00	3.09000e+02
820	3.09043e+02	8.20000e+02	1.88485e+00	3.10000e+02
821	3.10055e+02	8.21000e+02	1.88288e+00	3.11000e+02
822	3.11071e+02	8.22000e+02	1.88084e+00	3.12000e+02
823	3.12094e+02	8.23000e+02	1.87876e+00	3.13000e+02
824	3.13098e+02	8.24000e+02	1.87641e+00	3.14000e+02
825	3.14106e+02	8.25000e+02	1.87409e+00	3.15000e+02
826	3.15117e+02	8.26000e+02	1.87173e+00	3.16000e+02
827	3.16126e+02	8.27000e+02	1.86932e+00	3.17000e+02
828	3.17143e+02	8.28000e+02	1.86666e+00	3.18000e+02
829	3.18156e+02	8.29000e+02	1.86406e+00	3.19000e+02
830	3.19154e+02	8.30000e+02	1.86143e+00	3.20000e+02
831	3.20155e+02	8.31000e+02	1.85877e+00	3.21000e+02
832	3.21163e+02	8.32000e+02	1.85594e+00	3.22000e+02
833	3.22201e+02	8.33000e+02	1.85315e+00	3.23000e+02
834	3.23210e+02	8.34000e+02	1.85034e+00	3.24000e+02
835	3.24236e+02	8.35000e+02	1.84750e+00	3.25000e+02
836	3.25244e+02	8.36000e+02	1.84455e+00	3.26000e+02
837	3.26273e+02	8.37000e+02	1.84164e+00	3.27000e+02
838	3.27310e+02	8.38000e+02	1.83871e+00	3.28000e+02
839	3.28330e+02	8.39000e+02	1.83577e+00	3.29000e+02
840	3.29360e+02	8.40000e+02	1.83275e+00	3.30000e+02
841	3.30386e+02	8.41000e+02	1.82975e+00	3.31000e+02
842	3.31399e+02	8.42000e+02	1.82672e+00	3.32000e+02
843	3.32430e+02	8.43000e+02	1.82366e+00	3.33000e+02
844	3.33432e+02	8.44000e+02	1.82049e+00	3.34000e+02
845	3.34438e+02	8.45000e+02	1.81729e+00	3.35000e+02
846	3.35450e+02	8.46000e+02	1.81402e+00	3.36000e+02
847	3.36461e+02	8.47000e+02	1.81069e+00	3.37000e+02
848	3.37491e+02	8.48000e+02	1.80709e+00	3.38000e+02
849	3.38509e+02	8.49000e+02	1.80346e+00	3.39000e+02
850	3.39566e+02	8.50000e+02	1.79972e+00	3.40000e+02
851	3.40579e+02	8.51000e+02	1.79587e+00	3.41000e+02
852	3.41612e+02	8.52000e+02	1.79152e+00	3.42000e+02
853	3.42641e+02	8.53000e+02	1.78717e+00	3.43000e+02
854	3.43671e+02	8.54000e+02	1.78263e+00	3.44000e+02
855	3.44673e+02	8.55000e+02	1.77795e+00	3.45000e+02
856	3.45685e+02	8.56000e+02	1.77249e+00	3.46000e+02
857	3.46731e+02	8.57000e+02	1.76707e+00	3.47000e+02
858	3.47718e+02	8.58000e+02	1.76140e+00	3.48000e+02
859	3.48721e+02	8.59000e+02	1.75553e+00	3.49000e+02
860	3.49715e+02	8.60000e+02	1.74862e+00	3.50000e+02
861	3.50744e+02	8.61000e+02	1.74175e+00	3.51000e+02
862	3.51755e+02	8.62000e+02	1.73459e+00	3.52000e+02
863	3.52776e+02	8.63000e+02	1.72716e+00	3.53000e+02
864	3.53830e+02	8.64000e+02	1.71841e+00	3.54000e+02
865	3.54842e+02	8.65000e+02	1.70977e+00	3.55000e+02
866	3.55859e+02	8.66000e+02	1.70079e+00	3.56000e+02
867	3.56880e+02	8.67000e+02	1.69149e+00	3.57000e+02
868	3.57893e+02	8.68000e+02	1.68063e+00	3.58000e+02
869	3.58907e+02	8.69000e+02	1.66991e+00	3.59000e+02
870	3.59912e+02	8.70000e+02	1.65879e+00	3.60000e+02
871	3.60929e+02	8.71000e+02	1.64733e+00	3.61000e+02
872	3.61924e+02	8.72000e+02	1.63407e+00	3.62000e+02
873	3.62912e+02	8.73000e+02	1.62101e+00	3.63000e+02
874	3.63909e+02	8.74000e+02	1.60754e+00	3.64000e+02
875	3.64908e+02	8.75000e+02	1.59370e+00	3.65000e+02
876	3.65910e+02	8.76000e+02	1.57793e+00	3.66000e+02
877	3.66903e+02	8.77000e+02	1.56238e+00	3.67000e+02
878	3.67888e+02	8.78000e+02	1.54641e+00	3.68000e+02
879	3.68867e+02	8.79000e+02	1.53005e+00	3.69000e+02
880	3.69880e+02	8.80000e+02	1.51169e+00	3.70000e+02
881	3.70874e+02	8.81000e+02	1.49363e+00	3.71000e+02
882	3.71858e+02	8.82000e+02	1.47516e+00	3.72000e+02
883	3.72850e+02	8.83000e+02	1.45633e+00	3.73000e+02
884	3.73854e+02	8.84000e+02	1.43559e+00	3.74000e+02
885	3.74861e+02	8.85000e+02	1.41513e+00	3.75000e+02
886	3.75855e+02	8.86000e+02	1.39429e+00	3.76000e+02
887	3.76842e+02	8.87000e+02	1.37311e+00	3.77000e+02
888	3.77838e+02	8.88000e+02	1.35014e+00	3.78000e+02
889	3.78837e+02	8.89000e+02	1.32744e+00	3.79000e+02
890	3.79816e+02	8.90000e+02	1.30440e+00	3.80000e+02
891	3.80808e+02	8.91000e+02	1.28104e+00	3.81000e+02
892	3.81798e+02	8.92000e+02	1.25601e+00	3.82000e+02
893	3.82797e+02	8.93000e+02	1.23121e+00	3.83000e+02
894	3.83814e+02	8.94000e+02	1.20608e+00	3.84000e+02
895	3.84809e+02	8.95000e+02	1.18065e+00	3.85000e+02
896	3.85807e+02	8.96000e+02	1.15367e+00	3.86000e+02
897	3.86779e+02	8.97000e+02	1.12696e+00	3.87000e+02
898	3.87796e+02	8.98000e+02	1.09998e+00	3.88000e+02
899	3.88792e+02	8.99000e+02	1.07275e+00	3.89000e+02
900	3.89788e+02	9.00000e+02	1.04421e+00	3.90000e+02
901	3.90854e+02	9.01000e+02	1.01595e+00	3.91000e+02
902	3.91913e+02	9.02000e+02	9.87500e-01	3.92000e+02
903	3.92944e+02	9.03000e+02	9.58865e-01	3.93000e+02
904	3.93974e+02	9.04000e+02	9.29322e-01	3.94000e+02
905	3.95000e+02	9.05000e+02	9.00054e-01	3.95000e+02
906	3.96019e+02	9.06000e+02	8.70750e-01	3.96000e+02
907	3.96996e+02	9.07000e+02	8.41387e-01	3.97000e+02
908	3.98005e+02	9.08000e+02	8.11693e-01	3.98000e+02
909	3.99021e+02	9.09000e+02	7.82217e-01	3.99000e+02
910	4.00037e+02	9.10000e+02	7.52829e-01	4.00000e+02
911	4.01042e+02	9.11000e+02	7.23482e-01	4.01000e+02
912	4.02048e+02	9.12000e+02	6.94378e-01	4.02000e+02
913	4.03050e+02	9.13000e+02	6.65363e-01	4.03000e+02
914	4.04067e+02	9.14000e+02	6.36539e-01	4.04000e+02
915	4.05089e+02	9.15000e+02	6.07864e-01	4.05000e+02
916	4.06148e+02	9.16000e+02	5.79936e-01	4.06000e+02
917	4.07187e+02	9.17000e+02	5.52097e-01	4.07000e+02
918	4.08236e+02	9.18000e+02	5.24600e-01	4.08000e+02
919	4.09302e+02	9.19000e+02	4.97388e-01	4.09000e+02
920	4.10310e+02	9.20000e+02	4.71587e-01	4.10000e+02
921	4.11346e+02	9.21000e+02	4.45759e-01	4.11000e+02
922	4.12374e+02	9.22000e+02	4.20399e-01	4.12000e+02
923	4.13413e+02	9.23000e+02	3.95445e-01	4.13000e+02
924	4.14490e+02	9.24000e+02	3.72212e-01	4.14000e+02
925	4.15566e+02	9.25000e+02	3.48443e-01	4.15000e+02
926	4.16671e+02	9.26000e+02	3.25707e-01	4.16000e+02
927	4.17713e+02	9.27000e+02	3.03597e-01	4.17000e+02
928	4.18795e+02	9.28000e+02	2.83929e-01	4.18000e+02
929	4.19842e+02	9.29000e+02	2.64204e-01	4.19000e+02
930	4.20865e+02	9.30000e+02	2.45181e-01	4.20000e+02
931	4.21854e+02	9.31000e+02	2.26755e-01	4.21000e+02
932	4.23011e+02	9.32000e+02	2.10628e-01	4.22000e+02
933	4.24248e+02	9.33000e+02	1.94482e-01	4.23000e+02
934	4.25348e+02	9.34000e+02	1.79358e-01	4.24000e+02
935	4.26179e+02	9.35000e+02	1.65473e-01	4.25000e+02
936	4.27061e+02	9.36000e+02	1.52841e-01	4.26000e+02
937	4.27910e+02	9.37000e+02	1.39829e-01	4.27000e+02
938	4.28780e+02	9.38000e+02	1.27316e-01	4.28000e+02
939	4.29809e+02	9.39000e+02	1.16341e-01	4.29000e+02
940	4.30833e+02	9.40000e+02	1.06841e-01	4.30000e+02
941	4.31838e+02	9.41000e+02	9.70759e-02	4.31000e+02
942	4.32930e+02	9.42000e+02	8.77966e-02	4.32000e+02
943	4.33944e+02	9.43000e+02	7.89537e-02	4.33000e+02
944	4.34969e+02	9.44000e+02	7.21327e-02	4.34000e+02
945	4.35976e+02	9.45000e+02	6.49654e-02	4.35000e+02
946	4.36989e+02	9.46000e+02	5.81549e-02	4.36000e+02
947	4.37809e+02	9.47000e+02	5.16848e-02	4.37000e+02
948	4.38613e+02	9.48000e+02	4.69758e-02	4.38000e+02
949	4.39669e+02	9.49000e+02	4.19366e-02	4.39000e+02
950	4.40732e+02	9.50000e+02	3.71716e-02	4.40000e+02
951	4.41765e+02	9.51000e+02	3.26774e-02	4.41000e+02
952	4.42702e+02	9.52000e+02	2.95812e-02	4.42000e+02
953	4.43668e+02	9.53000e+02	2.61985e-02	4.43000e+02
954	4.44682e+02	9.54000e+02	2.30102e-02	4.44000e+02
955	4.45634e+02	9.55000e+02	2.00202e-02	4.45000e+02
956	4.46653e+02	9.56000e+02	1.80559e-02	4.46000e+02
957	4.47604e+02	9.57000e+02	1.58621e-02	4.47000e+02
958	4.48593e+02	9.58000e+02	1.37964e-02	4.48000e+02
959	4.49619e+02	9.59000e+02	1.18666e-02	4.49000e+02
960	4.50608e+02	9.60000e+02	1.06368e-02	4.50000e+02
961	4.51699e+02	9.61000e+02	9.24747e-03	4.51000e+02
962	4.52734e+02	9.62000e+02	7.94393e-03	4.52000e+02
963	4.53742e+02	9.63000e+02	6.73260e-03	4.53000e+02
964	4.54735e+02	9.64000e+02	5.99219e-03	4.54000e+02
965	4.55730e+02	9.65000e+02	5.14239e-03	4.55000e+02
966	4.56735e+02	9.66000e+02	4.34594e-03	4.56000e+02
967	4.57736e+02	9.67000e+02	3.60786e-03	4.57000e+02
968	4.58711e+02	9.68000e+02	3.17545e-03	4.58000e+02
969	4.59710e+02	9.69000e+02	2.66702e-03	4.59000e+02
970	4.60703e+02	9.70000e+02	2.19275e-03	4.60000e+02
971	4.61703e+02	9.71000e+02	1.75713e-03	4.61000e+02
972	4.62700e+02	9.72000e+02	1.50954e-03	4.62000e+02
973	4.63778e+02	9.73000e+02	1.21603e-03	4.63000e+02
974	4.64792e+02	9.74000e+02	9.43395e-04	4.64000e+02
975	4.65866e+02	9.75000e+02	6.94568e-04	4.65000e+02
976	4.66676e+02	9.76000e+02	5.64071e-04	4.66000e+02
977	4.67730e+02	9.77000e+02	4.01870e-04	4.67000e+02
978	4.68600e+02	9.78000e+02	2.50014e-04	4.68000e+02
979	4.69539e+02	9.79000e+02	1.10715e-04	4.69000e+02
980	4.70558e+02	9.80000e+02	3.74539e-05	4.70000e+02
981	4.71573e+02	9.81000e+02	-5.23387e-05	4.71000e+02
982	4.72528e+02	9.82000e+02	-1.34564e-04	4.72000e+02
983	4.73456e+02	9.83000e+02	-2.08219e-04	4.73000e+02
984	4.74401e+02	9.84000e+02	-2.42715e-04	4.74000e+02
985	4.75373e+02	9.85000e+02	-2.88210e-04	4.75000e+02
986	4.76359e+02	9.86000e+02	-3.31485e-04	4.76000e+02
987	4.77315e+02	9.87000e+02	-3.71121e-04	4.77000e+02
988	4.78287e+02	9.88000e+02	-3.90800e-04	4.78000e+02
989	4.79280e+02	9.89000e+02	-4.18589e-04	4.79000e+02
990	4.80285e+02	9.90000e+02	-4.46610e-04	4.80000e+02
991	4.81263e+02	9.91000e+02	-4.73657e-04	4.81000e+02
992	4.82221e+02	9.92000e+02	-4.97031e-04	4.82000e+02
993	4.83184e+02	9.93000e+02	-5.22421e-04	4.83000e+02
994	4.84155e+02	9.94000e+02	-5.48477e-04	4.84000e+02
995	4.85156e+02	9.95000e+02	-5.74868e-04	4.85000e+02
996	4.86133e+02	9.96000e+02	-5.99291e-04	4.86000e+02
997	4.87097e+02	9.97000e+02	-6.21539e-04	4.87000e+02
998	4.88064e+02	9.98000e+02	-6.41085e-04	4.88000e+02
999	4.89028e+02	9.99000e+02	-6.58709e-04	4.89000e+02
1000	4.89990e+02	1.00000e+03	-6.67286e-04	4.90000e+02
1001	4.90999e+02	1.00100e+03	-6.75887e-04	4.91000e+02
1002	4.92012e+02	1.00200e+03	-6.83435e-04	4.92000e+02
1003	4.93000e+02	1.00300e+03	-6.90552e-04	4.93000e+02
1004	4.94045e+02	1.00400e+03	-6.91227e-04	4.94000e+02
1005	4.95039e+02	1.00500e+03	-6.98641e-04	4.95000e+02
1006	4.96015e+02	1.00600e+03	-7.09238e-04	4.96000e+02
1007	4.97004e+02	1.00700e+03	-7.21024e-04	4.97000e+02
1008	4.98011e+02	1.00800e+03	-7.41267e-04	4.98000e+02
1009	4.99048e+02	1.00900e+03	-7.59239e-04	4.99000e+02
1010	5.00013e+02	1.01000e+03	-7.77599e-04	5.00000e+02
1011	5.01067e+02	1.01100e+03	-7.96532e-04	5.01000e+02
1012	5.02123e+02	1.01200e+03	-8.19377e-04	5.02000e+02
1013	5.03247e+02	1.01300e+03	-8.38724e-04	5.03000e+02
1014	5.04294e+02	1.01400e+03	-8.56423e-04	5.04000e+02
1015	5.05229e+02	1.01500e+03	-8.73712e-04	5.05000e+02
1016	5.06188e+02	1.01600e+03	-8.84524e-04	5.06000e+02
1017	5.07122e+02	1.01700e+03	-8.93011e-04	5.07000e+02
1018	5.08055e+02	1.01800e+03	-8.98549e-04	5.08000e+02
1019	5.08991e+02	1.01900e+03	-9.02192e-04	5.09000e+02
1020	5.09947e+02	1.02000e+03	-8.93420e-04	5.10000e+02
1021	5.10910e+02	1.02100e+03	-8.87303e-04	5.11000e+02
1022	5.11868e+02	1.02200e+03	-8.81736e-04	5.12000e+02
1023	5.12827e+02	1.02300e+03	-8.76866e-04	5.13000e+02
1024	5.13798e+02	1.02400e+03	-8.72284e-04	5.14000e+02
1025	5.14767e+02	1.02500e+03	-8.74764e-04	5.15000e+02
1026	5.15723e+02	1.02600e+03	-8.82338e-04	5.16000e+02
1027	5.16694e+02	1.02700e+03	-8.92906e-04	5.17000e+02
1028	5.17674e+02	1.02800e+03	-9.19170e-04	5.18000e+02
1029	5.18653e+02	1.02900e+03	-9.38303e-04	5.19000e+02
1030	5.19627e+02	1.03000e+03	-9.53782e-04	5.20000e+02
1031	5.20611e+02	1.03100e+03	-9.66963e-04	5.21000e+02
1032	5.21599e+02	1.03200e+03	-9.76786e-04	5.22000e+02
1033	5.22548e+02	1.03300e+03	-9.82816e-04	5.23000e+02
1034	5.23501e+02	1.03400e+03	-9.87389e-04	5.24000e+02
1035	5.24462e+02	1.03500e+03	-9.91970e-04	5.25000e+02
1036	5.25418e+02	1.03600e+03	-9.89723e-04	5.26000e+02
1037	5.26365e+02	1.03700e+03	-9.96499e-04	5.27000e+02
1038	5.27365e+02	1.03800e+03	-1.00753e-03	5.28000e+02
1039	5.28324e+02	1.03900e+03	-1.02070e-03	5.29000e+02
1040	5.29307e+02	1.04000e+03	-1.04725e-03	5.30000e+02
1041	5.30342e+02	1.04100e+03	-1.07040e-03	5.31000e+02
1042	5.31311e+02	1.04200e+03	-1.09476e-03	5.32000e+02
1043	5.32281e+02	1.04300e+03	-1.12032e-03	5.33000e+02
1044	5.33310e+02	1.04400e+03	-1.14868e-03	5.34000e+02
1045	5.34189e+02	1.04500e+03	-1.17115e-03	5.35000e+02
1046	5.35068e+02	1.04600e+03	-1.18924e-03	5.36000e+02
1047	5.35982e+02	1.04700e+03	-1.20428e-03	5.37000e+02
1048	5.36904e+02	1.04800e+03	-1.20850e-03	5.38000e+02
1049	5.37797e+02	1.04900e+03	-1.21620e-03	5.39000e+02
1050	5.38747e+02	1.05000e+03	-1.22565e-03	5.40000e+02
1051	5.39662e+02	1.05100e+03	-1.23636e-03	5.41000e+02
1052	5.40630e+02	1.05200e+03	-1.24715e-03	5.42000e+02
1053	5.41563e+02	1.05300e+03	-1.26356e-03	5.43000e+02
1054	5.42526e+02	1.05400e+03	-1.28231e-03	5.44000e+02
1055	5.43462e+02	1.05500e+03	-1.30173e-03	5.45000e+02
1056	5.44437e+02	1.05600e+03	-1.33049e-03	5.46000e+02
1057	5.45419e+02	1.05700e+03	-1.35163e-03	5.47000e+02
1058	5.46394e+02	1.05800e+03	-1.37102e-03	5.48000e+02
1059	5.47333e+02	1.05900e+03	-1.38985e-03	5.49000e+02
1060	5.48305e+02	1.06000e+03	-1.39590e-03	5.50000e+02
1061	5.49271e+02	1.06100e+03	-1.39998e-03	5.51000e+02
1062	5.50221e+02	1.06200e+03	-1.39961e-03	5.52000e+02
1063	5.51232e+02	1.06300e+03	-1.39595e-03	5.53000e+02
1064	5.52151e+02	1.06400e+03	-1.37194e-03	5.54000e+02
1065	5.53112e+02	1.06500e+03	-1.35115e-03	5.55000e+02
1066	5.54029e+02	1.06600e+03	-1.32824e-03	5.56000e+02
1067	5.54931e+02	1.06700e+03	-1.30392e-03	5.57000e+02
1068	5.55874e+02	1.06800e+03	-1.27011e-03	5.58000e+02
1069	5.56834e+02	1.06900e+03	-1.24497e-03	5.59000e+02
1070	5.57768e+02	1.07000e+03	-1.22511e-03	5.60000e+02
1071	5.58743e+02	1.07100e+03	-1.20891e-03	5.61000e+02
1072	5.59707e+02	1.07200e+03	-1.20997e-03	5.62000e+02
1073	5.60689e+02	1.07300e+03	-1.21103e-03	5.63000e+02
1074	5.61672e+02	1.07400e+03	-1.21544e-03	5.64000e+02
1075	5.62640e+02	1.07500e+03	-1.22236e-03	5.65000e+02
1076	5.63602e+02	1.07600e+03	-1.24431e-03	5.66000e+02
1077	5.64564e+02	1.07700e+03	-1.25557e-03	5.67000e+02
1078	5.65570e+02	1.07800e+03	-1.26494e-03	5.68000e+02
1079	5.66536e+02	1.07900e+03	-1.27457e-03	5.69000e+02
1080	5.67511e+02	1.08000e+03	-1.27937e-03	5.70000e+02
1081	5.68477e+02	1.08100e+03	-1.28671e-03	5.71000e+02
1082	5.69478e+02	1.08200e+03	-1.29431e-03	5.72000e+02
1083	5.70442e+02	1.08300e+03	-1.30185e-03	5.73000e+02
1084	5.71395e+02	1.08400e+03	-1.30918e-03	5.74000e+02
1085	5.72447e+02	1.08500e+03	-1.31519e-03	5.75000e+02
1086	5.73502e+02	1.08600e+03	-1.32082e-03	5.76000e+02
1087	5.74455e+02	1.08700e+03	-1.32680e-03	5.77000e+02
1088	5.75621e+02	1.08800e+03	-1.33355e-03	5.78000e+02
1089	5.76870e+02	1.08900e+03	-1.34097e-03	5.79000e+02
1090	5.77673e+02	1.09000e+03	-1.34786e-03	5.80000e+02
1091	5.78408e+02	1.09100e+03	-1.35401e-03	5.81000e+02
1092	5.79268e+02	1.09200e+03	-1.35675e-03	5.82000e+02
1093	5.80140e+02	1.09300e+03	-1.35604e-03	5.83000e+02
1094	5.81058e+02	1.09400e+03	-1.35346e-03	5.84000e+02
1095	5.82003e+02	1.09500e+03	-1.34990e-03	5.85000e+02
1096	5.82954e+02	1.09600e+03	-1.33692e-03	5.86000e+02
1097	5.83906e+02	1.09700e+03	-1.32883e-03	5.87000e+02
1098	5.84857e+02	1.09800e+03	-1.32268e-03	5.88000e+02
1099	5.85818e+02	1.09900e+03	-1.31817e-03	5.89000e+02
1100	5.86783e+02	1.10000e+03	-1.32085e-03	5.90000e+02
1101	5.87744e+02	1.10100e+03	-1.32527e-03	5.91000e+02
1102	5.88706e+02	1.10200e+03	-1.33244e-03	5.92000e+02
1103	5.89679e+02	1.10300e+03	-1.34134e-03	5.93000e+02
1104	5.90672e+02	1.10400e+03	-1.35897e-03	5.94000e+02
1105	5.91654e+02	1.10500e+03	-1.36924e-03	5.95000e+02
1106	5.92643e+02	1.10600e+03	-1.37728e-03	5.96000e+02
1107	5.93627e+02	1.10700e+03	-1.38546e-03	5.97000e+02
1108	5.94639e+02	1.10800e+03	-1.38939e-03	5.98000e+02
1109	5.95644e+02	1.10900e+03	-1.39433e-03	5.99000e+02
1110	5.96671e+02	1.11000e+03	-1.39966e-03	6.00000e+02
1111	5.97704e+02	1.11100e+03	-1.40556e-03	6.01000e+02
1112	5.98747e+02	1.11200e+03	-1.41406e-03	6.02000e+02
1113	6.00073e+02	1.11300e+03	-1.42404e-03	6.03000e+02
1114	6.01480e+02	1.11400e+03	-1.43394e-03	6.04000e+02
1115	6.04765e+02	1.11500e+03	-1.44355e-03	6.05000e+02
1116	6.05317e+02	1.11600e+03	-1.45717e-03	6.06000e+02
1117	6.05856e+02	1.11700e+03	-1.46613e-03	6.07000e+02
1118	6.06487e+02	1.11800e+03	-1.47180e-03	6.08000e+02
1119	6.07185e+02	1.11900e+03	-1.47615e-03	6.09000e+02
1120	6.08005e+02	1.12000e+03	-1.47619e-03	6.10000e+02
1121	6.08908e+02	1.12100e+03	-1.47782e-03	6.11000e+02
1122	6.09834e+02	1.12200e+03	-1.47823e-03	6.12000e+02
1123	6.10767e+02	1.12300e+03	-1.47746e-03	6.13000e+02
1124	6.11714e+02	1.12400e+03	-1.47245e-03	6.14000e+02
1125	6.12682e+02	1.12500e+03	-1.46771e-03	6.15000e+02
1126	6.13663e+02	1.12600e+03	-1.46372e-03	6.16000e+02
1127	6.14639e+02	1.12700e+03	-1.46070e-03	6.17000e+02
1128	6.15613e+02	1.12800e+03	-1.45656e-03	6.18000e+02
1129	6.16587e+02	1.12900e+03	-1.45549e-03	6.19000e+02
1130	6.17557e+02	1.13000e+03	-1.45613e-03	6.20000e+02
1131	6.18536e+02	1.13100e+03	-1.45752e-03	6.21000e+02
1132	6.19500e+02	1.13200e+03	-1.46516e-03	6.22000e+02
1133	6.20460e+02	1.13300e+03	-1.47053e-03	6.23000e+02
1134	6.21415e+02	1.13400e+03	-1.47664e-03	6.24000e+02
1135	6.22361e+02	1.13500e+03	-1.48361e-03	6.25000e+02
1136	6.23319e+02	1.13600e+03	-1.49238e-03	6.26000e+02
1137	6.24280e+02	1.13700e+03	-1.50032e-03	6.27000e+02
1138	6.25243e+02	1.13800e+03	-1.50764e-03	6.28000e+02
1139	6.26223e+02	1.13900e+03	-1.51475e-03	6.29000e+02
1140	6.27204e+02	1.14000e+03	-1.52088e-03	6.30000e+02
1141	6.28193e+02	1.14100e+03	-1.52451e-03	6.31000e+02
1142	6.29181e+02	1.14200e+03	-1.52642e-03	6.32000e+02
1143	6.30161e+02	1.14300e+03	-1.52785e-03	6.33000e+02
1144	6.31129e+02	1.14400e+03	-1.52619e-03	6.34000e+02
1145	6.32095e+02	1.14500e+03	-1.52675e-03	6.35000e+02
1146	6.33065e+02	1.14600e+03	-1.52793e-03	6.36000e+02
1147	6.34053e+02	1.14700e+03	-1.52960e-03	6.37000e+02
1148	6.35042e+02	1.14800e+03	-1.53312e-03	6.38000e+02
1149	6.36023e+02	1.14900e+03	-1.53525e-03	6.39000e+02
1150	6.36999e+02	1.15000e+03	-1.53764e-03	6.40000e+02
1151	6.37984e+02	1.15100e+03	-1.54089e-03	6.41000e+02
1152	6.38956e+02	1.15200e+03	-1.54494e-03	6.42000e+02
1153	6.39924e+02	1.15300e+03	-1.54780e-03	6.43000e+02
1154	6.40924e+02	1.15400e+03	-1.54823e-03	6.44000e+02
1155	6.41898e+02	1.15500e+03	-1.54679e-03	6.45000e+02
1156	6.42910e+02	1.15600e+03	-1.53929e-03	6.46000e+02
1157	6.43920e+02	1.15700e+03	-1.52970e-03	6.47000e+02
1158	6.44938e+02	1.15800e+03	-1.51827e-03	6.48000e+02
1159	6.45957e+02	1.15900e+03	-1.50583e-03	6.49000e+02
1160	6.46992e+02	1.16000e+03	-1.48867e-03	6.50000e+02
1161	6.48011e+02	1.16100e+03	-1.48034e-03	6.51000e+02
1162	6.49021e+02	1.16200e+03	-1.47649e-03	6.52000e+02
1163	6.49965e+02	1.16300e+03	-1.47486e-03	6.53000e+02
1164	6.50944e+02	1.16400e+03	-1.48758e-03	6.54000e+02
1165	6.51954e+02	1.16500e+03	-1.49695e-03	6.55000e+02
1166	6.52951e+02	1.16600e+03	-1.50650e-03	6.56000e+02
1167	6.53938e+02	1.16700e+03	-1.51639e-03	6.57000e+02
1168	6.54899e+02	1.16800e+03	-1.53119e-03	6.58000e+02
1169	6.55885e+02	1.16900e+03	-1.54220e-03	6.59000e+02
1170	6.56828e+02	1.17000e+03	-1.55150e-03	6.60000e+02
1171	6.57752e+02	1.17100e+03	-1.55928e-03	6.61000e+02
1172	6.58702e+02	1.17200e+03	-1.55957e-03	6.62000e+02
1173	6.59658e+02	1.17300e+03	-1.56009e-03	6.63000e+02
1174	6.60643e+02	1.17400e+03	-1.55901e-03	6.64000e+02
1175	6.61605e+02	1.17500e+03	-1.55685e-03	6.65000e+02
1176	6.62596e+02	1.17600e+03	-1.54920e-03	6.66000e+02
1177	6.63549e+02	1.17700e+03	-1.54677e-03	6.67000e+02
1178	6.64496e+02	1.17800e+03	-1.54796e-03	6.68000e+02
1179	6.65441e+02	1.17900e+03	-1.55153e-03	6.69000e+02
1180	6.66422e+02	1.18000e+03	-1.56268e-03	6.70000e+02
1181	6.67398e+02	1.18100e+03	-1.57358e-03	6.71000e+02
1182	6.68371e+02	1.18200e+03	-1.58506e-03	6.72000e+02
1183	6.69347e+02	1.18300e+03	-1.59625e-03	6.73000e+02
1184	6.70326e+02	1.18400e+03	-1.60462e-03	6.74000e+02
1185	6.70706e+02	1.18500e+03	-1.60018e-03	6.75000e+02
1186	6.71084e+02	1.18600e+03	-1.58386e-03	6.76000e+02
1187	6.71677e+02	1.18700e+03	-1.55967e-03	6.77000e+02
1188	6.72393e+02	1.18800e+03	-1.49476e-03	6.78000e+02
1189	6.73139e+02	1.18900e+03	-1.44011e-03	6.79000e+02
1190	6.73863e+02	1.19000e+03	-1.39048e-03	6.80000e+02
1191	6.74576e+02	1.19100e+03	-1.34647e-03	6.81000e+02
1192	6.75303e+02	1.19200e+03	-1.29102e-03	6.82000e+02
1193	6.75971e+02	1.19300e+03	-1.26024e-03	6.83000e+02
1194	6.76647e+02	1.19400e+03	-1.24725e-03	6.84000e+02
1195	6.77309e+02	1.19500e+03	-1.24447e-03	6.85000e+02
1196	6.77946e+02	1.19600e+03	-1.28712e-03	6.86000e+02
1197	6.78561e+02	1.19700e+03	-1.31499e-03	6.87000e+02
1198	6.79104e+02	1.19800e+03	-1.34208e-03	6.88000e+02
1199	6.79603e+02	1.19900e+03	-1.36943e-03	6.89000e+02
1200	6.80043e+02	1.20000e+03	-1.40885e-03	6.90000e+02
1201	6.80507e+02	1.20100e+03	-1.43638e-03	6.91000e+02
1202	6.80942e+02	1.20200e+03	-1.45906e-03	6.92000e+02
1203	6.81368e+02	1.20300e+03	-1.47918e-03	6.93000e+02
1204	6.81792e+02	1.20400e+03	-1.48521e-03	6.94000e+02
1205	6.82204e+02	1.20500e+03	-1.49543e-03	6.95000e+02
1206	6.82620e+02	1.20600e+03	-1.50277e-03	6.96000e+02
1207	6.83016e+02	1.20700e+03	-1.50666e-03	6.97000e+02
1208	6.83419e+02	1.20800e+03	-1.50240e-03	6.98000e+02
1209	6.83802e+02	1.20900e+03	-1.49848e-03	6.99000e+02
1210	6.84172e+02	1.21000e+03	-1.49129e-03	7.00000e+02