File: Experiments/TUBS/tga_nonisotherm/tga_dynamic_n2_dyn5_piece_3mg_r2.txt
index	ts	t	weight	tr
[#]	[°C]	[s]	[mg]	[°C]
1083	1.30920e+02	1.08300e+03	2.97847e+00	1.30250e+02
1091	1.31594e+02	1.09100e+03	2.97851e+00	1.30917e+02
1099	1.32271e+02	1.09900e+03	2.97834e+00	1.31583e+02
1107	1.32946e+02	1.10700e+03	2.97813e+00	1.32250e+02
1115	1.33624e+02	1.11500e+03	2.97802e+00	1.32917e+02
1123	1.34292e+02	1.12300e+03	2.97805e+00	1.33583e+02
1131	1.34969e+02	1.13100e+03	2.97795e+00	1.34250e+02
1139	1.35638e+02	1.13900e+03	2.97796e+00	1.34917e+02
1147	1.36311e+02	1.14700e+03	2.97808e+00	1.35583e+02
1155	1.36979e+02	1.15500e+03	2.97796e+00	1.36250e+02
1163	1.37656e+02	1.16300e+03	2.97783e+00	1.36917e+02
1171	1.38330e+02	1.17100e+03	2.97786e+00	1.37583e+02
1179	1.38999e+02	1.17900e+03	2.97771e+00	1.38250e+02
1187	1.39668e+02	1.18700e+03	2.97774e+00	1.38917e+02
1195	1.40337e+02	1.19500e+03	2.97778e+00	1.39583e+02
1203	1.41014e+02	1.20300e+03	2.97766e+00	1.40250e+02
1211	1.41691e+02	1.21100e+03	2.97760e+00	1.40917e+02
1219	1.42366e+02	1.21900e+03	2.97758e+00	1.41583e+02
1227	1.43044e+02	1.22700e+03	2.97732e+00	1.42250e+02
1235	1.43723e+02	1.23500e+03	2.97728e+00	1.42917e+02
1243	1.44379e+02	1.24300e+03	2.97744e+00	1.43583e+02
1251	1.45067e+02	1.25100e+03	2.97730e+00	1.44250e+02
1259	1.45734e+02	1.25900e+03	2.97727e+00	1.44917e+02
1267	1.46406e+02	1.26700e+03	2.97726e+00	1.45583e+02
1275	1.47081e+02	1.27500e+03	2.97715e+00	1.46250e+02
1283	1.47752e+02	1.28300e+03	2.97702e+00	1.46917e+02
1291	1.48421e+02	1.29100e+03	2.97697e+00	1.47583e+02
1299	1.49095e+02	1.29900e+03	2.97698e+00	1.48250e+02
1307	1.49779e+02	1.30700e+03	2.97682e+00	1.48917e+02
1315	1.50453e+02	1.31500e+03	2.97684e+00	1.49583e+02
1323	1.51125e+02	1.32300e+03	2.97661e+00	1.50250e+02
1331	1.51788e+02	1.33100e+03	2.97665e+00	1.50917e+02
1339	1.52469e+02	1.33900e+03	2.97650e+00	1.51583e+02
1347	1.53143e+02	1.34700e+03	2.97635e+00	1.52250e+02
1355	1.53812e+02	1.35500e+03	2.97649e+00	1.52917e+02
1363	1.54490e+02	1.36300e+03	2.97638e+00	1.53583e+02
1371	1.55168e+02	1.37100e+03	2.97634e+00	1.54250e+02
1379	1.55838e+02	1.37900e+03	2.97631e+00	1.54917e+02
1387	1.56511e+02	1.38700e+03	2.97614e+00	1.55583e+02
1395	1.57181e+02	1.39500e+03	2.97599e+00	1.56250e+02
1403	1.57855e+02	1.40300e+03	2.97597e+00	1.56917e+02
1411	1.58512e+02	1.41100e+03	2.97588e+00	1.57583e+02
1419	1.59188e+02	1.41900e+03	2.97570e+00	1.58250e+02
1427	1.59857e+02	1.42700e+03	2.97560e+00	1.58917e+02
1435	1.60526e+02	1.43500e+03	2.97557e+00	1.59583e+02
1443	1.61196e+02	1.44300e+03	2.97532e+00	1.60250e+02
1451	1.61866e+02	1.45100e+03	2.97521e+00	1.60917e+02
1459	1.62533e+02	1.45900e+03	2.97498e+00	1.61583e+02
1467	1.63216e+02	1.46700e+03	2.97473e+00	1.62250e+02
1475	1.63904e+02	1.47500e+03	2.97446e+00	1.62917e+02
1483	1.64559e+02	1.48300e+03	2.97426e+00	1.63583e+02
1491	1.65227e+02	1.49100e+03	2.97403e+00	1.64250e+02
1499	1.65910e+02	1.49900e+03	2.97378e+00	1.64917e+02
1507	1.66580e+02	1.50700e+03	2.97344e+00	1.65583e+02
1515	1.67248e+02	1.51500e+03	2.97311e+00	1.66250e+02
1523	1.67921e+02	1.52300e+03	2.97267e+00	1.66917e+02
1531	1.68606e+02	1.53100e+03	2.97228e+00	1.67583e+02
1539	1.69271e+02	1.53900e+03	2.97193e+00	1.68250e+02
1547	1.69939e+02	1.54700e+03	2.97137e+00	1.68917e+02
1555	1.70618e+02	1.55500e+03	2.97090e+00	1.69583e+02
1563	1.71300e+02	1.56300e+03	2.97035e+00	1.70250e+02
1571	1.71962e+02	1.57100e+03	2.96985e+00	1.70917e+02
1579	1.72627e+02	1.57900e+03	2.96924e+00	1.71583e+02
1587	1.73308e+02	1.58700e+03	2.96856e+00	1.72250e+02
1595	1.73976e+02	1.59500e+03	2.96783e+00	1.72917e+02
1603	1.74650e+02	1.60300e+03	2.96715e+00	1.73583e+02
1611	1.75343e+02	1.61100e+03	2.96646e+00	1.74250e+02
1619	1.76011e+02	1.61900e+03	2.96564e+00	1.74917e+02
1627	1.76678e+02	1.62700e+03	2.96486e+00	1.75583e+02
1635	1.77350e+02	1.63500e+03	2.96405e+00	1.76250e+02
1643	1.78022e+02	1.64300e+03	2.96324e+00	1.76917e+02
1651	1.78689e+02	1.65100e+03	2.96237e+00	1.77583e+02
1659	1.79364e+02	1.65900e+03	2.96167e+00	1.78250e+02
1667	1.80028e+02	1.66700e+03	2.96079e+00	1.78917e+02
1675	1.80710e+02	1.67500e+03	2.95990e+00	1.79583e+02
1683	1.81375e+02	1.68300e+03	2.95884e+00	1.80250e+02
1691	1.82035e+02	1.69100e+03	2.95797e+00	1.80917e+02
1699	1.82720e+02	1.69900e+03	2.95691e+00	1.81583e+02
1707	1.83379e+02	1.70700e+03	2.95583e+00	1.82250e+02
1715	1.84051e+02	1.71500e+03	2.95490e+00	1.82917e+02
1723	1.84738e+02	1.72300e+03	2.95374e+00	1.83583e+02
1731	1.85405e+02	1.73100e+03	2.95274e+00	1.84250e+02
1739	1.86076e+02	1.73900e+03	2.95152e+00	1.84917e+02
1747	1.86739e+02	1.74700e+03	2.95044e+00	1.85583e+02
1755	1.87409e+02	1.75500e+03	2.94934e+00	1.86250e+02
1763	1.88083e+02	1.76300e+03	2.94812e+00	1.86917e+02
1771	1.88746e+02	1.77100e+03	2.94713e+00	1.87583e+02
1779	1.89414e+02	1.77900e+03	2.94598e+00	1.88250e+02
1787	1.90083e+02	1.78700e+03	2.94500e+00	1.88917e+02
1795	1.90745e+02	1.79500e+03	2.94388e+00	1.89583e+02
1803	1.91411e+02	1.80300e+03	2.94277e+00	1.90250e+02
1811	1.92087e+02	1.81100e+03	2.94155e+00	1.90917e+02
1819	1.92746e+02	1.81900e+03	2.94051e+00	1.91583e+02
1827	1.93408e+02	1.82700e+03	2.93956e+00	1.92250e+02
1835	1.94082e+02	1.83500e+03	2.93862e+00	1.92917e+02
1843	1.94739e+02	1.84300e+03	2.93738e+00	1.93583e+02
1851	1.95428e+02	1.85100e+03	2.93610e+00	1.94250e+02
1859	1.96081e+02	1.85900e+03	2.93528e+00	1.94917e+02
1867	1.96761e+02	1.86700e+03	2.93415e+00	1.95583e+02
1875	1.97422e+02	1.87500e+03	2.93300e+00	1.96250e+02
1883	1.98098e+02	1.88300e+03	2.93190e+00	1.96917e+02
1891	1.98752e+02	1.89100e+03	2.93076e+00	1.97583e+02
1899	1.99431e+02	1.89900e+03	2.92956e+00	1.98250e+02
1907	2.00096e+02	1.90700e+03	2.92852e+00	1.98917e+02
1915	2.00752e+02	1.91500e+03	2.92749e+00	1.99583e+02
1923	2.01437e+02	1.92300e+03	2.92639e+00	2.00250e+02
1931	2.02102e+02	1.93100e+03	2.92534e+00	2.00917e+02
1939	2.02764e+02	1.93900e+03	2.92432e+00	2.01583e+02
1947	2.03431e+02	1.94700e+03	2.92318e+00	2.02250e+02
1955	2.04092e+02	1.95500e+03	2.92208e+00	2.02917e+02
1963	2.04781e+02	1.96300e+03	2.92112e+00	2.03583e+02
1971	2.05447e+02	1.97100e+03	2.92009e+00	2.04250e+02
1979	2.06102e+02	1.97900e+03	2.91889e+00	2.04917e+02
1987	2.06782e+02	1.98700e+03	2.91755e+00	2.05583e+02
1995	2.07445e+02	1.99500e+03	2.91664e+00	2.06250e+02
2003	2.08116e+02	2.00300e+03	2.91554e+00	2.06917e+02
2011	2.08787e+02	2.01100e+03	2.91439e+00	2.07583e+02
2019	2.09454e+02	2.01900e+03	2.91336e+00	2.08250e+02
2027	2.10113e+02	2.02700e+03	2.91235e+00	2.08917e+02
2035	2.10802e+02	2.03500e+03	2.91132e+00	2.09583e+02
2043	2.11457e+02	2.04300e+03	2.91019e+00	2.10250e+02
2051	2.12118e+02	2.05100e+03	2.90910e+00	2.10917e+02
2059	2.12788e+02	2.05900e+03	2.90796e+00	2.11583e+02
2067	2.13461e+02	2.06700e+03	2.90686e+00	2.12250e+02
2075	2.14123e+02	2.07500e+03	2.90574e+00	2.12917e+02
2083	2.14779e+02	2.08300e+03	2.90482e+00	2.13583e+02
2091	2.15452e+02	2.09100e+03	2.90354e+00	2.14250e+02
2099	2.16110e+02	2.09900e+03	2.90255e+00	2.14917e+02
2107	2.16765e+02	2.10700e+03	2.90156e+00	2.15583e+02
2115	2.17445e+02	2.11500e+03	2.90077e+00	2.16250e+02
2123	2.18101e+02	2.12300e+03	2.89961e+00	2.16917e+02
2131	2.18760e+02	2.13100e+03	2.89856e+00	2.17583e+02
2139	2.19437e+02	2.13900e+03	2.89749e+00	2.18250e+02
2147	2.20106e+02	2.14700e+03	2.89650e+00	2.18917e+02
2155	2.20767e+02	2.15500e+03	2.89544e+00	2.19583e+02
2163	2.21442e+02	2.16300e+03	2.89439e+00	2.20250e+02
2171	2.22108e+02	2.17100e+03	2.89329e+00	2.20917e+02
2179	2.22777e+02	2.17900e+03	2.89246e+00	2.21583e+02
2187	2.23439e+02	2.18700e+03	2.89143e+00	2.22250e+02
2195	2.24109e+02	2.19500e+03	2.89031e+00	2.22917e+02
2203	2.24764e+02	2.20300e+03	2.88943e+00	2.23583e+02
2211	2.25428e+02	2.21100e+03	2.88846e+00	2.24250e+02
2219	2.26101e+02	2.21900e+03	2.88747e+00	2.24917e+02
2227	2.26765e+02	2.22700e+03	2.88650e+00	2.25583e+02
2235	2.27437e+02	2.23500e+03	2.88552e+00	2.26250e+02
2243	2.28099e+02	2.24300e+03	2.88451e+00	2.26917e+02
2251	2.28762e+02	2.25100e+03	2.88347e+00	2.27583e+02
2259	2.29424e+02	2.25900e+03	2.88255e+00	2.28250e+02
2267	2.30096e+02	2.26700e+03	2.88168e+00	2.28917e+02
2275	2.30766e+02	2.27500e+03	2.88094e+00	2.29583e+02
2283	2.31432e+02	2.28300e+03	2.88005e+00	2.30250e+02
2291	2.32090e+02	2.29100e+03	2.87913e+00	2.30917e+02
2299	2.32749e+02	2.29900e+03	2.87830e+00	2.31583e+02
2307	2.33416e+02	2.30700e+03	2.87743e+00	2.32250e+02
2315	2.34088e+02	2.31500e+03	2.87648e+00	2.32917e+02
2323	2.34739e+02	2.32300e+03	2.87565e+00	2.33583e+02
2331	2.35419e+02	2.33100e+03	2.87467e+00	2.34250e+02
2339	2.36078e+02	2.33900e+03	2.87377e+00	2.34917e+02
2347	2.36744e+02	2.34700e+03	2.87290e+00	2.35583e+02
2355	2.37403e+02	2.35500e+03	2.87206e+00	2.36250e+02
2363	2.38085e+02	2.36300e+03	2.87124e+00	2.36917e+02
2371	2.38740e+02	2.37100e+03	2.87042e+00	2.37583e+02
2379	2.39403e+02	2.37900e+03	2.86955e+00	2.38250e+02
2387	2.40079e+02	2.38700e+03	2.86868e+00	2.38917e+02
2395	2.40737e+02	2.39500e+03	2.86779e+00	2.39583e+02
2403	2.41410e+02	2.40300e+03	2.86698e+00	2.40250e+02
2411	2.42080e+02	2.41100e+03	2.86616e+00	2.40917e+02
2419	2.42751e+02	2.41900e+03	2.86543e+00	2.41583e+02
2427	2.43420e+02	2.42700e+03	2.86470e+00	2.42250e+02
2435	2.44090e+02	2.43500e+03	2.86374e+00	2.42917e+02
2443	2.44757e+02	2.44300e+03	2.86290e+00	2.43583e+02
2451	2.45451e+02	2.45100e+03	2.86222e+00	2.44250e+02
2459	2.46130e+02	2.45900e+03	2.86145e+00	2.44917e+02
2467	2.46798e+02	2.46700e+03	2.86057e+00	2.45583e+02
2475	2.47465e+02	2.47500e+03	2.85971e+00	2.46250e+02
2483	2.48139e+02	2.48300e+03	2.85896e+00	2.46917e+02
2491	2.48815e+02	2.49100e+03	2.85823e+00	2.47583e+02
2499	2.49498e+02	2.49900e+03	2.85756e+00	2.48250e+02
2507	2.50176e+02	2.50700e+03	2.85684e+00	2.48917e+02
2515	2.50844e+02	2.51500e+03	2.85610e+00	2.49583e+02
2523	2.51503e+02	2.52300e+03	2.85534e+00	2.50250e+02
2531	2.52179e+02	2.53100e+03	2.85466e+00	2.50917e+02
2539	2.52842e+02	2.53900e+03	2.85391e+00	2.51583e+02
2547	2.53509e+02	2.54700e+03	2.85309e+00	2.52250e+02
2555	2.54174e+02	2.55500e+03	2.85242e+00	2.52917e+02
2563	2.54817e+02	2.56300e+03	2.85171e+00	2.53583e+02
2571	2.55503e+02	2.57100e+03	2.85094e+00	2.54250e+02
2579	2.56226e+02	2.57900e+03	2.85012e+00	2.54917e+02
2587	2.56920e+02	2.58700e+03	2.84949e+00	2.55583e+02
2595	2.57630e+02	2.59500e+03	2.84875e+00	2.56250e+02
2603	2.58315e+02	2.60300e+03	2.84793e+00	2.56917e+02
2611	2.59031e+02	2.61100e+03	2.84724e+00	2.57583e+02
2619	2.59698e+02	2.61900e+03	2.84654e+00	2.58250e+02
2627	2.60361e+02	2.62700e+03	2.84581e+00	2.58917e+02
2635	2.61023e+02	2.63500e+03	2.84504e+00	2.59583e+02
2643	2.61698e+02	2.64300e+03	2.84430e+00	2.60250e+02
2651	2.62383e+02	2.65100e+03	2.84345e+00	2.60917e+02
2659	2.63053e+02	2.65900e+03	2.84252e+00	2.61583e+02
2667	2.63739e+02	2.66700e+03	2.84183e+00	2.62250e+02
2675	2.64394e+02	2.67500e+03	2.84116e+00	2.62917e+02
2683	2.65054e+02	2.68300e+03	2.84044e+00	2.63583e+02
2691	2.65731e+02	2.69100e+03	2.83965e+00	2.64250e+02
2699	2.66394e+02	2.69900e+03	2.83872e+00	2.64917e+02
2707	2.67066e+02	2.70700e+03	2.83789e+00	2.65583e+02
2715	2.67735e+02	2.71500e+03	2.83707e+00	2.66250e+02
2723	2.68389e+02	2.72300e+03	2.83614e+00	2.66917e+02
2731	2.69066e+02	2.73100e+03	2.83503e+00	2.67583e+02
2739	2.69729e+02	2.73900e+03	2.83411e+00	2.68250e+02
2747	2.70397e+02	2.74700e+03	2.83327e+00	2.68917e+02
2755	2.71061e+02	2.75500e+03	2.83243e+00	2.69583e+02
2763	2.71730e+02	2.76300e+03	2.83133e+00	2.70250e+02
2771	2.72399e+02	2.77100e+03	2.83009e+00	2.70917e+02
2779	2.73061e+02	2.77900e+03	2.82897e+00	2.71583e+02
2787	2.73733e+02	2.78700e+03	2.82798e+00	2.72250e+02
2795	2.74395e+02	2.79500e+03	2.82699e+00	2.72917e+02
2803	2.75058e+02	2.80300e+03	2.82587e+00	2.73583e+02
2811	2.75730e+02	2.81100e+03	2.82462e+00	2.74250e+02
2819	2.76411e+02	2.81900e+03	2.82334e+00	2.74917e+02
2827	2.77092e+02	2.82700e+03	2.82202e+00	2.75583e+02
2835	2.77762e+02	2.83500e+03	2.82053e+00	2.76250e+02
2843	2.78431e+02	2.84300e+03	2.81920e+00	2.76917e+02
2851	2.79097e+02	2.85100e+03	2.81770e+00	2.77583e+02
2859	2.79768e+02	2.85900e+03	2.81627e+00	2.78250e+02
2867	2.80442e+02	2.86700e+03	2.81468e+00	2.78917e+02
2875	2.81123e+02	2.87500e+03	2.81295e+00	2.79583e+02
2883	2.81833e+02	2.88300e+03	2.81135e+00	2.80250e+02
2891	2.82520e+02	2.89100e+03	2.80973e+00	2.80917e+02
2899	2.83219e+02	2.89900e+03	2.80795e+00	2.81583e+02
2907	2.83908e+02	2.90700e+03	2.80611e+00	2.82250e+02
2915	2.84571e+02	2.91500e+03	2.80434e+00	2.82917e+02
2923	2.85241e+02	2.92300e+03	2.80247e+00	2.83583e+02
2931	2.85880e+02	2.93100e+03	2.80048e+00	2.84250e+02
2939	2.86520e+02	2.93900e+03	2.79837e+00	2.84917e+02
2947	2.87188e+02	2.94700e+03	2.79633e+00	2.85583e+02
2955	2.87841e+02	2.95500e+03	2.79423e+00	2.86250e+02
2963	2.88497e+02	2.96300e+03	2.79209e+00	2.86917e+02
2971	2.89152e+02	2.97100e+03	2.78990e+00	2.87583e+02
2979	2.89832e+02	2.97900e+03	2.78759e+00	2.88250e+02
2987	2.90507e+02	2.98700e+03	2.78520e+00	2.88917e+02
2995	2.91177e+02	2.99500e+03	2.78295e+00	2.89583e+02
3003	2.91851e+02	3.00300e+03	2.78049e+00	2.90250e+02
3011	2.92516e+02	3.01100e+03	2.77802e+00	2.90917e+02
3019	2.93172e+02	3.01900e+03	2.77562e+00	2.91583e+02
3027	2.93820e+02	3.02700e+03	2.77303e+00	2.92250e+02
3035	2.94477e+02	3.03500e+03	2.77061e+00	2.92917e+02
3043	2.95136e+02	3.04300e+03	2.76805e+00	2.93583e+02
3051	2.95817e+02	3.05100e+03	2.76554e+00	2.94250e+02
3059	2.96500e+02	3.05900e+03	2.76305e+00	2.94917e+02
3067	2.97192e+02	3.06700e+03	2.76040e+00	2.95583e+02
3075	2.97864e+02	3.07500e+03	2.75780e+00	2.96250e+02
3083	2.98526e+02	3.08300e+03	2.75524e+00	2.96917e+02
3091	2.99194e+02	3.09100e+03	2.75258e+00	2.97583e+02
3099	2.99850e+02	3.09900e+03	2.75000e+00	2.98250e+02
3107	3.00519e+02	3.10700e+03	2.74734e+00	2.98917e+02
3115	3.01200e+02	3.11500e+03	2.74463e+00	2.99583e+02
3123	3.01889e+02	3.12300e+03	2.74190e+00	3.00250e+02
3131	3.02567e+02	3.13100e+03	2.73922e+00	3.00917e+02
3139	3.03256e+02	3.13900e+03	2.73641e+00	3.01583e+02
3147	3.03926e+02	3.14700e+03	2.73367e+00	3.02250e+02
3155	3.04599e+02	3.15500e+03	2.73072e+00	3.02917e+02
3163	3.05272e+02	3.16300e+03	2.72798e+00	3.03583e+02
3171	3.05913e+02	3.17100e+03	2.72513e+00	3.04250e+02
3179	3.06587e+02	3.17900e+03	2.72211e+00	3.04917e+02
3187	3.07262e+02	3.18700e+03	2.71923e+00	3.05583e+02
3195	3.07929e+02	3.19500e+03	2.71626e+00	3.06250e+02
3203	3.08634e+02	3.20300e+03	2.71309e+00	3.06917e+02
3211	3.09340e+02	3.21100e+03	2.70974e+00	3.07583e+02
3219	3.10047e+02	3.21900e+03	2.70649e+00	3.08250e+02
3227	3.10721e+02	3.22700e+03	2.70311e+00	3.08917e+02
3235	3.11423e+02	3.23500e+03	2.69973e+00	3.09583e+02
3243	3.12098e+02	3.24300e+03	2.69617e+00	3.10250e+02
3251	3.12788e+02	3.25100e+03	2.69251e+00	3.10917e+02
3259	3.13457e+02	3.25900e+03	2.68875e+00	3.11583e+02
3267	3.14154e+02	3.26700e+03	2.68483e+00	3.12250e+02
3275	3.14844e+02	3.27500e+03	2.68073e+00	3.12917e+02
3283	3.15505e+02	3.28300e+03	2.67644e+00	3.13583e+02
3291	3.16227e+02	3.29100e+03	2.67209e+00	3.14250e+02
3299	3.16916e+02	3.29900e+03	2.66749e+00	3.14917e+02
3307	3.17610e+02	3.30700e+03	2.66273e+00	3.15583e+02
3315	3.18291e+02	3.31500e+03	2.65773e+00	3.16250e+02
3323	3.18987e+02	3.32300e+03	2.65262e+00	3.16917e+02
3331	3.19653e+02	3.33100e+03	2.64722e+00	3.17583e+02
3339	3.20316e+02	3.33900e+03	2.64155e+00	3.18250e+02
3347	3.20987e+02	3.34700e+03	2.63578e+00	3.18917e+02
3355	3.21659e+02	3.35500e+03	2.62974e+00	3.19583e+02
3363	3.22330e+02	3.36300e+03	2.62317e+00	3.20250e+02
3371	3.23029e+02	3.37100e+03	2.61654e+00	3.20917e+02
3379	3.23706e+02	3.37900e+03	2.60966e+00	3.21583e+02
3387	3.24380e+02	3.38700e+03	2.60254e+00	3.22250e+02
3395	3.25072e+02	3.39500e+03	2.59495e+00	3.22917e+02
3403	3.25795e+02	3.40300e+03	2.58700e+00	3.23583e+02
3411	3.26497e+02	3.41100e+03	2.57870e+00	3.24250e+02
3419	3.27198e+02	3.41900e+03	2.57007e+00	3.24917e+02
3427	3.27894e+02	3.42700e+03	2.56096e+00	3.25583e+02
3435	3.28594e+02	3.43500e+03	2.55117e+00	3.26250e+02
3443	3.29252e+02	3.44300e+03	2.54106e+00	3.26917e+02
3451	3.29927e+02	3.45100e+03	2.53056e+00	3.27583e+02
3459	3.30610e+02	3.45900e+03	2.51974e+00	3.28250e+02
3467	3.31306e+02	3.46700e+03	2.50851e+00	3.28917e+02
3475	3.31961e+02	3.47500e+03	2.49669e+00	3.29583e+02
3483	3.32634e+02	3.48300e+03	2.48423e+00	3.30250e+02
3491	3.33304e+02	3.49100e+03	2.47118e+00	3.30917e+02
3499	3.33960e+02	3.49900e+03	2.45772e+00	3.31583e+02
3507	3.34653e+02	3.50700e+03	2.44383e+00	3.32250e+02
3515	3.35341e+02	3.51500e+03	2.42902e+00	3.32917e+02
3523	3.36052e+02	3.52300e+03	2.41366e+00	3.33583e+02
3531	3.36776e+02	3.53100e+03	2.39763e+00	3.34250e+02
3539	3.37457e+02	3.53900e+03	2.38101e+00	3.34917e+02
3547	3.38138e+02	3.54700e+03	2.36342e+00	3.35583e+02
3555	3.38827e+02	3.55500e+03	2.34529e+00	3.36250e+02
3563	3.39537e+02	3.56300e+03	2.32632e+00	3.36917e+02
3571	3.40194e+02	3.57100e+03	2.30668e+00	3.37583e+02
3579	3.40861e+02	3.57900e+03	2.28657e+00	3.38250e+02
3587	3.41530e+02	3.58700e+03	2.26562e+00	3.38917e+02
3595	3.42202e+02	3.59500e+03	2.24395e+00	3.39583e+02
3603	3.42869e+02	3.60300e+03	2.22131e+00	3.40250e+02
3611	3.43535e+02	3.61100e+03	2.19804e+00	3.40917e+02
3619	3.44226e+02	3.61900e+03	2.17394e+00	3.41583e+02
3627	3.44897e+02	3.62700e+03	2.14914e+00	3.42250e+02
3635	3.45582e+02	3.63500e+03	2.12348e+00	3.42917e+02
3643	3.46241e+02	3.64300e+03	2.09697e+00	3.43583e+02
3651	3.46904e+02	3.65100e+03	2.06976e+00	3.44250e+02
3659	3.47590e+02	3.65900e+03	2.04182e+00	3.44917e+02
3667	3.48258e+02	3.66700e+03	2.01303e+00	3.45583e+02
3675	3.48912e+02	3.67500e+03	1.98333e+00	3.46250e+02
3683	3.49573e+02	3.68300e+03	1.95311e+00	3.46917e+02
3691	3.50237e+02	3.69100e+03	1.92210e+00	3.47583e+02
3699	3.50948e+02	3.69900e+03	1.89021e+00	3.48250e+02
3707	3.51564e+02	3.70700e+03	1.85759e+00	3.48917e+02
3715	3.52178e+02	3.71500e+03	1.82429e+00	3.49583e+02
3723	3.52809e+02	3.72300e+03	1.79060e+00	3.50250e+02
3731	3.53474e+02	3.73100e+03	1.75622e+00	3.50917e+02
3739	3.54096e+02	3.73900e+03	1.72110e+00	3.51583e+02
3747	3.54742e+02	3.74700e+03	1.68565e+00	3.52250e+02
3755	3.55389e+02	3.75500e+03	1.64965e+00	3.52917e+02
3763	3.56018e+02	3.76300e+03	1.61331e+00	3.53583e+02
3771	3.56662e+02	3.77100e+03	1.57664e+00	3.54250e+02
3779	3.57309e+02	3.77900e+03	1.53935e+00	3.54917e+02
3787	3.57961e+02	3.78700e+03	1.50173e+00	3.55583e+02
3795	3.58606e+02	3.79500e+03	1.46363e+00	3.56250e+02
3803	3.59278e+02	3.80300e+03	1.42601e+00	3.56917e+02
3811	3.59943e+02	3.81100e+03	1.38756e+00	3.57583e+02
3819	3.60594e+02	3.81900e+03	1.34897e+00	3.58250e+02
3827	3.61271e+02	3.82700e+03	1.31153e+00	3.58917e+02
3835	3.61941e+02	3.83500e+03	1.27389e+00	3.59583e+02
3843	3.62600e+02	3.84300e+03	1.23457e+00	3.60250e+02
3851	3.63272e+02	3.85100e+03	1.19570e+00	3.60917e+02
3859	3.63952e+02	3.85900e+03	1.15688e+00	3.61583e+02
3867	3.64632e+02	3.86700e+03	1.11909e+00	3.62250e+02
3875	3.65261e+02	3.87500e+03	1.08114e+00	3.62917e+02
3883	3.65925e+02	3.88300e+03	1.04220e+00	3.63583e+02
3891	3.66580e+02	3.89100e+03	1.00354e+00	3.64250e+02
3899	3.67217e+02	3.89900e+03	9.64119e-01	3.64917e+02
3907	3.67880e+02	3.90700e+03	9.24675e-01	3.65583e+02
3915	3.68538e+02	3.91500e+03	8.85657e-01	3.66250e+02
3923	3.69182e+02	3.92300e+03	8.47543e-01	3.66917e+02
3931	3.69846e+02	3.93100e+03	8.09411e-01	3.67583e+02
3939	3.70501e+02	3.93900e+03	7.72398e-01	3.68250e+02
3947	3.71148e+02	3.94700e+03	7.36336e-01	3.68917e+02
3955	3.71803e+02	3.95500e+03	7.00132e-01	3.69583e+02
3963	3.72461e+02	3.96300e+03	6.65762e-01	3.70250e+02
3971	3.73105e+02	3.97100e+03	6.31909e-01	3.70917e+02
3979	3.73764e+02	3.97900e+03	5.99006e-01	3.71583e+02
3987	3.74428e+02	3.98700e+03	5.67271e-01	3.72250e+02
3995	3.75096e+02	3.99500e+03	5.36881e-01	3.72917e+02
4003	3.75755e+02	4.00300e+03	5.07472e-01	3.73583e+02
4011	3.76405e+02	4.01100e+03	4.79213e-01	3.74250e+02
4019	3.77055e+02	4.01900e+03	4.51828e-01	3.74917e+02
4027	3.77712e+02	4.02700e+03	4.25393e-01	3.75583e+02
4035	3.78389e+02	4.03500e+03	4.00376e-01	3.76250e+02
4043	3.79017e+02	4.04300e+03	3.76447e-01	3.76917e+02
4051	3.79658e+02	4.05100e+03	3.53701e-01	3.77583e+02
4059	3.80299e+02	4.05900e+03	3.32078e-01	3.78250e+02
4067	3.80940e+02	4.06700e+03	3.11447e-01	3.78917e+02
4075	3.81586e+02	4.07500e+03	2.92003e-01	3.79583e+02
4083	3.82257e+02	4.08300e+03	2.73655e-01	3.80250e+02
4091	3.82903e+02	4.09100e+03	2.56399e-01	3.80917e+02
4099	3.83551e+02	4.09900e+03	2.39870e-01	3.81583e+02
4107	3.84208e+02	4.10700e+03	2.24508e-01	3.82250e+02
4115	3.84843e+02	4.11500e+03	2.09979e-01	3.82917e+02
4123	3.85496e+02	4.12300e+03	1.96353e-01	3.83583e+02
4131	3.86165e+02	4.13100e+03	1.83525e-01	3.84250e+02
4139	3.86822e+02	4.13900e+03	1.71329e-01	3.84917e+02
4147	3.87486e+02	4.14700e+03	1.60108e-01	3.85583e+02
4155	3.88148e+02	4.15500e+03	1.49630e-01	3.86250e+02
4163	3.88804e+02	4.16300e+03	1.39951e-01	3.86917e+02
4171	3.89466e+02	4.17100e+03	1.30784e-01	3.87583e+02
4179	3.90128e+02	4.17900e+03	1.22547e-01	3.88250e+02
4187	3.90795e+02	4.18700e+03	1.14705e-01	3.88917e+02
4195	3.91469e+02	4.19500e+03	1.07363e-01	3.89583e+02
4203	3.92146e+02	4.20300e+03	1.00617e-01	3.90250e+02
4211	3.92816e+02	4.21100e+03	9.42655e-02	3.90917e+02
4219	3.93506e+02	4.21900e+03	8.84321e-02	3.91583e+02
4227	3.94181e+02	4.22700e+03	8.28128e-02	3.92250e+02
4235	3.94843e+02	4.23500e+03	7.79122e-02	3.92917e+02
4243	3.95518e+02	4.24300e+03	7.34119e-02	3.93583e+02
4251	3.96203e+02	4.25100e+03	6.91516e-02	3.94250e+02
4259	3.96877e+02	4.25900e+03	6.50778e-02	3.94917e+02
4267	3.97545e+02	4.26700e+03	6.13003e-02	3.95583e+02
4275	3.98227e+02	4.27500e+03	5.78486e-02	3.96250e+02
4283	3.98913e+02	4.28300e+03	5.47095e-02	3.96917e+02
4291	3.99575e+02	4.29100e+03	5.15986e-02	3.97583e+02
4299	4.00251e+02	4.29900e+03	4.88630e-02	3.98250e+02
4307	4.00897e+02	4.30700e+03	4.61471e-02	3.98917e+02
4315	4.01568e+02	4.31500e+03	4.35735e-02	3.99583e+02
4323	4.02240e+02	4.32300e+03	4.13030e-02	4.00250e+02
4331	4.02938e+02	4.33100e+03	3.92143e-02	4.00917e+02
4339	4.03600e+02	4.33900e+03	3.70386e-02	4.01583e+02
4347	4.04311e+02	4.34700e+03	3.51625e-02	4.02250e+02
4355	4.05012e+02	4.35500e+03	3.34291e-02	4.02917e+02
4363	4.05754e+02	4.36300e+03	3.18639e-02	4.03583e+02
4371	4.06662e+02	4.37100e+03	3.03341e-02	4.04250e+02
4379	4.07385e+02	4.37900e+03	2.87357e-02	4.04917e+02
4387	4.07998e+02	4.38700e+03	2.73331e-02	4.05583e+02
4395	4.08699e+02	4.39500e+03	2.60975e-02	4.06250e+02
4403	4.09333e+02	4.40300e+03	2.47960e-02	4.06917e+02
4411	4.10084e+02	4.41100e+03	2.34581e-02	4.07583e+02
4419	4.10799e+02	4.41900e+03	2.23517e-02	4.08250e+02
4427	4.11412e+02	4.42700e+03	2.13266e-02	4.08917e+02
4435	4.11986e+02	4.43500e+03	2.04635e-02	4.09583e+02
4443	4.12616e+02	4.44300e+03	1.95220e-02	4.10250e+02
4451	4.13316e+02	4.45100e+03	1.86049e-02	4.10917e+02
4459	4.13990e+02	4.45900e+03	1.76691e-02	4.11583e+02
4467	4.14666e+02	4.46700e+03	1.67517e-02	4.12250e+02
4475	4.15334e+02	4.47500e+03	1.61153e-02	4.12917e+02
4483	4.15991e+02	4.48300e+03	1.52975e-02	4.13583e+02
4491	4.16585e+02	4.49100e+03	1.45446e-02	4.14250e+02
4499	4.17173e+02	4.49900e+03	1.37761e-02	4.14917e+02
4507	4.17797e+02	4.50700e+03	1.31826e-02	4.15583e+02
4515	4.18445e+02	4.51500e+03	1.25991e-02	4.16250e+02
4523	4.19122e+02	4.52300e+03	1.19939e-02	4.16917e+02
4531	4.19772e+02	4.53100e+03	1.13545e-02	4.17583e+02
4539	4.20427e+02	4.53900e+03	1.08519e-02	4.18250e+02
4547	4.21066e+02	4.54700e+03	1.03439e-02	4.18917e+02
4555	4.21674e+02	4.55500e+03	9.87934e-03	4.19583e+02
4563	4.22320e+02	4.56300e+03	9.48319e-03	4.20250e+02
4571	4.22960e+02	4.57100e+03	9.13207e-03	4.20917e+02
4579	4.23573e+02	4.57900e+03	8.76861e-03	4.21583e+02
4587	4.24227e+02	4.58700e+03	8.50024e-03	4.22250e+02
4595	4.24857e+02	4.59500e+03	8.37105e-03	4.22917e+02
4603	4.25486e+02	4.60300e+03	8.24867e-03	4.23583e+02
4611	4.26118e+02	4.61100e+03	8.09823e-03	4.24250e+02
4619	4.26754e+02	4.61900e+03	7.90546e-03	4.24917e+02
4627	4.27399e+02	4.62700e+03	7.80436e-03	4.25583e+02
4635	4.28028e+02	4.63500e+03	7.84476e-03	4.26250e+02
4643	4.28647e+02	4.64300e+03	7.78570e-03	4.26917e+02
4651	4.29284e+02	4.65100e+03	7.20131e-03	4.27583e+02
4659	4.29911e+02	4.65900e+03	7.11093e-03	4.28250e+02
4667	4.30544e+02	4.66700e+03	7.93042e-03	4.28917e+02
4675	4.31181e+02	4.67500e+03	7.63909e-03	4.29583e+02
4683	4.31821e+02	4.68300e+03	7.44904e-03	4.30250e+02
4691	4.32459e+02	4.69100e+03	7.39109e-03	4.30917e+02
4699	4.33096e+02	4.69900e+03	7.12906e-03	4.31583e+02
4707	4.33760e+02	4.70700e+03	7.24055e-03	4.32250e+02
4715	4.34415e+02	4.71500e+03	7.20481e-03	4.32917e+02
4723	4.35056e+02	4.72300e+03	6.49697e-03	4.33583e+02
4731	4.35701e+02	4.73100e+03	6.89889e-03	4.34250e+02
4739	4.36201e+02	4.73900e+03	7.29990e-03	4.34917e+02
4747	4.36624e+02	4.74700e+03	6.92994e-03	4.35583e+02
4755	4.37236e+02	4.75500e+03	6.71390e-03	4.36250e+02
4763	4.37864e+02	4.76300e+03	6.78437e-03	4.36917e+02
4771	4.38493e+02	4.77100e+03	6.76957e-03	4.37583e+02
4779	4.39132e+02	4.77900e+03	6.84143e-03	4.38250e+02
4787	4.39768e+02	4.78700e+03	6.67433e-03	4.38917e+02
4795	4.40413e+02	4.79500e+03	6.56332e-03	4.39583e+02
4803	4.41075e+02	4.80300e+03	6.57354e-03	4.40250e+02
4811	4.41717e+02	4.81100e+03	6.57161e-03	4.40917e+02
4819	4.42355e+02	4.81900e+03	6.05455e-03	4.41583e+02
4827	4.43007e+02	4.82700e+03	5.92521e-03	4.42250e+02
4835	4.43655e+02	4.83500e+03	6.25459e-03	4.42917e+02
4843	4.44310e+02	4.84300e+03	6.65139e-03	4.43583e+02
4851	4.44977e+02	4.85100e+03	6.85863e-03	4.44250e+02
4859	4.45612e+02	4.85900e+03	6.65284e-03	4.44917e+02
4867	4.46270e+02	4.86700e+03	6.55525e-03	4.45583e+02
4875	4.46917e+02	4.87500e+03	6.53611e-03	4.46250e+02
4883	4.47563e+02	4.88300e+03	6.45283e-03	4.46917e+02
4891	4.48224e+02	4.89100e+03	6.24978e-03	4.47583e+02
4899	4.48872e+02	4.89900e+03	6.18339e-03	4.48250e+02
4907	4.49533e+02	4.90700e+03	6.17482e-03	4.48917e+02
4915	4.50184e+02	4.91500e+03	6.10511e-03	4.49583e+02
4923	4.50832e+02	4.92300e+03	6.09061e-03	4.50250e+02
4931	4.51488e+02	4.93100e+03	6.02569e-03	4.50917e+02
4939	4.52144e+02	4.93900e+03	6.04443e-03	4.51583e+02
4947	4.52802e+02	4.94700e+03	6.15223e-03	4.52250e+02
4955	4.53449e+02	4.95500e+03	6.05638e-03	4.52917e+02
4963	4.54100e+02	4.96300e+03	6.04404e-03	4.53583e+02
4971	4.54770e+02	4.97100e+03	6.05305e-03	4.54250e+02
4979	4.55418e+02	4.97900e+03	5.93921e-03	4.54917e+02
4987	4.56076e+02	4.98700e+03	5.96843e-03	4.55583e+02
4995	4.56729e+02	4.99500e+03	6.14161e-03	4.56250e+02
5003	4.57389e+02	5.00300e+03	6.03283e-03	4.56917e+02
5011	4.58031e+02	5.01100e+03	5.99678e-03	4.57583e+02
5019	4.58680e+02	5.01900e+03	6.08805e-03	4.58250e+02
5027	4.59321e+02	5.02700e+03	6.06618e-03	4.58917e+02
5035	4.59968e+02	5.03500e+03	5.94461e-03	4.59583e+02
5043	4.60623e+02	5.04300e+03	5.92090e-03	4.60250e+02
5051	4.61280e+02	5.05100e+03	5.89965e-03	4.60917e+02
5059	4.61945e+02	5.05900e+03	5.85729e-03	4.61583e+02
5067	4.62587e+02	5.06700e+03	5.83138e-03	4.62250e+02
5075	4.63237e+02	5.07500e+03	5.76573e-03	4.62917e+02
5083	4.63894e+02	5.08300e+03	5.77880e-03	4.63583e+02
5091	4.64554e+02	5.09100e+03	5.81053e-03	4.64250e+02
5099	4.65214e+02	5.09900e+03	5.69628e-03	4.64917e+02
5107	4.65856e+02	5.10700e+03	5.74390e-03	4.65583e+02
5115	4.66509e+02	5.11500e+03	5.86701e-03	4.66250e+02
5123	4.67171e+02	5.12300e+03	5.90082e-03	4.66917e+02
5131	4.67826e+02	5.13100e+03	5.90064e-03	4.67583e+02
5139	4.68483e+02	5.13900e+03	5.83831e-03	4.68250e+02
5147	4.69146e+02	5.14700e+03	5.68224e-03	4.68917e+02
5155	4.69800e+02	5.15500e+03	5.65719e-03	4.69583e+02
5163	4.70469e+02	5.16300e+03	5.53122e-03	4.70250e+02
5171	4.71111e+02	5.17100e+03	5.52655e-03	4.70917e+02
5179	4.71782e+02	5.17900e+03	5.56421e-03	4.71583e+02
5187	4.72428e+02	5.18700e+03	5.45178e-03	4.72250e+02
5195	4.73086e+02	5.19500e+03	5.52017e-03	4.72917e+02
5203	4.73733e+02	5.20300e+03	5.61800e-03	4.73583e+02
5211	4.74392e+02	5.21100e+03	5.64430e-03	4.74250e+02
5219	4.75048e+02	5.21900e+03	5.65364e-03	4.74917e+02
5227	4.75710e+02	5.22700e+03	5.59672e-03	4.75583e+02
5235	4.76358e+02	5.23500e+03	5.57288e-03	4.76250e+02
5243	4.77012e+02	5.24300e+03	5.60364e-03	4.76917e+02
5251	4.77668e+02	5.25100e+03	5.56590e-03	4.77583e+02
5259	4.78337e+02	5.25900e+03	5.44804e-03	4.78250e+02
5267	4.78992e+02	5.26700e+03	5.40825e-03	4.78917e+02
5275	4.79642e+02	5.27500e+03	5.45318e-03	4.79583e+02
5283	4.80295e+02	5.28300e+03	5.42306e-03	4.80250e+02
5291	4.80953e+02	5.29100e+03	5.39974e-03	4.80917e+02
5299	4.81618e+02	5.29900e+03	5.39440e-03	4.81583e+02
5307	4.82270e+02	5.30700e+03	5.47657e-03	4.82250e+02
5315	4.82926e+02	5.31500e+03	5.42452e-03	4.82917e+02
5323	4.83588e+02	5.32300e+03	5.48002e-03	4.83583e+02
5331	4.84237e+02	5.33100e+03	5.48666e-03	4.84250e+02
5339	4.84879e+02	5.33900e+03	5.45269e-03	4.84917e+02
5347	4.85534e+02	5.34700e+03	5.43491e-03	4.85583e+02
5355	4.86208e+02	5.35500e+03	5.41213e-03	4.86250e+02
5363	4.86864e+02	5.36300e+03	5.34258e-03	4.86917e+02
5371	4.87515e+02	5.37100e+03	5.22046e-03	4.87583e+02
5379	4.88176e+02	5.37900e+03	5.24462e-03	4.88250e+02
5387	4.88820e+02	5.38700e+03	5.20466e-03	4.88917e+02
5395	4.89481e+02	5.39500e+03	5.27701e-03	4.89583e+02
5403	4.90147e+02	5.40300e+03	5.19772e-03	4.90250e+02
5411	4.90794e+02	5.41100e+03	5.17511e-03	4.90917e+02
5419	4.91447e+02	5.41900e+03	5.18701e-03	4.91583e+02
5427	4.92107e+02	5.42700e+03	5.17613e-03	4.92250e+02
5435	4.92762e+02	5.43500e+03	5.19574e-03	4.92917e+02
5443	4.93428e+02	5.44300e+03	5.14382e-03	4.93583e+02
5451	4.94067e+02	5.45100e+03	5.14265e-03	4.94250e+02
5459	4.94737e+02	5.45900e+03	5.15686e-03	4.94917e+02
5467	4.95405e+02	5.46700e+03	5.03792e-03	4.95583e+02
5475	4.96059e+02	5.47500e+03	5.15031e-03	4.96250e+02
5483	4.96701e+02	5.48300e+03	5.22062e-03	4.96917e+02
5491	4.97365e+02	5.49100e+03	5.11209e-03	4.97583e+02
5499	4.98018e+02	5.49900e+03	5.07048e-03	4.98250e+02
5507	4.98667e+02	5.50700e+03	5.13118e-03	4.98917e+02
5515	4.99329e+02	5.51500e+03	5.11584e-03	4.99583e+02
5523	4.99991e+02	5.52300e+03	4.99775e-03	5.00250e+02
5531	5.00642e+02	5.53100e+03	5.03393e-03	5.00917e+02
5539	5.01311e+02	5.53900e+03	5.20164e-03	5.01583e+02
5547	5.01977e+02	5.54700e+03	5.13509e-03	5.02250e+02
5555	5.02628e+02	5.55500e+03	5.00628e-03	5.02917e+02
5563	5.03283e+02	5.56300e+03	5.05350e-03	5.03583e+02
5571	5.03944e+02	5.57100e+03	4.93322e-03	5.04250e+02
5579	5.04595e+02	5.57900e+03	4.92773e-03	5.04917e+02
5587	5.05253e+02	5.58700e+03	4.93034e-03	5.05583e+02
5595	5.05918e+02	5.59500e+03	4.83651e-03	5.06250e+02
5603	5.06575e+02	5.60300e+03	4.74462e-03	5.06917e+02
5611	5.07239e+02	5.61100e+03	4.75462e-03	5.07583e+02
5619	5.07899e+02	5.61900e+03	4.77163e-03	5.08250e+02
5627	5.08548e+02	5.62700e+03	4.88929e-03	5.08917e+02
5635	5.09213e+02	5.63500e+03	4.88864e-03	5.09583e+02
5643	5.09876e+02	5.64300e+03	4.91250e-03	5.10250e+02
5651	5.10535e+02	5.65100e+03	4.85306e-03	5.10917e+02
5659	5.11203e+02	5.65900e+03	4.81394e-03	5.11583e+02
5667	5.11872e+02	5.66700e+03	4.89307e-03	5.12250e+02
5675	5.12534e+02	5.67500e+03	4.95766e-03	5.12917e+02
5683	5.13196e+02	5.68300e+03	4.92373e-03	5.13583e+02
5691	5.13863e+02	5.69100e+03	4.88930e-03	5.14250e+02
5699	5.14529e+02	5.69900e+03	4.86920e-03	5.14917e+02
5707	5.15188e+02	5.70700e+03	4.92087e-03	5.15583e+02
5715	5.15841e+02	5.71500e+03	4.86921e-03	5.16250e+02
5723	5.16504e+02	5.72300e+03	4.82495e-03	5.16917e+02
5731	5.17166e+02	5.73100e+03	4.84909e-03	5.17583e+02
5739	5.17829e+02	5.73900e+03	4.82402e-03	5.18250e+02
5747	5.18486e+02	5.74700e+03	4.72678e-03	5.18917e+02
5755	5.19158e+02	5.75500e+03	4.67878e-03	5.19583e+02
5763	5.19825e+02	5.76300e+03	4.69266e-03	5.20250e+02
5771	5.20496e+02	5.77100e+03	4.86653e-03	5.20917e+02
5779	5.21153e+02	5.77900e+03	4.71641e-03	5.21583e+02
5787	5.21824e+02	5.78700e+03	4.71959e-03	5.22250e+02
5795	5.22500e+02	5.79500e+03	4.70816e-03	5.22917e+02
5803	5.23174e+02	5.80300e+03	4.72762e-03	5.23583e+02
5811	5.23834e+02	5.81100e+03	4.66073e-03	5.24250e+02
5819	5.24504e+02	5.81900e+03	4.59199e-03	5.24917e+02
5827	5.25168e+02	5.82700e+03	4.58779e-03	5.25583e+02
5835	5.25837e+02	5.83500e+03	4.54268e-03	5.26250e+02
5843	5.26496e+02	5.84300e+03	4.55510e-03	5.26917e+02
5851	5.27154e+02	5.85100e+03	4.50545e-03	5.27583e+02
5859	5.27829e+02	5.85900e+03	4.58076e-03	5.28250e+02
5867	5.28490e+02	5.86700e+03	4.61041e-03	5.28917e+02
5875	5.29158e+02	5.87500e+03	4.57875e-03	5.29583e+02
5883	5.29822e+02	5.88300e+03	4.57183e-03	5.30250e+02
5891	5.30491e+02	5.89100e+03	4.69587e-03	5.30917e+02
5899	5.31170e+02	5.89900e+03	4.77058e-03	5.31583e+02
5907	5.31837e+02	5.90700e+03	4.75286e-03	5.32250e+02
5915	5.32508e+02	5.91500e+03	4.68547e-03	5.32917e+02
5923	5.33176e+02	5.92300e+03	4.60844e-03	5.33583e+02
5931	5.33857e+02	5.93100e+03	4.62035e-03	5.34250e+02
5939	5.34517e+02	5.93900e+03	4.56671e-03	5.34917e+02
5947	5.35189e+02	5.94700e+03	4.54923e-03	5.35583e+02
5955	5.35852e+02	5.95500e+03	4.58143e-03	5.36250e+02
5963	5.36505e+02	5.96300e+03	4.53033e-03	5.36917e+02
5971	5.37171e+02	5.97100e+03	4.52413e-03	5.37583e+02
5979	5.37832e+02	5.97900e+03	4.52379e-03	5.38250e+02
5987	5.38486e+02	5.98700e+03	4.40041e-03	5.38917e+02
5995	5.39164e+02	5.99500e+03	4.50684e-03	5.39583e+02
6003	5.39823e+02	6.00300e+03	4.52717e-03	5.40250e+02
6011	5.40489e+02	6.01100e+03	4.46529e-03	5.40917e+02
6019	5.41152e+02	6.01900e+03	4.47232e-03	5.41583e+02
6027	5.41809e+02	6.02700e+03	4.39057e-03	5.42250e+02
6035	5.42479e+02	6.03500e+03	4.35552e-03	5.42917e+02
6043	5.43138e+02	6.04300e+03	4.44491e-03	5.43583e+02
6051	5.43788e+02	6.05100e+03	4.30768e-03	5.44250e+02
6059	5.44443e+02	6.05900e+03	4.34884e-03	5.44917e+02
6067	5.45099e+02	6.06700e+03	4.44060e-03	5.45583e+02
6075	5.45755e+02	6.07500e+03	4.38269e-03	5.46250e+02
6083	5.46422e+02	6.08300e+03	4.31686e-03	5.46917e+02
6091	5.47072e+02	6.09100e+03	4.33094e-03	5.47583e+02
6099	5.47724e+02	6.09900e+03	4.33571e-03	5.48250e+02
6107	5.48393e+02	6.10700e+03	4.24362e-03	5.48917e+02
6115	5.49049e+02	6.11500e+03	4.26249e-03	5.49583e+02
6123	5.49703e+02	6.12300e+03	4.26917e-03	5.50250e+02
6131	5.50370e+02	6.13100e+03	4.20730e-03	5.50917e+02
6139	5.51028e+02	6.13900e+03	4.16343e-03	5.51583e+02
6147	5.51686e+02	6.14700e+03	4.05824e-03	5.52250e+02
6155	5.52356e+02	6.15500e+03	4.01631e-03	5.52917e+02
6163	5.53004e+02	6.16300e+03	3.96161e-03	5.53583e+02
6171	5.53671e+02	6.17100e+03	3.97316e-03	5.54250e+02
6179	5.54324e+02	6.17900e+03	4.00764e-03	5.54917e+02
6187	5.54997e+02	6.18700e+03	3.96734e-03	5.55583e+02
6195	5.55661e+02	6.19500e+03	3.87152e-03	5.56250e+02
6203	5.56316e+02	6.20300e+03	3.82981e-03	5.56917e+02
6211	5.56978e+02	6.21100e+03	3.93171e-03	5.57583e+02
6219	5.57650e+02	6.21900e+03	3.93113e-03	5.58250e+02
6227	5.58311e+02	6.22700e+03	3.92815e-03	5.58917e+02
6235	5.58976e+02	6.23500e+03	3.88291e-03	5.59583e+02
6243	5.59639e+02	6.24300e+03	3.89357e-03	5.60250e+02
6251	5.60305e+02	6.25100e+03	3.76779e-03	5.60917e+02
6259	5.60962e+02	6.25900e+03	3.72433e-03	5.61583e+02
6267	5.61614e+02	6.26700e+03	3.65138e-03	5.62250e+02
6275	5.62269e+02	6.27500e+03	3.74944e-03	5.62917e+02
6283	5.62921e+02	6.28300e+03	3.67558e-03	5.63583e+02
6291	5.63586e+02	6.29100e+03	3.61290e-03	5.64250e+02
6299	5.64252e+02	6.29900e+03	3.67654e-03	5.64917e+02
6307	5.64928e+02	6.30700e+03	3.54861e-03	5.65583e+02
6315	5.65570e+02	6.31500e+03	3.58551e-03	5.66250e+02
6323	5.66243e+02	6.32300e+03	3.62158e-03	5.66917e+02
6331	5.66894e+02	6.33100e+03	3.63902e-03	5.67583e+02
6339	5.67546e+02	6.33900e+03	3.73740e-03	5.68250e+02
6347	5.68210e+02	6.34700e+03	3.71201e-03	5.68917e+02
6355	5.68873e+02	6.35500e+03	3.66033e-03	5.69583e+02
6363	5.69533e+02	6.36300e+03	3.66721e-03	5.70250e+02
6371	5.70201e+02	6.37100e+03	3.69574e-03	5.70917e+02
6379	5.70861e+02	6.37900e+03	3.69029e-03	5.71583e+02
6387	5.71517e+02	6.38700e+03	3.64496e-03	5.72250e+02
6395	5.72180e+02	6.39500e+03	3.55487e-03	5.72917e+02
6403	5.72845e+02	6.40300e+03	3.63194e-03	5.73583e+02
6411	5.73492e+02	6.41100e+03	3.62153e-03	5.74250e+02
6419	5.74139e+02	6.41900e+03	3.74737e-03	5.74917e+02
6427	5.74797e+02	6.42700e+03	3.72037e-03	5.75583e+02
6435	5.75449e+02	6.43500e+03	3.62007e-03	5.76250e+02
6443	5.76091e+02	6.44300e+03	3.65894e-03	5.76917e+02
6451	5.76752e+02	6.45100e+03	3.65664e-03	5.77583e+02
6459	5.77400e+02	6.45900e+03	3.56709e-03	5.78250e+02
6467	5.78064e+02	6.46700e+03	3.58526e-03	5.78917e+02
6475	5.78698e+02	6.47500e+03	3.62527e-03	5.79583e+02
6483	5.79351e+02	6.48300e+03	3.68425e-03	5.80250e+02
6491	5.80002e+02	6.49100e+03	3.71722e-03	5.80917e+02
6499	5.80660e+02	6.49900e+03	3.64638e-03	5.81583e+02
6507	5.81320e+02	6.50700e+03	3.72137e-03	5.82250e+02
6515	5.81988e+02	6.51500e+03	3.65939e-03	5.82917e+02
6523	5.82646e+02	6.52300e+03	3.72589e-03	5.83583e+02
6531	5.83311e+02	6.53100e+03	3.74205e-03	5.84250e+02
6539	5.83965e+02	6.53900e+03	3.75553e-03	5.84917e+02
6547	5.84639e+02	6.54700e+03	3.74469e-03	5.85583e+02
6555	5.85286e+02	6.55500e+03	3.77088e-03	5.86250e+02
6563	5.85945e+02	6.56300e+03	3.80452e-03	5.86917e+02
6571	5.86601e+02	6.57100e+03	3.70171e-03	5.87583e+02
6579	5.87270e+02	6.57900e+03	3.64660e-03	5.88250e+02
6587	5.87920e+02	6.58700e+03	3.61381e-03	5.88917e+02
6595	5.88605e+02	6.59500e+03	3.59181e-03	5.89583e+02
6603	5.89277e+02	6.60300e+03	3.55497e-03	5.90250e+02
6611	5.89926e+02	6.61100e+03	3.63847e-03	5.90917e+02
6619	5.90592e+02	6.61900e+03	3.58762e-03	5.91583e+02
6627	5.91257e+02	6.62700e+03	3.59247e-03	5.92250e+02
6635	5.91917e+02	6.63500e+03	3.57588e-03	5.92917e+02
6643	5.92590e+02	6.64300e+03	3.52523e-03	5.93583e+02
6651	5.93234e+02	6.65100e+03	3.41783e-03	5.94250e+02
6659	5.93920e+02	6.65900e+03	3.46697e-03	5.94917e+02
6667	5.94572e+02	6.66700e+03	3.54795e-03	5.95583e+02
6675	5.95229e+02	6.67500e+03	3.47672e-03	5.96250e+02
6683	5.95909e+02	6.68300e+03	3.35567e-03	5.96917e+02
6691	5.96566e+02	6.69100e+03	3.37589e-03	5.97583e+02
6699	5.97227e+02	6.69900e+03	3.43763e-03	5.98250e+02
6707	5.97890e+02	6.70700e+03	3.42508e-03	5.98917e+02
6715	5.98561e+02	6.71500e+03	3.37886e-03	5.99583e+02
6723	5.99227e+02	6.72300e+03	3.41784e-03	6.00250e+02
6731	5.99892e+02	6.73100e+03	3.35954e-03	6.00917e+02
6739	6.00550e+02	6.73900e+03	3.38303e-03	6.01583e+02
6747	6.01218e+02	6.74700e+03	3.33110e-03	6.02250e+02
6755	6.01879e+02	6.75500e+03	3.26811e-03	6.02917e+02
6763	6.02550e+02	6.76300e+03	3.27045e-03	6.03583e+02
6771	6.03230e+02	6.77100e+03	3.22738e-03	6.04250e+02
6779	6.03898e+02	6.77900e+03	3.23301e-03	6.04917e+02
6787	6.04557e+02	6.78700e+03	3.27733e-03	6.05583e+02
6795	6.05230e+02	6.79500e+03	3.22344e-03	6.06250e+02
6803	6.05898e+02	6.80300e+03	3.18292e-03	6.06917e+02
6811	6.06560e+02	6.81100e+03	3.15859e-03	6.07583e+02
6819	6.07226e+02	6.81900e+03	3.20559e-03	6.08250e+02
6827	6.07896e+02	6.82700e+03	3.23866e-03	6.08917e+02
6835	6.08567e+02	6.83500e+03	3.22016e-03	6.09583e+02
6843	6.09229e+02	6.84300e+03	3.18070e-03	6.10250e+02
6851	6.09887e+02	6.85100e+03	3.19478e-03	6.10917e+02
6859	6.10562e+02	6.85900e+03	3.24386e-03	6.11583e+02
6867	6.11227e+02	6.86700e+03	3.25462e-03	6.12250e+02
6875	6.11897e+02	6.87500e+03	3.14697e-03	6.12917e+02
6883	6.12556e+02	6.88300e+03	3.13405e-03	6.13583e+02
6891	6.13220e+02	6.89100e+03	3.12415e-03	6.14250e+02
6899	6.13893e+02	6.89900e+03	2.99451e-03	6.14917e+02
6907	6.14549e+02	6.90700e+03	3.05593e-03	6.15583e+02
6915	6.15215e+02	6.91500e+03	3.01418e-03	6.16250e+02
6923	6.15875e+02	6.92300e+03	2.90341e-03	6.16917e+02
6931	6.16538e+02	6.93100e+03	2.98041e-03	6.17583e+02
6939	6.17193e+02	6.93900e+03	3.00765e-03	6.18250e+02
6947	6.17857e+02	6.94700e+03	2.94547e-03	6.18917e+02
6955	6.18518e+02	6.95500e+03	2.90956e-03	6.19583e+02
6963	6.19191e+02	6.96300e+03	2.91581e-03	6.20250e+02
6971	6.19852e+02	6.97100e+03	2.90558e-03	6.20917e+02
6979	6.20513e+02	6.97900e+03	2.92957e-03	6.21583e+02
6987	6.21174e+02	6.98700e+03	3.00078e-03	6.22250e+02
6995	6.21846e+02	6.99500e+03	3.04073e-03	6.22917e+02
7003	6.22495e+02	7.00300e+03	3.00907e-03	6.23583e+02
7011	6.23170e+02	7.01100e+03	2.96714e-03	6.24250e+02
7019	6.23826e+02	7.01900e+03	2.98785e-03	6.24917e+02
7027	6.24497e+02	7.02700e+03	2.84919e-03	6.25583e+02
7035	6.25159e+02	7.03500e+03	2.76901e-03	6.26250e+02
7043	6.25841e+02	7.04300e+03	2.77674e-03	6.26917e+02
7051	6.26492e+02	7.05100e+03	2.71115e-03	6.27583e+02
7059	6.27160e+02	7.05900e+03	2.82260e-03	6.28250e+02
7067	6.27828e+02	7.06700e+03	2.78239e-03	6.28917e+02
7075	6.28498e+02	7.07500e+03	2.83457e-03	6.29583e+02
7083	6.29165e+02	7.08300e+03	2.82972e-03	6.30250e+02
7091	6.29836e+02	7.09100e+03	2.77755e-03	6.30917e+02
7099	6.30503e+02	7.09900e+03	2.76103e-03	6.31583e+02
7107	6.31172e+02	7.10700e+03	2.72750e-03	6.32250e+02
7115	6.31841e+02	7.11500e+03	2.70985e-03	6.32917e+02
7123	6.32502e+02	7.12300e+03	2.72086e-03	6.33583e+02
7131	6.33179e+02	7.13100e+03	2.71053e-03	6.34250e+02
7139	6.33846e+02	7.13900e+03	2.71320e-03	6.34917e+02
7147	6.34509e+02	7.14700e+03	2.71132e-03	6.35583e+02
7155	6.35170e+02	7.15500e+03	2.54975e-03	6.36250e+02
7163	6.35832e+02	7.16300e+03	2.49256e-03	6.36917e+02
7171	6.36514e+02	7.17100e+03	2.63128e-03	6.37583e+02
7179	6.37183e+02	7.17900e+03	2.58538e-03	6.38250e+02
7187	6.37850e+02	7.18700e+03	2.64377e-03	6.38917e+02
7195	6.38521e+02	7.19500e+03	2.59030e-03	6.39583e+02
7203	6.39184e+02	7.20300e+03	2.38719e-03	6.40250e+02
7211	6.39851e+02	7.21100e+03	2.32919e-03	6.40917e+02
7219	6.40518e+02	7.21900e+03	2.36366e-03	6.41583e+02
7227	6.41186e+02	7.22700e+03	2.48246e-03	6.42250e+02
7235	6.41844e+02	7.23500e+03	2.53375e-03	6.42917e+02
7243	6.42519e+02	7.24300e+03	2.39617e-03	6.43583e+02
7251	6.43182e+02	7.25100e+03	2.52173e-03	6.44250e+02
7259	6.43854e+02	7.25900e+03	2.50836e-03	6.44917e+02
7267	6.44524e+02	7.26700e+03	2.42599e-03	6.45583e+02
7275	6.45195e+02	7.27500e+03	2.44115e-03	6.46250e+02
7283	6.45864e+02	7.28300e+03	2.48380e-03	6.46917e+02
7291	6.46529e+02	7.29100e+03	2.38560e-03	6.47583e+02
7299	6.47193e+02	7.29900e+03	2.26252e-03	6.48250e+02
7307	6.47865e+02	7.30700e+03	2.25870e-03	6.48917e+02
7315	6.48542e+02	7.31500e+03	2.19928e-03	6.49583e+02
7323	6.49196e+02	7.32300e+03	2.24753e-03	6.50250e+02
7331	6.49882e+02	7.33100e+03	2.35169e-03	6.50917e+02
7339	6.50548e+02	7.33900e+03	2.39479e-03	6.51583e+02
7347	6.51217e+02	7.34700e+03	2.36504e-03	6.52250e+02
7355	6.51882e+02	7.35500e+03	2.32150e-03	6.52917e+02
7363	6.52565e+02	7.36300e+03	2.25879e-03	6.53583e+02
7371	6.53229e+02	7.37100e+03	2.27529e-03	6.54250e+02
7379	6.53898e+02	7.37900e+03	2.31768e-03	6.54917e+02
7387	6.54556e+02	7.38700e+03	2.27720e-03	6.55583e+02
7395	6.55238e+02	7.39500e+03	2.16080e-03	6.56250e+02
7403	6.55901e+02	7.40300e+03	2.12823e-03	6.56917e+02
7411	6.56571e+02	7.41100e+03	2.15845e-03	6.57583e+02
7419	6.57239e+02	7.41900e+03	2.17008e-03	6.58250e+02
7427	6.57901e+02	7.42700e+03	2.27669e-03	6.58917e+02
7435	6.58580e+02	7.43500e+03	2.24730e-03	6.59583e+02
7443	6.59238e+02	7.44300e+03	2.21726e-03	6.60250e+02
7451	6.59915e+02	7.45100e+03	2.26353e-03	6.60917e+02
7459	6.60582e+02	7.45900e+03	2.27099e-03	6.61583e+02
7467	6.61251e+02	7.46700e+03	2.27502e-03	6.62250e+02
7475	6.61916e+02	7.47500e+03	2.24484e-03	6.62917e+02
7483	6.62587e+02	7.48300e+03	2.20307e-03	6.63583e+02
7491	6.63256e+02	7.49100e+03	2.17919e-03	6.64250e+02
7499	6.63919e+02	7.49900e+03	2.27077e-03	6.64917e+02
7507	6.64589e+02	7.50700e+03	2.26212e-03	6.65583e+02
7515	6.65260e+02	7.51500e+03	2.30981e-03	6.66250e+02
7523	6.65923e+02	7.52300e+03	2.36676e-03	6.66917e+02
7531	6.66599e+02	7.53100e+03	2.54207e-03	6.67583e+02
7539	6.67268e+02	7.53900e+03	2.53950e-03	6.68250e+02
7547	6.67938e+02	7.54700e+03	2.50687e-03	6.68917e+02
7555	6.68603e+02	7.55500e+03	2.42630e-03	6.69583e+02
7563	6.69277e+02	7.56300e+03	2.44754e-03	6.70250e+02
7571	6.69953e+02	7.57100e+03	2.36623e-03	6.70917e+02
7579	6.70620e+02	7.57900e+03	2.34474e-03	6.71583e+02
7587	6.71282e+02	7.58700e+03	2.31824e-03	6.72250e+02
7595	6.71956e+02	7.59500e+03	2.29525e-03	6.72917e+02
7603	6.72632e+02	7.60300e+03	2.16728e-03	6.73583e+02
7611	6.73295e+02	7.61100e+03	2.21556e-03	6.74250e+02
7619	6.73960e+02	7.61900e+03	2.29167e-03	6.74917e+02
7627	6.74640e+02	7.62700e+03	2.26203e-03	6.75583e+02
7635	6.75300e+02	7.63500e+03	2.09069e-03	6.76250e+02
7643	6.75971e+02	7.64300e+03	2.03614e-03	6.76917e+02
7651	6.76647e+02	7.65100e+03	2.11993e-03	6.77583e+02
7659	6.77314e+02	7.65900e+03	2.07384e-03	6.78250e+02
7667	6.77983e+02	7.66700e+03	2.12602e-03	6.78917e+02
7675	6.78647e+02	7.67500e+03	2.14695e-03	6.79583e+02
7683	6.79314e+02	7.68300e+03	2.14254e-03	6.80250e+02
7691	6.79996e+02	7.69100e+03	2.08213e-03	6.80917e+02
7699	6.80657e+02	7.69900e+03	2.11944e-03	6.81583e+02
7707	6.81323e+02	7.70700e+03	2.08520e-03	6.82250e+02
7715	6.81995e+02	7.71500e+03	2.09281e-03	6.82917e+02
7723	6.82664e+02	7.72300e+03	2.00841e-03	6.83583e+02
7731	6.83329e+02	7.73100e+03	1.92935e-03	6.84250e+02
7739	6.83993e+02	7.73900e+03	1.96247e-03	6.84917e+02
7747	6.84670e+02	7.74700e+03	2.08092e-03	6.85583e+02
7755	6.85338e+02	7.75500e+03	2.07266e-03	6.86250e+02
7763	6.85987e+02	7.76300e+03	2.13276e-03	6.86917e+02
7771	6.86662e+02	7.77100e+03	2.03342e-03	6.87583e+02
7779	6.87322e+02	7.77900e+03	2.05862e-03	6.88250e+02
7787	6.87992e+02	7.78700e+03	1.99190e-03	6.88917e+02
7795	6.88664e+02	7.79500e+03	1.90035e-03	6.89583e+02
7803	6.89335e+02	7.80300e+03	1.86807e-03	6.90250e+02
7811	6.90003e+02	7.81100e+03	1.85945e-03	6.90917e+02
7819	6.90670e+02	7.81900e+03	1.95383e-03	6.91583e+02
7827	6.91328e+02	7.82700e+03	1.94556e-03	6.92250e+02
7835	6.91991e+02	7.83500e+03	2.01101e-03	6.92917e+02
7843	6.92675e+02	7.84300e+03	2.06275e-03	6.93583e+02
7851	6.93338e+02	7.85100e+03	2.00561e-03	6.94250e+02
7859	6.94002e+02	7.85900e+03	1.89356e-03	6.94917e+02
7867	6.94656e+02	7.86700e+03	1.76728e-03	6.95583e+02
7875	6.95331e+02	7.87500e+03	1.77054e-03	6.96250e+02
7883	6.96001e+02	7.88300e+03	1.88180e-03	6.96917e+02
7891	6.96663e+02	7.89100e+03	1.86900e-03	6.97583e+02
7899	6.97171e+02	7.89900e+03	1.95438e-03	6.98250e+02
7907	6.97624e+02	7.90700e+03	1.91709e-03	6.98917e+02
7915	6.97970e+02	7.91500e+03	1.74908e-03	6.99583e+02
7920	6.98142e+02	7.92000e+03	1.73393e-03	7.00000e+02