File: Experiments/TUBS/tga_nonisotherm/tga_dynamic_n2_dyn30_powder_3mg_r2.txt
index	ts	t	weight	tr
[#]	[°C]	[s]	[mg]	[°C]
683	1.31340e+02	6.83000e+02	2.99702e+00	1.31500e+02
685	1.32338e+02	6.85000e+02	2.99697e+00	1.32500e+02
687	1.33350e+02	6.87000e+02	2.99691e+00	1.33500e+02
689	1.34348e+02	6.89000e+02	2.99685e+00	1.34500e+02
691	1.35351e+02	6.91000e+02	2.99677e+00	1.35500e+02
693	1.36350e+02	6.93000e+02	2.99666e+00	1.36500e+02
695	1.37365e+02	6.95000e+02	2.99653e+00	1.37500e+02
697	1.38367e+02	6.97000e+02	2.99634e+00	1.38500e+02
699	1.39359e+02	6.99000e+02	2.99616e+00	1.39500e+02
701	1.40385e+02	7.01000e+02	2.99596e+00	1.40500e+02
703	1.41373e+02	7.03000e+02	2.99576e+00	1.41500e+02
705	1.42365e+02	7.05000e+02	2.99556e+00	1.42500e+02
707	1.43375e+02	7.07000e+02	2.99534e+00	1.43500e+02
709	1.44397e+02	7.09000e+02	2.99509e+00	1.44500e+02
711	1.45383e+02	7.11000e+02	2.99482e+00	1.45500e+02
713	1.46387e+02	7.13000e+02	2.99450e+00	1.46500e+02
715	1.47407e+02	7.15000e+02	2.99417e+00	1.47500e+02
717	1.48401e+02	7.17000e+02	2.99381e+00	1.48500e+02
719	1.49393e+02	7.19000e+02	2.99345e+00	1.49500e+02
721	1.50400e+02	7.21000e+02	2.99306e+00	1.50500e+02
723	1.51425e+02	7.23000e+02	2.99267e+00	1.51500e+02
725	1.52412e+02	7.25000e+02	2.99224e+00	1.52500e+02
727	1.53422e+02	7.27000e+02	2.99183e+00	1.53500e+02
729	1.54430e+02	7.29000e+02	2.99142e+00	1.54500e+02
731	1.55440e+02	7.31000e+02	2.99098e+00	1.55500e+02
733	1.56459e+02	7.33000e+02	2.99051e+00	1.56500e+02
735	1.57468e+02	7.35000e+02	2.99003e+00	1.57500e+02
737	1.58469e+02	7.37000e+02	2.98954e+00	1.58500e+02
739	1.59472e+02	7.39000e+02	2.98905e+00	1.59500e+02
741	1.60488e+02	7.41000e+02	2.98856e+00	1.60500e+02
743	1.61501e+02	7.43000e+02	2.98806e+00	1.61500e+02
745	1.62522e+02	7.45000e+02	2.98754e+00	1.62500e+02
747	1.63535e+02	7.47000e+02	2.98703e+00	1.63500e+02
749	1.64543e+02	7.49000e+02	2.98649e+00	1.64500e+02
751	1.65557e+02	7.51000e+02	2.98593e+00	1.65500e+02
753	1.66561e+02	7.53000e+02	2.98532e+00	1.66500e+02
755	1.67575e+02	7.55000e+02	2.98468e+00	1.67500e+02
757	1.68583e+02	7.57000e+02	2.98397e+00	1.68500e+02
759	1.69599e+02	7.59000e+02	2.98325e+00	1.69500e+02
761	1.70610e+02	7.61000e+02	2.98248e+00	1.70500e+02
763	1.71617e+02	7.63000e+02	2.98168e+00	1.71500e+02
765	1.72627e+02	7.65000e+02	2.98080e+00	1.72500e+02
767	1.73631e+02	7.67000e+02	2.97990e+00	1.73500e+02
769	1.74653e+02	7.69000e+02	2.97892e+00	1.74500e+02
771	1.75663e+02	7.71000e+02	2.97792e+00	1.75500e+02
773	1.76675e+02	7.73000e+02	2.97683e+00	1.76500e+02
775	1.77679e+02	7.75000e+02	2.97569e+00	1.77500e+02
777	1.78685e+02	7.77000e+02	2.97440e+00	1.78500e+02
779	1.79695e+02	7.79000e+02	2.97304e+00	1.79500e+02
781	1.80698e+02	7.81000e+02	2.97149e+00	1.80500e+02
783	1.81709e+02	7.83000e+02	2.96991e+00	1.81500e+02
785	1.82706e+02	7.85000e+02	2.96815e+00	1.82500e+02
787	1.83714e+02	7.87000e+02	2.96635e+00	1.83500e+02
789	1.84709e+02	7.89000e+02	2.96435e+00	1.84500e+02
791	1.85717e+02	7.91000e+02	2.96225e+00	1.85500e+02
793	1.86717e+02	7.93000e+02	2.95988e+00	1.86500e+02
795	1.87740e+02	7.95000e+02	2.95743e+00	1.87500e+02
797	1.88740e+02	7.97000e+02	2.95472e+00	1.88500e+02
799	1.89726e+02	7.99000e+02	2.95200e+00	1.89500e+02
801	1.90732e+02	8.01000e+02	2.94912e+00	1.90500e+02
803	1.91746e+02	8.03000e+02	2.94625e+00	1.91500e+02
805	1.92764e+02	8.05000e+02	2.94330e+00	1.92500e+02
807	1.93772e+02	8.07000e+02	2.94033e+00	1.93500e+02
809	1.94790e+02	8.09000e+02	2.93726e+00	1.94500e+02
811	1.95814e+02	8.11000e+02	2.93419e+00	1.95500e+02
813	1.96838e+02	8.13000e+02	2.93110e+00	1.96500e+02
815	1.97859e+02	8.15000e+02	2.92806e+00	1.97500e+02
817	1.98892e+02	8.17000e+02	2.92513e+00	1.98500e+02
819	1.99923e+02	8.19000e+02	2.92225e+00	1.99500e+02
821	2.00966e+02	8.21000e+02	2.91953e+00	2.00500e+02
823	2.01988e+02	8.23000e+02	2.91685e+00	2.01500e+02
825	2.03054e+02	8.25000e+02	2.91436e+00	2.02500e+02
827	2.04110e+02	8.27000e+02	2.91193e+00	2.03500e+02
829	2.05158e+02	8.29000e+02	2.90974e+00	2.04500e+02
831	2.06203e+02	8.31000e+02	2.90762e+00	2.05500e+02
833	2.07242e+02	8.33000e+02	2.90573e+00	2.06500e+02
835	2.08313e+02	8.35000e+02	2.90389e+00	2.07500e+02
837	2.09369e+02	8.37000e+02	2.90225e+00	2.08500e+02
839	2.10385e+02	8.39000e+02	2.90067e+00	2.09500e+02
841	2.11415e+02	8.41000e+02	2.89931e+00	2.10500e+02
843	2.12467e+02	8.43000e+02	2.89800e+00	2.11500e+02
845	2.13480e+02	8.45000e+02	2.89688e+00	2.12500e+02
847	2.14511e+02	8.47000e+02	2.89577e+00	2.13500e+02
849	2.15547e+02	8.49000e+02	2.89481e+00	2.14500e+02
851	2.16544e+02	8.51000e+02	2.89390e+00	2.15500e+02
853	2.17579e+02	8.53000e+02	2.89313e+00	2.16500e+02
855	2.18604e+02	8.55000e+02	2.89237e+00	2.17500e+02
857	2.19624e+02	8.57000e+02	2.89171e+00	2.18500e+02
859	2.20647e+02	8.59000e+02	2.89103e+00	2.19500e+02
861	2.21672e+02	8.61000e+02	2.89036e+00	2.20500e+02
863	2.22681e+02	8.63000e+02	2.88967e+00	2.21500e+02
865	2.23709e+02	8.65000e+02	2.88897e+00	2.22500e+02
867	2.24733e+02	8.67000e+02	2.88829e+00	2.23500e+02
869	2.25757e+02	8.69000e+02	2.88760e+00	2.24500e+02
871	2.26785e+02	8.71000e+02	2.88690e+00	2.25500e+02
873	2.27819e+02	8.73000e+02	2.88618e+00	2.26500e+02
875	2.28869e+02	8.75000e+02	2.88545e+00	2.27500e+02
877	2.29914e+02	8.77000e+02	2.88469e+00	2.28500e+02
879	2.30939e+02	8.79000e+02	2.88393e+00	2.29500e+02
881	2.31971e+02	8.81000e+02	2.88316e+00	2.30500e+02
883	2.33003e+02	8.83000e+02	2.88238e+00	2.31500e+02
885	2.34046e+02	8.85000e+02	2.88160e+00	2.32500e+02
887	2.35083e+02	8.87000e+02	2.88083e+00	2.33500e+02
889	2.36151e+02	8.89000e+02	2.88007e+00	2.34500e+02
891	2.37190e+02	8.91000e+02	2.87928e+00	2.35500e+02
893	2.38231e+02	8.93000e+02	2.87845e+00	2.36500e+02
895	2.39272e+02	8.95000e+02	2.87762e+00	2.37500e+02
897	2.40317e+02	8.97000e+02	2.87678e+00	2.38500e+02
899	2.41329e+02	8.99000e+02	2.87599e+00	2.39500e+02
901	2.42367e+02	9.01000e+02	2.87525e+00	2.40500e+02
903	2.43396e+02	9.03000e+02	2.87451e+00	2.41500e+02
905	2.44437e+02	9.05000e+02	2.87381e+00	2.42500e+02
907	2.45454e+02	9.07000e+02	2.87312e+00	2.43500e+02
909	2.46467e+02	9.09000e+02	2.87247e+00	2.44500e+02
911	2.47477e+02	9.11000e+02	2.87182e+00	2.45500e+02
913	2.48510e+02	9.13000e+02	2.87119e+00	2.46500e+02
915	2.49531e+02	9.15000e+02	2.87056e+00	2.47500e+02
917	2.50505e+02	9.17000e+02	2.86997e+00	2.48500e+02
919	2.51524e+02	9.19000e+02	2.86940e+00	2.49500e+02
921	2.52521e+02	9.21000e+02	2.86889e+00	2.50500e+02
923	2.53526e+02	9.23000e+02	2.86837e+00	2.51500e+02
925	2.54526e+02	9.25000e+02	2.86786e+00	2.52500e+02
927	2.55507e+02	9.27000e+02	2.86732e+00	2.53500e+02
929	2.56492e+02	9.29000e+02	2.86678e+00	2.54500e+02
931	2.57494e+02	9.31000e+02	2.86626e+00	2.55500e+02
933	2.58529e+02	9.33000e+02	2.86577e+00	2.56500e+02
935	2.59541e+02	9.35000e+02	2.86528e+00	2.57500e+02
937	2.60559e+02	9.37000e+02	2.86481e+00	2.58500e+02
939	2.61564e+02	9.39000e+02	2.86432e+00	2.59500e+02
941	2.62582e+02	9.41000e+02	2.86381e+00	2.60500e+02
943	2.63588e+02	9.43000e+02	2.86328e+00	2.61500e+02
945	2.64605e+02	9.45000e+02	2.86275e+00	2.62500e+02
947	2.65627e+02	9.47000e+02	2.86225e+00	2.63500e+02
949	2.66648e+02	9.49000e+02	2.86180e+00	2.64500e+02
951	2.67675e+02	9.51000e+02	2.86136e+00	2.65500e+02
953	2.68680e+02	9.53000e+02	2.86095e+00	2.66500e+02
955	2.69687e+02	9.55000e+02	2.86050e+00	2.67500e+02
957	2.70714e+02	9.57000e+02	2.85999e+00	2.68500e+02
959	2.71727e+02	9.59000e+02	2.85947e+00	2.69500e+02
961	2.72744e+02	9.61000e+02	2.85888e+00	2.70500e+02
963	2.73761e+02	9.63000e+02	2.85829e+00	2.71500e+02
965	2.74764e+02	9.65000e+02	2.85764e+00	2.72500e+02
967	2.75764e+02	9.67000e+02	2.85696e+00	2.73500e+02
969	2.76777e+02	9.69000e+02	2.85623e+00	2.74500e+02
971	2.77772e+02	9.71000e+02	2.85549e+00	2.75500e+02
973	2.78763e+02	9.73000e+02	2.85468e+00	2.76500e+02
975	2.79775e+02	9.75000e+02	2.85384e+00	2.77500e+02
977	2.80766e+02	9.77000e+02	2.85292e+00	2.78500e+02
979	2.81769e+02	9.79000e+02	2.85198e+00	2.79500e+02
981	2.82775e+02	9.81000e+02	2.85095e+00	2.80500e+02
983	2.83766e+02	9.83000e+02	2.84990e+00	2.81500e+02
985	2.84795e+02	9.85000e+02	2.84877e+00	2.82500e+02
987	2.85805e+02	9.87000e+02	2.84760e+00	2.83500e+02
989	2.86821e+02	9.89000e+02	2.84633e+00	2.84500e+02
991	2.87828e+02	9.91000e+02	2.84502e+00	2.85500e+02
993	2.88836e+02	9.93000e+02	2.84359e+00	2.86500e+02
995	2.89835e+02	9.95000e+02	2.84213e+00	2.87500e+02
997	2.90826e+02	9.97000e+02	2.84053e+00	2.88500e+02
999	2.91823e+02	9.99000e+02	2.83887e+00	2.89500e+02
1001	2.92826e+02	1.00100e+03	2.83699e+00	2.90500e+02
1003	2.93819e+02	1.00300e+03	2.83505e+00	2.91500e+02
1005	2.94808e+02	1.00500e+03	2.83287e+00	2.92500e+02
1007	2.95820e+02	1.00700e+03	2.83062e+00	2.93500e+02
1009	2.96821e+02	1.00900e+03	2.82812e+00	2.94500e+02
1011	2.97801e+02	1.01100e+03	2.82560e+00	2.95500e+02
1013	2.98781e+02	1.01300e+03	2.82287e+00	2.96500e+02
1015	2.99769e+02	1.01500e+03	2.82009e+00	2.97500e+02
1017	3.00761e+02	1.01700e+03	2.81712e+00	2.98500e+02
1019	3.01743e+02	1.01900e+03	2.81408e+00	2.99500e+02
1021	3.02737e+02	1.02100e+03	2.81082e+00	3.00500e+02
1023	3.03720e+02	1.02300e+03	2.80752e+00	3.01500e+02
1025	3.04709e+02	1.02500e+03	2.80400e+00	3.02500e+02
1027	3.05688e+02	1.02700e+03	2.80044e+00	3.03500e+02
1029	3.06694e+02	1.02900e+03	2.79666e+00	3.04500e+02
1031	3.07694e+02	1.03100e+03	2.79284e+00	3.05500e+02
1033	3.08700e+02	1.03300e+03	2.78884e+00	3.06500e+02
1035	3.09706e+02	1.03500e+03	2.78481e+00	3.07500e+02
1037	3.10692e+02	1.03700e+03	2.78063e+00	3.08500e+02
1039	3.11689e+02	1.03900e+03	2.77640e+00	3.09500e+02
1041	3.12673e+02	1.04100e+03	2.77198e+00	3.10500e+02
1043	3.13655e+02	1.04300e+03	2.76750e+00	3.11500e+02
1045	3.14630e+02	1.04500e+03	2.76281e+00	3.12500e+02
1047	3.15546e+02	1.04700e+03	2.75808e+00	3.13500e+02
1049	3.16487e+02	1.04900e+03	2.75316e+00	3.14500e+02
1051	3.17426e+02	1.05100e+03	2.74823e+00	3.15500e+02
1053	3.18405e+02	1.05300e+03	2.74319e+00	3.16500e+02
1055	3.19389e+02	1.05500e+03	2.73815e+00	3.17500e+02
1057	3.20382e+02	1.05700e+03	2.73308e+00	3.18500e+02
1059	3.21362e+02	1.05900e+03	2.72802e+00	3.19500e+02
1061	3.22351e+02	1.06100e+03	2.72299e+00	3.20500e+02
1063	3.23351e+02	1.06300e+03	2.71798e+00	3.21500e+02
1065	3.24341e+02	1.06500e+03	2.71300e+00	3.22500e+02
1067	3.25342e+02	1.06700e+03	2.70801e+00	3.23500e+02
1069	3.26348e+02	1.06900e+03	2.70296e+00	3.24500e+02
1071	3.27334e+02	1.07100e+03	2.69783e+00	3.25500e+02
1073	3.28342e+02	1.07300e+03	2.69251e+00	3.26500e+02
1075	3.29333e+02	1.07500e+03	2.68705e+00	3.27500e+02
1077	3.30339e+02	1.07700e+03	2.68126e+00	3.28500e+02
1079	3.31320e+02	1.07900e+03	2.67535e+00	3.29500e+02
1081	3.32332e+02	1.08100e+03	2.66897e+00	3.30500e+02
1083	3.33326e+02	1.08300e+03	2.66242e+00	3.31500e+02
1085	3.34323e+02	1.08500e+03	2.65527e+00	3.32500e+02
1087	3.35332e+02	1.08700e+03	2.64791e+00	3.33500e+02
1089	3.36317e+02	1.08900e+03	2.63984e+00	3.34500e+02
1091	3.37324e+02	1.09100e+03	2.63156e+00	3.35500e+02
1093	3.38306e+02	1.09300e+03	2.62246e+00	3.36500e+02
1095	3.39305e+02	1.09500e+03	2.61311e+00	3.37500e+02
1097	3.40290e+02	1.09700e+03	2.60277e+00	3.38500e+02
1099	3.41276e+02	1.09900e+03	2.59213e+00	3.39500e+02
1101	3.42281e+02	1.10100e+03	2.58039e+00	3.40500e+02
1103	3.43275e+02	1.10300e+03	2.56837e+00	3.41500e+02
1105	3.44280e+02	1.10500e+03	2.55515e+00	3.42500e+02
1107	3.45281e+02	1.10700e+03	2.54156e+00	3.43500e+02
1109	3.46268e+02	1.10900e+03	2.52664e+00	3.44500e+02
1111	3.47260e+02	1.11100e+03	2.51135e+00	3.45500e+02
1113	3.48244e+02	1.11300e+03	2.49465e+00	3.46500e+02
1115	3.49238e+02	1.11500e+03	2.47756e+00	3.47500e+02
1117	3.50216e+02	1.11700e+03	2.45898e+00	3.48500e+02
1119	3.51184e+02	1.11900e+03	2.43999e+00	3.49500e+02
1121	3.52174e+02	1.12100e+03	2.41936e+00	3.50500e+02
1123	3.53146e+02	1.12300e+03	2.39826e+00	3.51500e+02
1125	3.54117e+02	1.12500e+03	2.37544e+00	3.52500e+02
1127	3.55100e+02	1.12700e+03	2.35224e+00	3.53500e+02
1129	3.56082e+02	1.12900e+03	2.32735e+00	3.54500e+02
1131	3.57080e+02	1.13100e+03	2.30205e+00	3.55500e+02
1133	3.58066e+02	1.13300e+03	2.27498e+00	3.56500e+02
1135	3.59052e+02	1.13500e+03	2.24745e+00	3.57500e+02
1137	3.60037e+02	1.13700e+03	2.21810e+00	3.58500e+02
1139	3.61032e+02	1.13900e+03	2.18836e+00	3.59500e+02
1141	3.62024e+02	1.14100e+03	2.15688e+00	3.60500e+02
1143	3.63018e+02	1.14300e+03	2.12505e+00	3.61500e+02
1145	3.63997e+02	1.14500e+03	2.09161e+00	3.62500e+02
1147	3.64981e+02	1.14700e+03	2.05787e+00	3.63500e+02
1149	3.65954e+02	1.14900e+03	2.02259e+00	3.64500e+02
1151	3.66949e+02	1.15100e+03	1.98692e+00	3.65500e+02
1153	3.67903e+02	1.15300e+03	1.94970e+00	3.66500e+02
1155	3.69210e+02	1.15500e+03	1.91214e+00	3.67500e+02
1157	3.70278e+02	1.15700e+03	1.87307e+00	3.68500e+02
1159	3.71323e+02	1.15900e+03	1.83365e+00	3.69500e+02
1161	3.72291e+02	1.16100e+03	1.79276e+00	3.70500e+02
1163	3.73292e+02	1.16300e+03	1.75156e+00	3.71500e+02
1165	3.74277e+02	1.16500e+03	1.70903e+00	3.72500e+02
1167	3.75275e+02	1.16700e+03	1.66630e+00	3.73500e+02
1169	3.76364e+02	1.16900e+03	1.62255e+00	3.74500e+02
1171	3.77345e+02	1.17100e+03	1.57875e+00	3.75500e+02
1173	3.78301e+02	1.17300e+03	1.53429e+00	3.76500e+02
1175	3.79265e+02	1.17500e+03	1.48972e+00	3.77500e+02
1177	3.80271e+02	1.17700e+03	1.44468e+00	3.78500e+02
1179	3.81304e+02	1.17900e+03	1.39967e+00	3.79500e+02
1181	3.82358e+02	1.18100e+03	1.35427e+00	3.80500e+02
1183	3.83336e+02	1.18300e+03	1.30848e+00	3.81500e+02
1185	3.84372e+02	1.18500e+03	1.26159e+00	3.82500e+02
1187	3.85360e+02	1.18700e+03	1.21425e+00	3.83500e+02
1189	3.86375e+02	1.18900e+03	1.16587e+00	3.84500e+02
1191	3.87396e+02	1.19100e+03	1.11793e+00	3.85500e+02
1193	3.88437e+02	1.19300e+03	1.07020e+00	3.86500e+02
1195	3.89447e+02	1.19500e+03	1.02281e+00	3.87500e+02
1197	3.90482e+02	1.19700e+03	9.76169e-01	3.88500e+02
1199	3.91482e+02	1.19900e+03	9.29762e-01	3.89500e+02
1201	3.92483e+02	1.20100e+03	8.84169e-01	3.90500e+02
1203	3.93497e+02	1.20300e+03	8.38786e-01	3.91500e+02
1205	3.94502e+02	1.20500e+03	7.94361e-01	3.92500e+02
1207	3.95483e+02	1.20700e+03	7.50334e-01	3.93500e+02
1209	3.96480e+02	1.20900e+03	7.07666e-01	3.94500e+02
1211	3.97491e+02	1.21100e+03	6.65533e-01	3.95500e+02
1213	3.98502e+02	1.21300e+03	6.25295e-01	3.96500e+02
1215	3.99514e+02	1.21500e+03	5.85750e-01	3.97500e+02
1217	4.00507e+02	1.21700e+03	5.48550e-01	3.98500e+02
1219	4.01518e+02	1.21900e+03	5.11986e-01	3.99500e+02
1221	4.02504e+02	1.22100e+03	4.77948e-01	4.00500e+02
1223	4.03490e+02	1.22300e+03	4.44549e-01	4.01500e+02
1225	4.04523e+02	1.22500e+03	4.13751e-01	4.02500e+02
1227	4.05525e+02	1.22700e+03	3.83573e-01	4.03500e+02
1229	4.06531e+02	1.22900e+03	3.56016e-01	4.04500e+02
1231	4.07554e+02	1.23100e+03	3.29059e-01	4.05500e+02
1233	4.08585e+02	1.23300e+03	3.04676e-01	4.06500e+02
1235	4.09623e+02	1.23500e+03	2.80862e-01	4.07500e+02
1237	4.10691e+02	1.23700e+03	2.59499e-01	4.08500e+02
1239	4.11718e+02	1.23900e+03	2.38639e-01	4.09500e+02
1241	4.12786e+02	1.24100e+03	2.20096e-01	4.10500e+02
1243	4.13804e+02	1.24300e+03	2.02039e-01	4.11500e+02
1245	4.14797e+02	1.24500e+03	1.86127e-01	4.12500e+02
1247	4.15771e+02	1.24700e+03	1.70597e-01	4.13500e+02
1249	4.16781e+02	1.24900e+03	1.56958e-01	4.14500e+02
1251	4.17797e+02	1.25100e+03	1.43673e-01	4.15500e+02
1253	4.18798e+02	1.25300e+03	1.32087e-01	4.16500e+02
1255	4.19836e+02	1.25500e+03	1.20834e-01	4.17500e+02
1257	4.20897e+02	1.25700e+03	1.11136e-01	4.18500e+02
1259	4.21875e+02	1.25900e+03	1.01726e-01	4.19500e+02
1261	4.22876e+02	1.26100e+03	9.36967e-02	4.20500e+02
1263	4.23860e+02	1.26300e+03	8.58991e-02	4.21500e+02
1265	4.24854e+02	1.26500e+03	7.93048e-02	4.22500e+02
1267	4.25873e+02	1.26700e+03	7.29253e-02	4.23500e+02
1269	4.26874e+02	1.26900e+03	6.75861e-02	4.24500e+02
1271	4.27874e+02	1.27100e+03	6.24106e-02	4.25500e+02
1273	4.28875e+02	1.27300e+03	5.81167e-02	4.26500e+02
1275	4.29865e+02	1.27500e+03	5.39701e-02	4.27500e+02
1277	4.30861e+02	1.27700e+03	5.05667e-02	4.28500e+02
1279	4.31887e+02	1.27900e+03	4.72750e-02	4.29500e+02
1281	4.32854e+02	1.28100e+03	4.45942e-02	4.30500e+02
1283	4.33841e+02	1.28300e+03	4.20083e-02	4.31500e+02
1285	4.34822e+02	1.28500e+03	3.99378e-02	4.32500e+02
1287	4.35813e+02	1.28700e+03	3.79490e-02	4.33500e+02
1289	4.36803e+02	1.28900e+03	3.63562e-02	4.34500e+02
1291	4.37790e+02	1.29100e+03	3.47837e-02	4.35500e+02
1293	4.38744e+02	1.29300e+03	3.34804e-02	4.36500e+02
1295	4.39732e+02	1.29500e+03	3.22230e-02	4.37500e+02
1297	4.40690e+02	1.29700e+03	3.12042e-02	4.38500e+02
1299	4.41690e+02	1.29900e+03	3.02342e-02	4.39500e+02
1301	4.42666e+02	1.30100e+03	2.94702e-02	4.40500e+02
1303	4.43660e+02	1.30300e+03	2.87217e-02	4.41500e+02
1305	4.44656e+02	1.30500e+03	2.81218e-02	4.42500e+02
1307	4.45634e+02	1.30700e+03	2.75436e-02	4.43500e+02
1309	4.46614e+02	1.30900e+03	2.71001e-02	4.44500e+02
1311	4.47605e+02	1.31100e+03	2.66706e-02	4.45500e+02
1313	4.48584e+02	1.31300e+03	2.63431e-02	4.46500e+02
1315	4.49584e+02	1.31500e+03	2.60168e-02	4.47500e+02
1317	4.50568e+02	1.31700e+03	2.57659e-02	4.48500e+02
1319	4.51548e+02	1.31900e+03	2.55323e-02	4.49500e+02
1321	4.52512e+02	1.32100e+03	2.53625e-02	4.50500e+02
1323	4.53494e+02	1.32300e+03	2.52009e-02	4.51500e+02
1325	4.54449e+02	1.32500e+03	2.50808e-02	4.52500e+02
1327	4.55394e+02	1.32700e+03	2.49641e-02	4.53500e+02
1329	4.56357e+02	1.32900e+03	2.48723e-02	4.54500e+02
1331	4.57322e+02	1.33100e+03	2.47779e-02	4.55500e+02
1333	4.58277e+02	1.33300e+03	2.46922e-02	4.56500e+02
1335	4.59250e+02	1.33500e+03	2.46090e-02	4.57500e+02
1337	4.60197e+02	1.33700e+03	2.45379e-02	4.58500e+02
1339	4.61140e+02	1.33900e+03	2.44756e-02	4.59500e+02
1341	4.62073e+02	1.34100e+03	2.44368e-02	4.60500e+02
1343	4.63027e+02	1.34300e+03	2.43979e-02	4.61500e+02
1345	4.63961e+02	1.34500e+03	2.43619e-02	4.62500e+02
1347	4.64913e+02	1.34700e+03	2.43212e-02	4.63500e+02
1349	4.65851e+02	1.34900e+03	2.42950e-02	4.64500e+02
1351	4.66798e+02	1.35100e+03	2.42831e-02	4.65500e+02
1353	4.67751e+02	1.35300e+03	2.42859e-02	4.66500e+02
1355	4.68703e+02	1.35500e+03	2.42610e-02	4.67500e+02
1357	4.69662e+02	1.35700e+03	2.42062e-02	4.68500e+02
1359	4.70632e+02	1.35900e+03	2.41553e-02	4.69500e+02
1361	4.71615e+02	1.36100e+03	2.41073e-02	4.70500e+02
1363	4.72578e+02	1.36300e+03	2.40797e-02	4.71500e+02
1365	4.73553e+02	1.36500e+03	2.40696e-02	4.72500e+02
1367	4.74523e+02	1.36700e+03	2.40419e-02	4.73500e+02
1369	4.75487e+02	1.36900e+03	2.39949e-02	4.74500e+02
1371	4.76474e+02	1.37100e+03	2.39513e-02	4.75500e+02
1373	4.77443e+02	1.37300e+03	2.39087e-02	4.76500e+02
1375	4.78427e+02	1.37500e+03	2.38825e-02	4.77500e+02
1377	4.79395e+02	1.37700e+03	2.38804e-02	4.78500e+02
1379	4.80375e+02	1.37900e+03	2.38823e-02	4.79500e+02
1381	4.81339e+02	1.38100e+03	2.38986e-02	4.80500e+02
1383	4.82305e+02	1.38300e+03	2.39123e-02	4.81500e+02
1385	4.83285e+02	1.38500e+03	2.39205e-02	4.82500e+02
1387	4.84263e+02	1.38700e+03	2.39089e-02	4.83500e+02
1389	4.85233e+02	1.38900e+03	2.38636e-02	4.84500e+02
1391	4.86217e+02	1.39100e+03	2.38203e-02	4.85500e+02
1393	4.87187e+02	1.39300e+03	2.37829e-02	4.86500e+02
1395	4.88164e+02	1.39500e+03	2.37719e-02	4.87500e+02
1397	4.89133e+02	1.39700e+03	2.37890e-02	4.88500e+02
1399	4.90109e+02	1.39900e+03	2.37834e-02	4.89500e+02
1401	4.91082e+02	1.40100e+03	2.37504e-02	4.90500e+02
1403	4.92064e+02	1.40300e+03	2.36971e-02	4.91500e+02
1405	4.93048e+02	1.40500e+03	2.35952e-02	4.92500e+02
1407	4.94029e+02	1.40700e+03	2.35057e-02	4.93500e+02
1409	4.95010e+02	1.40900e+03	2.34363e-02	4.94500e+02
1411	4.95984e+02	1.41100e+03	2.33982e-02	4.95500e+02
1413	4.96958e+02	1.41300e+03	2.34090e-02	4.96500e+02
1415	4.97937e+02	1.41500e+03	2.33937e-02	4.97500e+02
1417	4.98918e+02	1.41700e+03	2.33628e-02	4.98500e+02
1419	4.99891e+02	1.41900e+03	2.33227e-02	4.99500e+02
1421	5.00869e+02	1.42100e+03	2.32661e-02	5.00500e+02
1423	5.01853e+02	1.42300e+03	2.32171e-02	5.01500e+02
1425	5.02843e+02	1.42500e+03	2.31673e-02	5.02500e+02
1427	5.03814e+02	1.42700e+03	2.31258e-02	5.03500e+02
1429	5.04793e+02	1.42900e+03	2.31087e-02	5.04500e+02
1431	5.05782e+02	1.43100e+03	2.31108e-02	5.05500e+02
1433	5.06760e+02	1.43300e+03	2.31411e-02	5.06500e+02
1435	5.07742e+02	1.43500e+03	2.31467e-02	5.07500e+02
1437	5.08738e+02	1.43700e+03	2.31046e-02	5.08500e+02
1439	5.09710e+02	1.43900e+03	2.30426e-02	5.09500e+02
1441	5.10690e+02	1.44100e+03	2.29356e-02	5.10500e+02
1443	5.11691e+02	1.44300e+03	2.28615e-02	5.11500e+02
1445	5.12664e+02	1.44500e+03	2.28040e-02	5.12500e+02
1447	5.13651e+02	1.44700e+03	2.27401e-02	5.13500e+02
1449	5.14628e+02	1.44900e+03	2.26609e-02	5.14500e+02
1451	5.15600e+02	1.45100e+03	2.25805e-02	5.15500e+02
1453	5.16574e+02	1.45300e+03	2.25577e-02	5.16500e+02
1455	5.17556e+02	1.45500e+03	2.26091e-02	5.17500e+02
1457	5.18541e+02	1.45700e+03	2.27963e-02	5.18500e+02
1459	5.19527e+02	1.45900e+03	2.29493e-02	5.19500e+02
1461	5.20507e+02	1.46100e+03	2.30706e-02	5.20500e+02
1463	5.21482e+02	1.46300e+03	2.31197e-02	5.21500e+02
1465	5.22454e+02	1.46500e+03	2.30527e-02	5.22500e+02
1467	5.23449e+02	1.46700e+03	2.30023e-02	5.23500e+02
1469	5.24430e+02	1.46900e+03	2.29216e-02	5.24500e+02
1471	5.25404e+02	1.47100e+03	2.28630e-02	5.25500e+02
1473	5.26379e+02	1.47300e+03	2.28126e-02	5.26500e+02
1475	5.27369e+02	1.47500e+03	2.27600e-02	5.27500e+02
1477	5.28361e+02	1.47700e+03	2.27192e-02	5.28500e+02
1479	5.29327e+02	1.47900e+03	2.26874e-02	5.29500e+02
1481	5.30323e+02	1.48100e+03	2.26670e-02	5.30500e+02
1483	5.31299e+02	1.48300e+03	2.26350e-02	5.31500e+02
1485	5.32274e+02	1.48500e+03	2.25889e-02	5.32500e+02
1487	5.33268e+02	1.48700e+03	2.25431e-02	5.33500e+02
1489	5.34235e+02	1.48900e+03	2.25036e-02	5.34500e+02
1491	5.35221e+02	1.49100e+03	2.24836e-02	5.35500e+02
1493	5.36199e+02	1.49300e+03	2.24902e-02	5.36500e+02
1495	5.37188e+02	1.49500e+03	2.24850e-02	5.37500e+02
1497	5.38167e+02	1.49700e+03	2.24700e-02	5.38500e+02
1499	5.39150e+02	1.49900e+03	2.24391e-02	5.39500e+02
1501	5.40123e+02	1.50100e+03	2.23923e-02	5.40500e+02
1503	5.41107e+02	1.50300e+03	2.23530e-02	5.41500e+02
1505	5.42085e+02	1.50500e+03	2.23235e-02	5.42500e+02
1507	5.43065e+02	1.50700e+03	2.23065e-02	5.43500e+02
1509	5.44050e+02	1.50900e+03	2.23119e-02	5.44500e+02
1511	5.45023e+02	1.51100e+03	2.23201e-02	5.45500e+02
1513	5.46011e+02	1.51300e+03	2.23487e-02	5.46500e+02
1515	5.46981e+02	1.51500e+03	2.23807e-02	5.47500e+02
1517	5.47971e+02	1.51700e+03	2.24141e-02	5.48500e+02
1519	5.48953e+02	1.51900e+03	2.24259e-02	5.49500e+02
1521	5.49946e+02	1.52100e+03	2.24004e-02	5.50500e+02
1523	5.50942e+02	1.52300e+03	2.23683e-02	5.51500e+02
1525	5.51919e+02	1.52500e+03	2.23089e-02	5.52500e+02
1527	5.52891e+02	1.52700e+03	2.22576e-02	5.53500e+02
1529	5.53876e+02	1.52900e+03	2.21766e-02	5.54500e+02
1531	5.54851e+02	1.53100e+03	2.20785e-02	5.55500e+02
1533	5.55838e+02	1.53300e+03	2.19683e-02	5.56500e+02
1535	5.56807e+02	1.53500e+03	2.19138e-02	5.57500e+02
1537	5.57787e+02	1.53700e+03	2.19655e-02	5.58500e+02
1539	5.58773e+02	1.53900e+03	2.20356e-02	5.59500e+02
1541	5.59744e+02	1.54100e+03	2.21499e-02	5.60500e+02
1543	5.60726e+02	1.54300e+03	2.22008e-02	5.61500e+02
1545	5.61706e+02	1.54500e+03	2.21750e-02	5.62500e+02
1547	5.62696e+02	1.54700e+03	2.21468e-02	5.63500e+02
1549	5.63678e+02	1.54900e+03	2.20850e-02	5.64500e+02
1551	5.64657e+02	1.55100e+03	2.20348e-02	5.65500e+02
1553	5.65642e+02	1.55300e+03	2.19999e-02	5.66500e+02
1555	5.66629e+02	1.55500e+03	2.19787e-02	5.67500e+02
1557	5.67627e+02	1.55700e+03	2.19878e-02	5.68500e+02
1559	5.68611e+02	1.55900e+03	2.19918e-02	5.69500e+02
1561	5.69594e+02	1.56100e+03	2.19863e-02	5.70500e+02
1563	5.70580e+02	1.56300e+03	2.19560e-02	5.71500e+02
1565	5.71562e+02	1.56500e+03	2.19028e-02	5.72500e+02
1567	5.72555e+02	1.56700e+03	2.18667e-02	5.73500e+02
1569	5.73537e+02	1.56900e+03	2.18385e-02	5.74500e+02
1571	5.74523e+02	1.57100e+03	2.18116e-02	5.75500e+02
1573	5.75511e+02	1.57300e+03	2.17970e-02	5.76500e+02
1575	5.76505e+02	1.57500e+03	2.17945e-02	5.77500e+02
1577	5.77480e+02	1.57700e+03	2.18047e-02	5.78500e+02
1579	5.78488e+02	1.57900e+03	2.18056e-02	5.79500e+02
1581	5.79470e+02	1.58100e+03	2.17942e-02	5.80500e+02
1583	5.80449e+02	1.58300e+03	2.17776e-02	5.81500e+02
1585	5.81438e+02	1.58500e+03	2.17566e-02	5.82500e+02
1587	5.82429e+02	1.58700e+03	2.17436e-02	5.83500e+02
1589	5.83416e+02	1.58900e+03	2.17345e-02	5.84500e+02
1591	5.84409e+02	1.59100e+03	2.17115e-02	5.85500e+02
1593	5.85398e+02	1.59300e+03	2.16847e-02	5.86500e+02
1595	5.86388e+02	1.59500e+03	2.16671e-02	5.87500e+02
1597	5.87381e+02	1.59700e+03	2.16679e-02	5.88500e+02
1599	5.88364e+02	1.59900e+03	2.16801e-02	5.89500e+02
1601	5.89353e+02	1.60100e+03	2.17075e-02	5.90500e+02
1603	5.90335e+02	1.60300e+03	2.17129e-02	5.91500e+02
1605	5.91334e+02	1.60500e+03	2.16802e-02	5.92500e+02
1607	5.92325e+02	1.60700e+03	2.16275e-02	5.93500e+02
1609	5.93310e+02	1.60900e+03	2.15492e-02	5.94500e+02
1611	5.94303e+02	1.61100e+03	2.14990e-02	5.95500e+02
1613	5.95291e+02	1.61300e+03	2.14803e-02	5.96500e+02
1615	5.96284e+02	1.61500e+03	2.14656e-02	5.97500e+02
1617	5.97264e+02	1.61700e+03	2.14665e-02	5.98500e+02
1619	5.98254e+02	1.61900e+03	2.14472e-02	5.99500e+02
1621	5.99238e+02	1.62100e+03	2.14011e-02	6.00500e+02
1623	6.00228e+02	1.62300e+03	2.13474e-02	6.01500e+02
1625	6.01216e+02	1.62500e+03	2.12852e-02	6.02500e+02
1627	6.02207e+02	1.62700e+03	2.12492e-02	6.03500e+02
1629	6.03196e+02	1.62900e+03	2.12522e-02	6.04500e+02
1631	6.04177e+02	1.63100e+03	2.12577e-02	6.05500e+02
1633	6.05169e+02	1.63300e+03	2.12739e-02	6.06500e+02
1635	6.06146e+02	1.63500e+03	2.12724e-02	6.07500e+02
1637	6.07158e+02	1.63700e+03	2.12543e-02	6.08500e+02
1639	6.08136e+02	1.63900e+03	2.12468e-02	6.09500e+02
1641	6.09115e+02	1.64100e+03	2.12489e-02	6.10500e+02
1643	6.10128e+02	1.64300e+03	2.12588e-02	6.11500e+02
1645	6.11108e+02	1.64500e+03	2.12799e-02	6.12500e+02
1647	6.12098e+02	1.64700e+03	2.12988e-02	6.13500e+02
1649	6.13087e+02	1.64900e+03	2.13245e-02	6.14500e+02
1651	6.14067e+02	1.65100e+03	2.13565e-02	6.15500e+02
1653	6.15051e+02	1.65300e+03	2.13969e-02	6.16500e+02
1655	6.16052e+02	1.65500e+03	2.14261e-02	6.17500e+02
1657	6.17054e+02	1.65700e+03	2.14364e-02	6.18500e+02
1659	6.18043e+02	1.65900e+03	2.14303e-02	6.19500e+02
1661	6.19103e+02	1.66100e+03	2.13897e-02	6.20500e+02
1663	6.20190e+02	1.66300e+03	2.13569e-02	6.21500e+02
1665	6.21680e+02	1.66500e+03	2.13333e-02	6.22500e+02
1667	6.22614e+02	1.66700e+03	2.13323e-02	6.23500e+02
1669	6.23588e+02	1.66900e+03	2.13616e-02	6.24500e+02
1671	6.24535e+02	1.67100e+03	2.13815e-02	6.25500e+02
1673	6.25502e+02	1.67300e+03	2.13932e-02	6.26500e+02
1675	6.26491e+02	1.67500e+03	2.13839e-02	6.27500e+02
1677	6.27487e+02	1.67700e+03	2.13323e-02	6.28500e+02
1679	6.28476e+02	1.67900e+03	2.12715e-02	6.29500e+02
1681	6.29470e+02	1.68100e+03	2.11694e-02	6.30500e+02
1683	6.30458e+02	1.68300e+03	2.10845e-02	6.31500e+02
1685	6.31454e+02	1.68500e+03	2.10267e-02	6.32500e+02
1687	6.32438e+02	1.68700e+03	2.10040e-02	6.33500e+02
1689	6.33411e+02	1.68900e+03	2.10362e-02	6.34500e+02
1691	6.34403e+02	1.69100e+03	2.10537e-02	6.35500e+02
1693	6.35397e+02	1.69300e+03	2.10866e-02	6.36500e+02
1695	6.36385e+02	1.69500e+03	2.11159e-02	6.37500e+02
1697	6.37381e+02	1.69700e+03	2.11529e-02	6.38500e+02
1699	6.38363e+02	1.69900e+03	2.11853e-02	6.39500e+02
1701	6.39358e+02	1.70100e+03	2.12104e-02	6.40500e+02
1703	6.40349e+02	1.70300e+03	2.12299e-02	6.41500e+02
1705	6.41344e+02	1.70500e+03	2.12403e-02	6.42500e+02
1707	6.42328e+02	1.70700e+03	2.12506e-02	6.43500e+02
1709	6.43331e+02	1.70900e+03	2.12332e-02	6.44500e+02
1711	6.44327e+02	1.71100e+03	2.11932e-02	6.45500e+02
1713	6.45318e+02	1.71300e+03	2.11211e-02	6.46500e+02
1715	6.46309e+02	1.71500e+03	2.10691e-02	6.47500e+02
1717	6.47307e+02	1.71700e+03	2.10159e-02	6.48500e+02
1719	6.48305e+02	1.71900e+03	2.09435e-02	6.49500e+02
1721	6.49290e+02	1.72100e+03	2.08397e-02	6.50500e+02
1723	6.50288e+02	1.72300e+03	2.07498e-02	6.51500e+02
1725	6.51283e+02	1.72500e+03	2.07263e-02	6.52500e+02
1727	6.52276e+02	1.72700e+03	2.07737e-02	6.53500e+02
1729	6.53267e+02	1.72900e+03	2.09588e-02	6.54500e+02
1731	6.54249e+02	1.73100e+03	2.11180e-02	6.55500e+02
1733	6.55242e+02	1.73300e+03	2.12782e-02	6.56500e+02
1735	6.56222e+02	1.73500e+03	2.13927e-02	6.57500e+02
1737	6.57212e+02	1.73700e+03	2.14167e-02	6.58500e+02
1739	6.58197e+02	1.73900e+03	2.14233e-02	6.59500e+02
1741	6.59188e+02	1.74100e+03	2.13441e-02	6.60500e+02
1743	6.60183e+02	1.74300e+03	2.12618e-02	6.61500e+02
1745	6.61167e+02	1.74500e+03	2.11504e-02	6.62500e+02
1747	6.62158e+02	1.74700e+03	2.10646e-02	6.63500e+02
1749	6.63143e+02	1.74900e+03	2.10168e-02	6.64500e+02
1751	6.64129e+02	1.75100e+03	2.09871e-02	6.65500e+02
1753	6.65116e+02	1.75300e+03	2.10114e-02	6.66500e+02
1755	6.66107e+02	1.75500e+03	2.10303e-02	6.67500e+02
1757	6.67098e+02	1.75700e+03	2.10543e-02	6.68500e+02
1759	6.68078e+02	1.75900e+03	2.10650e-02	6.69500e+02
1761	6.69061e+02	1.76100e+03	2.10525e-02	6.70500e+02
1763	6.70067e+02	1.76300e+03	2.10591e-02	6.71500e+02
1765	6.71053e+02	1.76500e+03	2.10774e-02	6.72500e+02
1767	6.72047e+02	1.76700e+03	2.10986e-02	6.73500e+02
1769	6.73041e+02	1.76900e+03	2.11275e-02	6.74500e+02
1771	6.74028e+02	1.77100e+03	2.11291e-02	6.75500e+02
1773	6.75022e+02	1.77300e+03	2.11011e-02	6.76500e+02
1775	6.76021e+02	1.77500e+03	2.10651e-02	6.77500e+02
1777	6.77011e+02	1.77700e+03	2.09965e-02	6.78500e+02
1779	6.77992e+02	1.77900e+03	2.09388e-02	6.79500e+02
1781	6.78991e+02	1.78100e+03	2.08818e-02	6.80500e+02
1783	6.79985e+02	1.78300e+03	2.08314e-02	6.81500e+02
1785	6.80972e+02	1.78500e+03	2.07529e-02	6.82500e+02
1787	6.81952e+02	1.78700e+03	2.06490e-02	6.83500e+02
1789	6.82950e+02	1.78900e+03	2.05367e-02	6.84500e+02
1791	6.83955e+02	1.79100e+03	2.04947e-02	6.85500e+02
1793	6.84942e+02	1.79300e+03	2.05950e-02	6.86500e+02
1795	6.85611e+02	1.79500e+03	2.07272e-02	6.87500e+02
1797	6.86080e+02	1.79700e+03	2.09576e-02	6.88500e+02
1799	6.86816e+02	1.79900e+03	2.11235e-02	6.89500e+02
1801	6.87522e+02	1.80100e+03	2.12278e-02	6.90500e+02
1803	6.88180e+02	1.80300e+03	2.12760e-02	6.91500e+02
1805	6.88801e+02	1.80500e+03	2.12127e-02	6.92500e+02
1807	6.89375e+02	1.80700e+03	2.11389e-02	6.93500e+02
1809	6.89917e+02	1.80900e+03	2.10053e-02	6.94500e+02
1811	6.90438e+02	1.81100e+03	2.09025e-02	6.95500e+02
1813	6.90912e+02	1.81300e+03	2.08261e-02	6.96500e+02
1815	6.91381e+02	1.81500e+03	2.07735e-02	6.97500e+02
1817	6.91816e+02	1.81700e+03	2.07805e-02	6.98500e+02
1819	6.92220e+02	1.81900e+03	2.08017e-02	6.99500e+02
1820	6.92420e+02	1.82000e+03	2.08418e-02	7.00000e+02