File: Experiments/TUBS/tga_nonisotherm/tga_dynamic_n2_dyn20_powder_2mg_r2.txt
index	ts	t	weight	tr
[#]	[°C]	[s]	[mg]	[°C]
723	1.31170e+02	7.23000e+02	2.02265e+00	1.31000e+02
725	1.31833e+02	7.25000e+02	2.02259e+00	1.31667e+02
727	1.32514e+02	7.27000e+02	2.02253e+00	1.32333e+02
729	1.33165e+02	7.29000e+02	2.02246e+00	1.33000e+02
731	1.33847e+02	7.31000e+02	2.02240e+00	1.33667e+02
733	1.34507e+02	7.33000e+02	2.02235e+00	1.34333e+02
735	1.35184e+02	7.35000e+02	2.02230e+00	1.35000e+02
737	1.35861e+02	7.37000e+02	2.02224e+00	1.35667e+02
739	1.36538e+02	7.39000e+02	2.02217e+00	1.36333e+02
741	1.37204e+02	7.41000e+02	2.02208e+00	1.37000e+02
743	1.37884e+02	7.43000e+02	2.02199e+00	1.37667e+02
745	1.38551e+02	7.45000e+02	2.02190e+00	1.38333e+02
747	1.39227e+02	7.47000e+02	2.02181e+00	1.39000e+02
749	1.39905e+02	7.49000e+02	2.02172e+00	1.39667e+02
751	1.40577e+02	7.51000e+02	2.02163e+00	1.40333e+02
753	1.41245e+02	7.53000e+02	2.02153e+00	1.41000e+02
755	1.41912e+02	7.55000e+02	2.02145e+00	1.41667e+02
757	1.42590e+02	7.57000e+02	2.02137e+00	1.42333e+02
759	1.43264e+02	7.59000e+02	2.02129e+00	1.43000e+02
761	1.43938e+02	7.61000e+02	2.02119e+00	1.43667e+02
763	1.44595e+02	7.63000e+02	2.02107e+00	1.44333e+02
765	1.45276e+02	7.65000e+02	2.02091e+00	1.45000e+02
767	1.45941e+02	7.67000e+02	2.02077e+00	1.45667e+02
769	1.46616e+02	7.69000e+02	2.02062e+00	1.46333e+02
771	1.47314e+02	7.71000e+02	2.02047e+00	1.47000e+02
773	1.47968e+02	7.73000e+02	2.02030e+00	1.47667e+02
775	1.48644e+02	7.75000e+02	2.02011e+00	1.48333e+02
777	1.49311e+02	7.77000e+02	2.01990e+00	1.49000e+02
779	1.49987e+02	7.79000e+02	2.01969e+00	1.49667e+02
781	1.50674e+02	7.81000e+02	2.01947e+00	1.50333e+02
783	1.51343e+02	7.83000e+02	2.01926e+00	1.51000e+02
785	1.52016e+02	7.85000e+02	2.01903e+00	1.51667e+02
787	1.52691e+02	7.87000e+02	2.01879e+00	1.52333e+02
789	1.53362e+02	7.89000e+02	2.01855e+00	1.53000e+02
791	1.54032e+02	7.91000e+02	2.01831e+00	1.53667e+02
793	1.54710e+02	7.93000e+02	2.01806e+00	1.54333e+02
795	1.55383e+02	7.95000e+02	2.01782e+00	1.55000e+02
797	1.56061e+02	7.97000e+02	2.01758e+00	1.55667e+02
799	1.56737e+02	7.99000e+02	2.01736e+00	1.56333e+02
801	1.57410e+02	8.01000e+02	2.01713e+00	1.57000e+02
803	1.58082e+02	8.03000e+02	2.01690e+00	1.57667e+02
805	1.58760e+02	8.05000e+02	2.01667e+00	1.58333e+02
807	1.59445e+02	8.07000e+02	2.01644e+00	1.59000e+02
809	1.60110e+02	8.09000e+02	2.01618e+00	1.59667e+02
811	1.60784e+02	8.11000e+02	2.01591e+00	1.60333e+02
813	1.61453e+02	8.13000e+02	2.01560e+00	1.61000e+02
815	1.62119e+02	8.15000e+02	2.01530e+00	1.61667e+02
817	1.62805e+02	8.17000e+02	2.01498e+00	1.62333e+02
819	1.63476e+02	8.19000e+02	2.01465e+00	1.63000e+02
821	1.64167e+02	8.21000e+02	2.01430e+00	1.63667e+02
823	1.64829e+02	8.23000e+02	2.01396e+00	1.64333e+02
825	1.65522e+02	8.25000e+02	2.01363e+00	1.65000e+02
827	1.66189e+02	8.27000e+02	2.01331e+00	1.65667e+02
829	1.66857e+02	8.29000e+02	2.01299e+00	1.66333e+02
831	1.67544e+02	8.31000e+02	2.01265e+00	1.67000e+02
833	1.68218e+02	8.33000e+02	2.01230e+00	1.67667e+02
835	1.68895e+02	8.35000e+02	2.01193e+00	1.68333e+02
837	1.69573e+02	8.37000e+02	2.01151e+00	1.69000e+02
839	1.70252e+02	8.39000e+02	2.01106e+00	1.69667e+02
841	1.70913e+02	8.41000e+02	2.01055e+00	1.70333e+02
843	1.71606e+02	8.43000e+02	2.01004e+00	1.71000e+02
845	1.72279e+02	8.45000e+02	2.00948e+00	1.71667e+02
847	1.72952e+02	8.47000e+02	2.00892e+00	1.72333e+02
849	1.73632e+02	8.49000e+02	2.00829e+00	1.73000e+02
851	1.74299e+02	8.51000e+02	2.00764e+00	1.73667e+02
853	1.74980e+02	8.53000e+02	2.00693e+00	1.74333e+02
855	1.75650e+02	8.55000e+02	2.00621e+00	1.75000e+02
857	1.76338e+02	8.57000e+02	2.00542e+00	1.75667e+02
859	1.77015e+02	8.59000e+02	2.00463e+00	1.76333e+02
861	1.77682e+02	8.61000e+02	2.00376e+00	1.77000e+02
863	1.78360e+02	8.63000e+02	2.00287e+00	1.77667e+02
865	1.79037e+02	8.65000e+02	2.00187e+00	1.78333e+02
867	1.79729e+02	8.67000e+02	2.00084e+00	1.79000e+02
869	1.80385e+02	8.69000e+02	1.99969e+00	1.79667e+02
871	1.81069e+02	8.71000e+02	1.99854e+00	1.80333e+02
873	1.81740e+02	8.73000e+02	1.99731e+00	1.81000e+02
875	1.82438e+02	8.75000e+02	1.99608e+00	1.81667e+02
877	1.83104e+02	8.77000e+02	1.99477e+00	1.82333e+02
879	1.83784e+02	8.79000e+02	1.99343e+00	1.83000e+02
881	1.84442e+02	8.81000e+02	1.99201e+00	1.83667e+02
883	1.85137e+02	8.83000e+02	1.99059e+00	1.84333e+02
885	1.85812e+02	8.85000e+02	1.98913e+00	1.85000e+02
887	1.86492e+02	8.87000e+02	1.98770e+00	1.85667e+02
889	1.87166e+02	8.89000e+02	1.98624e+00	1.86333e+02
891	1.87836e+02	8.91000e+02	1.98475e+00	1.87000e+02
893	1.88522e+02	8.93000e+02	1.98320e+00	1.87667e+02
895	1.89199e+02	8.95000e+02	1.98165e+00	1.88333e+02
897	1.89867e+02	8.97000e+02	1.98009e+00	1.89000e+02
899	1.90551e+02	8.99000e+02	1.97854e+00	1.89667e+02
901	1.91241e+02	9.01000e+02	1.97701e+00	1.90333e+02
903	1.91906e+02	9.03000e+02	1.97549e+00	1.91000e+02
905	1.92584e+02	9.05000e+02	1.97397e+00	1.91667e+02
907	1.93251e+02	9.07000e+02	1.97245e+00	1.92333e+02
909	1.93931e+02	9.09000e+02	1.97094e+00	1.93000e+02
911	1.94608e+02	9.11000e+02	1.96945e+00	1.93667e+02
913	1.95278e+02	9.13000e+02	1.96801e+00	1.94333e+02
915	1.95973e+02	9.15000e+02	1.96659e+00	1.95000e+02
917	1.96631e+02	9.17000e+02	1.96524e+00	1.95667e+02
919	1.97322e+02	9.19000e+02	1.96393e+00	1.96333e+02
921	1.97988e+02	9.21000e+02	1.96271e+00	1.97000e+02
923	1.98671e+02	9.23000e+02	1.96149e+00	1.97667e+02
925	1.99338e+02	9.25000e+02	1.96036e+00	1.98333e+02
927	2.00007e+02	9.27000e+02	1.95924e+00	1.99000e+02
929	2.00677e+02	9.29000e+02	1.95821e+00	1.99667e+02
931	2.01356e+02	9.31000e+02	1.95722e+00	2.00333e+02
933	2.02024e+02	9.33000e+02	1.95633e+00	2.01000e+02
935	2.02689e+02	9.35000e+02	1.95545e+00	2.01667e+02
937	2.03362e+02	9.37000e+02	1.95465e+00	2.02333e+02
939	2.04036e+02	9.39000e+02	1.95388e+00	2.03000e+02
941	2.04708e+02	9.41000e+02	1.95318e+00	2.03667e+02
943	2.05384e+02	9.43000e+02	1.95250e+00	2.04333e+02
945	2.06066e+02	9.45000e+02	1.95190e+00	2.05000e+02
947	2.06730e+02	9.47000e+02	1.95131e+00	2.05667e+02
949	2.07410e+02	9.49000e+02	1.95080e+00	2.06333e+02
951	2.08072e+02	9.51000e+02	1.95030e+00	2.07000e+02
953	2.08759e+02	9.53000e+02	1.94988e+00	2.07667e+02
955	2.09436e+02	9.55000e+02	1.94945e+00	2.08333e+02
957	2.10114e+02	9.57000e+02	1.94906e+00	2.09000e+02
959	2.10776e+02	9.59000e+02	1.94868e+00	2.09667e+02
961	2.11457e+02	9.61000e+02	1.94829e+00	2.10333e+02
963	2.12133e+02	9.63000e+02	1.94791e+00	2.11000e+02
965	2.12811e+02	9.65000e+02	1.94754e+00	2.11667e+02
967	2.13484e+02	9.67000e+02	1.94718e+00	2.12333e+02
969	2.14153e+02	9.69000e+02	1.94684e+00	2.13000e+02
971	2.14833e+02	9.71000e+02	1.94651e+00	2.13667e+02
973	2.15506e+02	9.73000e+02	1.94620e+00	2.14333e+02
975	2.16172e+02	9.75000e+02	1.94592e+00	2.15000e+02
977	2.16862e+02	9.77000e+02	1.94565e+00	2.15667e+02
979	2.17539e+02	9.79000e+02	1.94536e+00	2.16333e+02
981	2.18222e+02	9.81000e+02	1.94505e+00	2.17000e+02
983	2.18883e+02	9.83000e+02	1.94473e+00	2.17667e+02
985	2.19559e+02	9.85000e+02	1.94440e+00	2.18333e+02
987	2.20230e+02	9.87000e+02	1.94406e+00	2.19000e+02
989	2.20913e+02	9.89000e+02	1.94374e+00	2.19667e+02
991	2.21589e+02	9.91000e+02	1.94343e+00	2.20333e+02
993	2.22271e+02	9.93000e+02	1.94314e+00	2.21000e+02
995	2.22940e+02	9.95000e+02	1.94285e+00	2.21667e+02
997	2.23610e+02	9.97000e+02	1.94256e+00	2.22333e+02
999	2.24290e+02	9.99000e+02	1.94225e+00	2.23000e+02
1001	2.24969e+02	1.00100e+03	1.94191e+00	2.23667e+02
1003	2.25664e+02	1.00300e+03	1.94157e+00	2.24333e+02
1005	2.26325e+02	1.00500e+03	1.94121e+00	2.25000e+02
1007	2.27002e+02	1.00700e+03	1.94084e+00	2.25667e+02
1009	2.27677e+02	1.00900e+03	1.94047e+00	2.26333e+02
1011	2.28366e+02	1.01100e+03	1.94012e+00	2.27000e+02
1013	2.29041e+02	1.01300e+03	1.93977e+00	2.27667e+02
1015	2.29718e+02	1.01500e+03	1.93944e+00	2.28333e+02
1017	2.30398e+02	1.01700e+03	1.93911e+00	2.29000e+02
1019	2.31088e+02	1.01900e+03	1.93879e+00	2.29667e+02
1021	2.31759e+02	1.02100e+03	1.93847e+00	2.30333e+02
1023	2.32433e+02	1.02300e+03	1.93816e+00	2.31000e+02
1025	2.33102e+02	1.02500e+03	1.93786e+00	2.31667e+02
1027	2.33781e+02	1.02700e+03	1.93757e+00	2.32333e+02
1029	2.34476e+02	1.02900e+03	1.93729e+00	2.33000e+02
1031	2.35149e+02	1.03100e+03	1.93700e+00	2.33667e+02
1033	2.35811e+02	1.03300e+03	1.93670e+00	2.34333e+02
1035	2.36500e+02	1.03500e+03	1.93642e+00	2.35000e+02
1037	2.37180e+02	1.03700e+03	1.93616e+00	2.35667e+02
1039	2.37850e+02	1.03900e+03	1.93591e+00	2.36333e+02
1041	2.38529e+02	1.04100e+03	1.93569e+00	2.37000e+02
1043	2.39217e+02	1.04300e+03	1.93545e+00	2.37667e+02
1045	2.39885e+02	1.04500e+03	1.93520e+00	2.38333e+02
1047	2.40566e+02	1.04700e+03	1.93497e+00	2.39000e+02
1049	2.41246e+02	1.04900e+03	1.93477e+00	2.39667e+02
1051	2.41929e+02	1.05100e+03	1.93457e+00	2.40333e+02
1053	2.42609e+02	1.05300e+03	1.93439e+00	2.41000e+02
1055	2.43287e+02	1.05500e+03	1.93420e+00	2.41667e+02
1057	2.43996e+02	1.05700e+03	1.93401e+00	2.42333e+02
1059	2.44680e+02	1.05900e+03	1.93382e+00	2.43000e+02
1061	2.45384e+02	1.06100e+03	1.93362e+00	2.43667e+02
1063	2.46049e+02	1.06300e+03	1.93342e+00	2.44333e+02
1065	2.46745e+02	1.06500e+03	1.93321e+00	2.45000e+02
1067	2.47421e+02	1.06700e+03	1.93301e+00	2.45667e+02
1069	2.48111e+02	1.06900e+03	1.93281e+00	2.46333e+02
1071	2.48796e+02	1.07100e+03	1.93263e+00	2.47000e+02
1073	2.49480e+02	1.07300e+03	1.93249e+00	2.47667e+02
1075	2.50165e+02	1.07500e+03	1.93236e+00	2.48333e+02
1077	2.50857e+02	1.07700e+03	1.93223e+00	2.49000e+02
1079	2.51527e+02	1.07900e+03	1.93208e+00	2.49667e+02
1081	2.52208e+02	1.08100e+03	1.93189e+00	2.50333e+02
1083	2.52885e+02	1.08300e+03	1.93169e+00	2.51000e+02
1085	2.53568e+02	1.08500e+03	1.93146e+00	2.51667e+02
1087	2.54244e+02	1.08700e+03	1.93124e+00	2.52333e+02
1089	2.54922e+02	1.08900e+03	1.93106e+00	2.53000e+02
1091	2.55595e+02	1.09100e+03	1.93089e+00	2.53667e+02
1093	2.56281e+02	1.09300e+03	1.93076e+00	2.54333e+02
1095	2.56956e+02	1.09500e+03	1.93061e+00	2.55000e+02
1097	2.57639e+02	1.09700e+03	1.93047e+00	2.55667e+02
1099	2.58330e+02	1.09900e+03	1.93033e+00	2.56333e+02
1101	2.59024e+02	1.10100e+03	1.93017e+00	2.57000e+02
1103	2.59740e+02	1.10300e+03	1.93000e+00	2.57667e+02
1105	2.60453e+02	1.10500e+03	1.92979e+00	2.58333e+02
1107	2.61152e+02	1.10700e+03	1.92959e+00	2.59000e+02
1109	2.61843e+02	1.10900e+03	1.92937e+00	2.59667e+02
1111	2.62505e+02	1.11100e+03	1.92915e+00	2.60333e+02
1113	2.63180e+02	1.11300e+03	1.92895e+00	2.61000e+02
1115	2.63865e+02	1.11500e+03	1.92873e+00	2.61667e+02
1117	2.64518e+02	1.11700e+03	1.92850e+00	2.62333e+02
1119	2.65198e+02	1.11900e+03	1.92826e+00	2.63000e+02
1121	2.65869e+02	1.12100e+03	1.92803e+00	2.63667e+02
1123	2.66548e+02	1.12300e+03	1.92783e+00	2.64333e+02
1125	2.67214e+02	1.12500e+03	1.92767e+00	2.65000e+02
1127	2.67887e+02	1.12700e+03	1.92751e+00	2.65667e+02
1129	2.68574e+02	1.12900e+03	1.92733e+00	2.66333e+02
1131	2.69237e+02	1.13100e+03	1.92714e+00	2.67000e+02
1133	2.69907e+02	1.13300e+03	1.92688e+00	2.67667e+02
1135	2.70568e+02	1.13500e+03	1.92662e+00	2.68333e+02
1137	2.71227e+02	1.13700e+03	1.92632e+00	2.69000e+02
1139	2.71896e+02	1.13900e+03	1.92603e+00	2.69667e+02
1141	2.72554e+02	1.14100e+03	1.92576e+00	2.70333e+02
1143	2.73218e+02	1.14300e+03	1.92549e+00	2.71000e+02
1145	2.73894e+02	1.14500e+03	1.92522e+00	2.71667e+02
1147	2.74559e+02	1.14700e+03	1.92494e+00	2.72333e+02
1149	2.75236e+02	1.14900e+03	1.92463e+00	2.73000e+02
1151	2.75911e+02	1.15100e+03	1.92430e+00	2.73667e+02
1153	2.76581e+02	1.15300e+03	1.92391e+00	2.74333e+02
1155	2.77257e+02	1.15500e+03	1.92351e+00	2.75000e+02
1157	2.77936e+02	1.15700e+03	1.92305e+00	2.75667e+02
1159	2.78598e+02	1.15900e+03	1.92259e+00	2.76333e+02
1161	2.79256e+02	1.16100e+03	1.92209e+00	2.77000e+02
1163	2.79907e+02	1.16300e+03	1.92159e+00	2.77667e+02
1165	2.80561e+02	1.16500e+03	1.92107e+00	2.78333e+02
1167	2.81223e+02	1.16700e+03	1.92055e+00	2.79000e+02
1169	2.81881e+02	1.16900e+03	1.92002e+00	2.79667e+02
1171	2.82550e+02	1.17100e+03	1.91947e+00	2.80333e+02
1173	2.83204e+02	1.17300e+03	1.91889e+00	2.81000e+02
1175	2.83883e+02	1.17500e+03	1.91829e+00	2.81667e+02
1177	2.84551e+02	1.17700e+03	1.91762e+00	2.82333e+02
1179	2.85208e+02	1.17900e+03	1.91697e+00	2.83000e+02
1181	2.85876e+02	1.18100e+03	1.91627e+00	2.83667e+02
1183	2.86556e+02	1.18300e+03	1.91556e+00	2.84333e+02
1185	2.87230e+02	1.18500e+03	1.91480e+00	2.85000e+02
1187	2.87905e+02	1.18700e+03	1.91402e+00	2.85667e+02
1189	2.88581e+02	1.18900e+03	1.91318e+00	2.86333e+02
1191	2.89265e+02	1.19100e+03	1.91233e+00	2.87000e+02
1193	2.89938e+02	1.19300e+03	1.91144e+00	2.87667e+02
1195	2.90596e+02	1.19500e+03	1.91052e+00	2.88333e+02
1197	2.91281e+02	1.19700e+03	1.90955e+00	2.89000e+02
1199	2.91955e+02	1.19900e+03	1.90855e+00	2.89667e+02
1201	2.92620e+02	1.20100e+03	1.90749e+00	2.90333e+02
1203	2.93273e+02	1.20300e+03	1.90640e+00	2.91000e+02
1205	2.93951e+02	1.20500e+03	1.90524e+00	2.91667e+02
1207	2.94615e+02	1.20700e+03	1.90406e+00	2.92333e+02
1209	2.95273e+02	1.20900e+03	1.90280e+00	2.93000e+02
1211	2.95965e+02	1.21100e+03	1.90153e+00	2.93667e+02
1213	2.96635e+02	1.21300e+03	1.90019e+00	2.94333e+02
1215	2.97308e+02	1.21500e+03	1.89885e+00	2.95000e+02
1217	2.97987e+02	1.21700e+03	1.89745e+00	2.95667e+02
1219	2.98677e+02	1.21900e+03	1.89602e+00	2.96333e+02
1221	2.99361e+02	1.22100e+03	1.89451e+00	2.97000e+02
1223	3.00063e+02	1.22300e+03	1.89299e+00	2.97667e+02
1225	3.00740e+02	1.22500e+03	1.89139e+00	2.98333e+02
1227	3.01421e+02	1.22700e+03	1.88978e+00	2.99000e+02
1229	3.02111e+02	1.22900e+03	1.88809e+00	2.99667e+02
1231	3.02871e+02	1.23100e+03	1.88640e+00	3.00333e+02
1233	3.03593e+02	1.23300e+03	1.88464e+00	3.01000e+02
1235	3.04287e+02	1.23500e+03	1.88289e+00	3.01667e+02
1237	3.04973e+02	1.23700e+03	1.88108e+00	3.02333e+02
1239	3.05657e+02	1.23900e+03	1.87927e+00	3.03000e+02
1241	3.06389e+02	1.24100e+03	1.87741e+00	3.03667e+02
1243	3.07077e+02	1.24300e+03	1.87553e+00	3.04333e+02
1245	3.07765e+02	1.24500e+03	1.87361e+00	3.05000e+02
1247	3.08483e+02	1.24700e+03	1.87168e+00	3.05667e+02
1249	3.09189e+02	1.24900e+03	1.86974e+00	3.06333e+02
1251	3.09862e+02	1.25100e+03	1.86779e+00	3.07000e+02
1253	3.10532e+02	1.25300e+03	1.86584e+00	3.07667e+02
1255	3.11186e+02	1.25500e+03	1.86387e+00	3.08333e+02
1257	3.11853e+02	1.25700e+03	1.86187e+00	3.09000e+02
1259	3.12525e+02	1.25900e+03	1.85986e+00	3.09667e+02
1261	3.13199e+02	1.26100e+03	1.85781e+00	3.10333e+02
1263	3.13885e+02	1.26300e+03	1.85578e+00	3.11000e+02
1265	3.14558e+02	1.26500e+03	1.85375e+00	3.11667e+02
1267	3.15245e+02	1.26700e+03	1.85174e+00	3.12333e+02
1269	3.15915e+02	1.26900e+03	1.84973e+00	3.13000e+02
1271	3.16608e+02	1.27100e+03	1.84771e+00	3.13667e+02
1273	3.17287e+02	1.27300e+03	1.84567e+00	3.14333e+02
1275	3.17990e+02	1.27500e+03	1.84361e+00	3.15000e+02
1277	3.18673e+02	1.27700e+03	1.84152e+00	3.15667e+02
1279	3.19354e+02	1.27900e+03	1.83943e+00	3.16333e+02
1281	3.20037e+02	1.28100e+03	1.83732e+00	3.17000e+02
1283	3.20735e+02	1.28300e+03	1.83520e+00	3.17667e+02
1285	3.21437e+02	1.28500e+03	1.83306e+00	3.18333e+02
1287	3.22167e+02	1.28700e+03	1.83088e+00	3.19000e+02
1289	3.22853e+02	1.28900e+03	1.82864e+00	3.19667e+02
1291	3.23546e+02	1.29100e+03	1.82639e+00	3.20333e+02
1293	3.24307e+02	1.29300e+03	1.82407e+00	3.21000e+02
1295	3.24958e+02	1.29500e+03	1.82173e+00	3.21667e+02
1297	3.25621e+02	1.29700e+03	1.81930e+00	3.22333e+02
1299	3.26294e+02	1.29900e+03	1.81683e+00	3.23000e+02
1301	3.26971e+02	1.30100e+03	1.81424e+00	3.23667e+02
1303	3.27628e+02	1.30300e+03	1.81162e+00	3.24333e+02
1305	3.28295e+02	1.30500e+03	1.80885e+00	3.25000e+02
1307	3.28962e+02	1.30700e+03	1.80603e+00	3.25667e+02
1309	3.29641e+02	1.30900e+03	1.80304e+00	3.26333e+02
1311	3.30339e+02	1.31100e+03	1.79999e+00	3.27000e+02
1313	3.31019e+02	1.31300e+03	1.79675e+00	3.27667e+02
1315	3.31718e+02	1.31500e+03	1.79344e+00	3.28333e+02
1317	3.32399e+02	1.31700e+03	1.78991e+00	3.29000e+02
1319	3.33069e+02	1.31900e+03	1.78631e+00	3.29667e+02
1321	3.33753e+02	1.32100e+03	1.78243e+00	3.30333e+02
1323	3.34429e+02	1.32300e+03	1.77848e+00	3.31000e+02
1325	3.35131e+02	1.32500e+03	1.77427e+00	3.31667e+02
1327	3.35803e+02	1.32700e+03	1.76999e+00	3.32333e+02
1329	3.36484e+02	1.32900e+03	1.76544e+00	3.33000e+02
1331	3.37141e+02	1.33100e+03	1.76080e+00	3.33667e+02
1333	3.37820e+02	1.33300e+03	1.75583e+00	3.34333e+02
1335	3.38530e+02	1.33500e+03	1.75077e+00	3.35000e+02
1337	3.39206e+02	1.33700e+03	1.74535e+00	3.35667e+02
1339	3.39893e+02	1.33900e+03	1.73983e+00	3.36333e+02
1341	3.40583e+02	1.34100e+03	1.73392e+00	3.37000e+02
1343	3.41275e+02	1.34300e+03	1.72789e+00	3.37667e+02
1345	3.41956e+02	1.34500e+03	1.72144e+00	3.38333e+02
1347	3.42651e+02	1.34700e+03	1.71488e+00	3.39000e+02
1349	3.43343e+02	1.34900e+03	1.70785e+00	3.39667e+02
1351	3.44084e+02	1.35100e+03	1.70071e+00	3.40333e+02
1353	3.44718e+02	1.35300e+03	1.69307e+00	3.41000e+02
1355	3.45421e+02	1.35500e+03	1.68533e+00	3.41667e+02
1357	3.46090e+02	1.35700e+03	1.67709e+00	3.42333e+02
1359	3.46749e+02	1.35900e+03	1.66874e+00	3.43000e+02
1361	3.47428e+02	1.36100e+03	1.65988e+00	3.43667e+02
1363	3.48109e+02	1.36300e+03	1.65089e+00	3.44333e+02
1365	3.48780e+02	1.36500e+03	1.64134e+00	3.45000e+02
1367	3.49479e+02	1.36700e+03	1.63164e+00	3.45667e+02
1369	3.50140e+02	1.36900e+03	1.62135e+00	3.46333e+02
1371	3.50790e+02	1.37100e+03	1.61090e+00	3.47000e+02
1373	3.51447e+02	1.37300e+03	1.59984e+00	3.47667e+02
1375	3.52096e+02	1.37500e+03	1.58863e+00	3.48333e+02
1377	3.52768e+02	1.37700e+03	1.57681e+00	3.49000e+02
1379	3.53459e+02	1.37900e+03	1.56487e+00	3.49667e+02
1381	3.54118e+02	1.38100e+03	1.55233e+00	3.50333e+02
1383	3.54746e+02	1.38300e+03	1.53963e+00	3.51000e+02
1385	3.55412e+02	1.38500e+03	1.52630e+00	3.51667e+02
1387	3.56074e+02	1.38700e+03	1.51282e+00	3.52333e+02
1389	3.56731e+02	1.38900e+03	1.49869e+00	3.53000e+02
1391	3.57396e+02	1.39100e+03	1.48441e+00	3.53667e+02
1393	3.58057e+02	1.39300e+03	1.46950e+00	3.54333e+02
1395	3.58695e+02	1.39500e+03	1.45447e+00	3.55000e+02
1397	3.59355e+02	1.39700e+03	1.43883e+00	3.55667e+02
1399	3.60025e+02	1.39900e+03	1.42305e+00	3.56333e+02
1401	3.60694e+02	1.40100e+03	1.40670e+00	3.57000e+02
1403	3.61339e+02	1.40300e+03	1.39022e+00	3.57667e+02
1405	3.61988e+02	1.40500e+03	1.37319e+00	3.58333e+02
1407	3.62630e+02	1.40700e+03	1.35605e+00	3.59000e+02
1409	3.63277e+02	1.40900e+03	1.33838e+00	3.59667e+02
1411	3.63925e+02	1.41100e+03	1.32060e+00	3.60333e+02
1413	3.64612e+02	1.41300e+03	1.30230e+00	3.61000e+02
1415	3.65254e+02	1.41500e+03	1.28390e+00	3.61667e+02
1417	3.65914e+02	1.41700e+03	1.26498e+00	3.62333e+02
1419	3.66578e+02	1.41900e+03	1.24594e+00	3.63000e+02
1421	3.67267e+02	1.42100e+03	1.22641e+00	3.63667e+02
1423	3.67890e+02	1.42300e+03	1.20679e+00	3.64333e+02
1425	3.68564e+02	1.42500e+03	1.18670e+00	3.65000e+02
1427	3.69210e+02	1.42700e+03	1.16651e+00	3.65667e+02
1429	3.69886e+02	1.42900e+03	1.14586e+00	3.66333e+02
1431	3.70564e+02	1.43100e+03	1.12515e+00	3.67000e+02
1433	3.71227e+02	1.43300e+03	1.10410e+00	3.67667e+02
1435	3.71880e+02	1.43500e+03	1.08303e+00	3.68333e+02
1437	3.72538e+02	1.43700e+03	1.06178e+00	3.69000e+02
1439	3.73224e+02	1.43900e+03	1.04053e+00	3.69667e+02
1441	3.73906e+02	1.44100e+03	1.01910e+00	3.70333e+02
1443	3.74603e+02	1.44300e+03	9.97585e-01	3.71000e+02
1445	3.75291e+02	1.44500e+03	9.75901e-01	3.71667e+02
1447	3.75932e+02	1.44700e+03	9.54275e-01	3.72333e+02
1449	3.76603e+02	1.44900e+03	9.32579e-01	3.73000e+02
1451	3.77258e+02	1.45100e+03	9.10748e-01	3.73667e+02
1453	3.77933e+02	1.45300e+03	8.88567e-01	3.74333e+02
1455	3.78642e+02	1.45500e+03	8.66165e-01	3.75000e+02
1457	3.79321e+02	1.45700e+03	8.43242e-01	3.75667e+02
1459	3.79986e+02	1.45900e+03	8.20321e-01	3.76333e+02
1461	3.80664e+02	1.46100e+03	7.97203e-01	3.77000e+02
1463	3.81317e+02	1.46300e+03	7.74252e-01	3.77667e+02
1465	3.81991e+02	1.46500e+03	7.51501e-01	3.78333e+02
1467	3.82687e+02	1.46700e+03	7.28897e-01	3.79000e+02
1469	3.83355e+02	1.46900e+03	7.06635e-01	3.79667e+02
1471	3.84072e+02	1.47100e+03	6.84441e-01	3.80333e+02
1473	3.84732e+02	1.47300e+03	6.62590e-01	3.81000e+02
1475	3.85391e+02	1.47500e+03	6.40844e-01	3.81667e+02
1477	3.86066e+02	1.47700e+03	6.19495e-01	3.82333e+02
1479	3.86763e+02	1.47900e+03	5.98269e-01	3.83000e+02
1481	3.87485e+02	1.48100e+03	5.77527e-01	3.83667e+02
1483	3.88148e+02	1.48300e+03	5.56951e-01	3.84333e+02
1485	3.88825e+02	1.48500e+03	5.36929e-01	3.85000e+02
1487	3.89487e+02	1.48700e+03	5.17036e-01	3.85667e+02
1489	3.90161e+02	1.48900e+03	4.97746e-01	3.86333e+02
1491	3.90831e+02	1.49100e+03	4.78638e-01	3.87000e+02
1493	3.91521e+02	1.49300e+03	4.60201e-01	3.87667e+02
1495	3.92197e+02	1.49500e+03	4.41924e-01	3.88333e+02
1497	3.92879e+02	1.49700e+03	4.24340e-01	3.89000e+02
1499	3.93533e+02	1.49900e+03	4.06945e-01	3.89667e+02
1501	3.94226e+02	1.50100e+03	3.90282e-01	3.90333e+02
1503	3.94860e+02	1.50300e+03	3.73794e-01	3.91000e+02
1505	3.95544e+02	1.50500e+03	3.58049e-01	3.91667e+02
1507	3.96215e+02	1.50700e+03	3.42482e-01	3.92333e+02
1509	3.96891e+02	1.50900e+03	3.27678e-01	3.93000e+02
1511	3.97567e+02	1.51100e+03	3.13073e-01	3.93667e+02
1513	3.98244e+02	1.51300e+03	2.99245e-01	3.94333e+02
1515	3.98926e+02	1.51500e+03	2.85592e-01	3.95000e+02
1517	3.99631e+02	1.51700e+03	2.72712e-01	3.95667e+02
1519	4.00343e+02	1.51900e+03	2.60034e-01	3.96333e+02
1521	4.01045e+02	1.52100e+03	2.48148e-01	3.97000e+02
1523	4.01763e+02	1.52300e+03	2.36443e-01	3.97667e+02
1525	4.02450e+02	1.52500e+03	2.25510e-01	3.98333e+02
1527	4.03101e+02	1.52700e+03	2.14741e-01	3.99000e+02
1529	4.03760e+02	1.52900e+03	2.04702e-01	3.99667e+02
1531	4.04418e+02	1.53100e+03	1.94814e-01	4.00333e+02
1533	4.05093e+02	1.53300e+03	1.85617e-01	4.01000e+02
1535	4.05772e+02	1.53500e+03	1.76577e-01	4.01667e+02
1537	4.06504e+02	1.53700e+03	1.68207e-01	4.02333e+02
1539	4.07283e+02	1.53900e+03	1.59972e-01	4.03000e+02
1541	4.07997e+02	1.54100e+03	1.52369e-01	4.03667e+02
1543	4.08693e+02	1.54300e+03	1.44901e-01	4.04333e+02
1545	4.09402e+02	1.54500e+03	1.38029e-01	4.05000e+02
1547	4.10094e+02	1.54700e+03	1.31278e-01	4.05667e+02
1549	4.10785e+02	1.54900e+03	1.25082e-01	4.06333e+02
1551	4.11464e+02	1.55100e+03	1.18993e-01	4.07000e+02
1553	4.12112e+02	1.55300e+03	1.13412e-01	4.07667e+02
1555	4.12749e+02	1.55500e+03	1.07935e-01	4.08333e+02
1557	4.13341e+02	1.55700e+03	1.02941e-01	4.09000e+02
1559	4.14028e+02	1.55900e+03	9.80577e-02	4.09667e+02
1561	4.14689e+02	1.56100e+03	9.36484e-02	4.10333e+02
1563	4.15384e+02	1.56300e+03	8.93369e-02	4.11000e+02
1565	4.16039e+02	1.56500e+03	8.54692e-02	4.11667e+02
1567	4.16661e+02	1.56700e+03	8.16784e-02	4.12333e+02
1569	4.17287e+02	1.56900e+03	7.82776e-02	4.13000e+02
1571	4.17923e+02	1.57100e+03	7.49512e-02	4.13667e+02
1573	4.18544e+02	1.57300e+03	7.19730e-02	4.14333e+02
1575	4.19171e+02	1.57500e+03	6.90589e-02	4.15000e+02
1577	4.19814e+02	1.57700e+03	6.64543e-02	4.15667e+02
1579	4.20491e+02	1.57900e+03	6.39077e-02	4.16333e+02
1581	4.21159e+02	1.58100e+03	6.16306e-02	4.17000e+02
1583	4.21818e+02	1.58300e+03	5.93979e-02	4.17667e+02
1585	4.22528e+02	1.58500e+03	5.73962e-02	4.18333e+02
1587	4.23188e+02	1.58700e+03	5.54372e-02	4.19000e+02
1589	4.23826e+02	1.58900e+03	5.36898e-02	4.19667e+02
1591	4.24509e+02	1.59100e+03	5.19899e-02	4.20333e+02
1593	4.25185e+02	1.59300e+03	5.05003e-02	4.21000e+02
1595	4.25820e+02	1.59500e+03	4.90547e-02	4.21667e+02
1597	4.26452e+02	1.59700e+03	4.78034e-02	4.22333e+02
1599	4.27109e+02	1.59900e+03	4.65759e-02	4.23000e+02
1601	4.27884e+02	1.60100e+03	4.55049e-02	4.23667e+02
1603	4.28461e+02	1.60300e+03	4.44545e-02	4.24333e+02
1605	4.29167e+02	1.60500e+03	4.35293e-02	4.25000e+02
1607	4.29830e+02	1.60700e+03	4.26284e-02	4.25667e+02
1609	4.30682e+02	1.60900e+03	4.18411e-02	4.26333e+02
1611	4.31242e+02	1.61100e+03	4.10750e-02	4.27000e+02
1613	4.31946e+02	1.61300e+03	4.04074e-02	4.27667e+02
1615	4.32548e+02	1.61500e+03	3.97544e-02	4.28333e+02
1617	4.33165e+02	1.61700e+03	3.91856e-02	4.29000e+02
1619	4.33720e+02	1.61900e+03	3.86377e-02	4.29667e+02
1621	4.34347e+02	1.62100e+03	3.81676e-02	4.30333e+02
1623	4.34981e+02	1.62300e+03	3.77134e-02	4.31000e+02
1625	4.35631e+02	1.62500e+03	3.73326e-02	4.31667e+02
1627	4.36334e+02	1.62700e+03	3.69613e-02	4.32333e+02
1629	4.37000e+02	1.62900e+03	3.66331e-02	4.33000e+02
1631	4.37698e+02	1.63100e+03	3.63004e-02	4.33667e+02
1633	4.38319e+02	1.63300e+03	3.59879e-02	4.34333e+02
1635	4.38927e+02	1.63500e+03	3.56814e-02	4.35000e+02
1637	4.39507e+02	1.63700e+03	3.54050e-02	4.35667e+02
1639	4.40174e+02	1.63900e+03	3.51386e-02	4.36333e+02
1641	4.40837e+02	1.64100e+03	3.49195e-02	4.37000e+02
1643	4.41431e+02	1.64300e+03	3.47171e-02	4.37667e+02
1645	4.42043e+02	1.64500e+03	3.45655e-02	4.38333e+02
1647	4.42652e+02	1.64700e+03	3.44184e-02	4.39000e+02
1649	4.43277e+02	1.64900e+03	3.43044e-02	4.39667e+02
1651	4.43917e+02	1.65100e+03	3.41984e-02	4.40333e+02
1653	4.44537e+02	1.65300e+03	3.41261e-02	4.41000e+02
1655	4.45161e+02	1.65500e+03	3.40658e-02	4.41667e+02
1657	4.45765e+02	1.65700e+03	3.40174e-02	4.42333e+02
1659	4.46378e+02	1.65900e+03	3.39547e-02	4.43000e+02
1661	4.47015e+02	1.66100e+03	3.38754e-02	4.43667e+02
1663	4.47653e+02	1.66300e+03	3.37955e-02	4.44333e+02
1665	4.48281e+02	1.66500e+03	3.37210e-02	4.45000e+02
1667	4.48908e+02	1.66700e+03	3.36605e-02	4.45667e+02
1669	4.49534e+02	1.66900e+03	3.36202e-02	4.46333e+02
1671	4.50162e+02	1.67100e+03	3.35757e-02	4.47000e+02
1673	4.50793e+02	1.67300e+03	3.35417e-02	4.47667e+02
1675	4.51415e+02	1.67500e+03	3.35070e-02	4.48333e+02
1677	4.52035e+02	1.67700e+03	3.34743e-02	4.49000e+02
1679	4.52659e+02	1.67900e+03	3.34415e-02	4.49667e+02
1681	4.53295e+02	1.68100e+03	3.34187e-02	4.50333e+02
1683	4.53925e+02	1.68300e+03	3.34032e-02	4.51000e+02
1685	4.54556e+02	1.68500e+03	3.33973e-02	4.51667e+02
1687	4.55195e+02	1.68700e+03	3.33771e-02	4.52333e+02
1689	4.55826e+02	1.68900e+03	3.33465e-02	4.53000e+02
1691	4.56472e+02	1.69100e+03	3.33208e-02	4.53667e+02
1693	4.57118e+02	1.69300e+03	3.33063e-02	4.54333e+02
1695	4.57766e+02	1.69500e+03	3.33039e-02	4.55000e+02
1697	4.58410e+02	1.69700e+03	3.33219e-02	4.55667e+02
1699	4.59053e+02	1.69900e+03	3.33358e-02	4.56333e+02
1701	4.59697e+02	1.70100e+03	3.33401e-02	4.57000e+02
1703	4.60336e+02	1.70300e+03	3.33354e-02	4.57667e+02
1705	4.60993e+02	1.70500e+03	3.33153e-02	4.58333e+02
1707	4.61642e+02	1.70700e+03	3.33000e-02	4.59000e+02
1709	4.62293e+02	1.70900e+03	3.32861e-02	4.59667e+02
1711	4.62947e+02	1.71100e+03	3.32791e-02	4.60333e+02
1713	4.63608e+02	1.71300e+03	3.32755e-02	4.61000e+02
1715	4.64255e+02	1.71500e+03	3.32636e-02	4.61667e+02
1717	4.64880e+02	1.71700e+03	3.32384e-02	4.62333e+02
1719	4.65543e+02	1.71900e+03	3.32123e-02	4.63000e+02
1721	4.66190e+02	1.72100e+03	3.31843e-02	4.63667e+02
1723	4.66845e+02	1.72300e+03	3.31662e-02	4.64333e+02
1725	4.67493e+02	1.72500e+03	3.31629e-02	4.65000e+02
1727	4.68148e+02	1.72700e+03	3.31539e-02	4.65667e+02
1729	4.68806e+02	1.72900e+03	3.31426e-02	4.66333e+02
1731	4.69460e+02	1.73100e+03	3.31239e-02	4.67000e+02
1733	4.70130e+02	1.73300e+03	3.31083e-02	4.67667e+02
1735	4.70713e+02	1.73500e+03	3.31033e-02	4.68333e+02
1737	4.71289e+02	1.73700e+03	3.31124e-02	4.69000e+02
1739	4.71869e+02	1.73900e+03	3.31186e-02	4.69667e+02
1741	4.72471e+02	1.74100e+03	3.31233e-02	4.70333e+02
1743	4.73086e+02	1.74300e+03	3.31211e-02	4.71000e+02
1745	4.73706e+02	1.74500e+03	3.31046e-02	4.71667e+02
1747	4.74337e+02	1.74700e+03	3.30912e-02	4.72333e+02
1749	4.74979e+02	1.74900e+03	3.30704e-02	4.73000e+02
1751	4.75617e+02	1.75100e+03	3.30587e-02	4.73667e+02
1753	4.76264e+02	1.75300e+03	3.30534e-02	4.74333e+02
1755	4.76919e+02	1.75500e+03	3.30488e-02	4.75000e+02
1757	4.77556e+02	1.75700e+03	3.30523e-02	4.75667e+02
1759	4.78204e+02	1.75900e+03	3.30562e-02	4.76333e+02
1761	4.78837e+02	1.76100e+03	3.30637e-02	4.77000e+02
1763	4.79491e+02	1.76300e+03	3.30610e-02	4.77667e+02
1765	4.80141e+02	1.76500e+03	3.30496e-02	4.78333e+02
1767	4.80801e+02	1.76700e+03	3.30364e-02	4.79000e+02
1769	4.81442e+02	1.76900e+03	3.30177e-02	4.79667e+02
1771	4.82101e+02	1.77100e+03	3.30004e-02	4.80333e+02
1773	4.82761e+02	1.77300e+03	3.29871e-02	4.81000e+02
1775	4.83421e+02	1.77500e+03	3.29770e-02	4.81667e+02
1777	4.84073e+02	1.77700e+03	3.29678e-02	4.82333e+02
1779	4.84727e+02	1.77900e+03	3.29569e-02	4.83000e+02
1781	4.85379e+02	1.78100e+03	3.29435e-02	4.83667e+02
1783	4.86040e+02	1.78300e+03	3.29351e-02	4.84333e+02
1785	4.86691e+02	1.78500e+03	3.29302e-02	4.85000e+02
1787	4.87358e+02	1.78700e+03	3.29287e-02	4.85667e+02
1789	4.87997e+02	1.78900e+03	3.29368e-02	4.86333e+02
1791	4.88659e+02	1.79100e+03	3.29397e-02	4.87000e+02
1793	4.89305e+02	1.79300e+03	3.29234e-02	4.87667e+02
1795	4.89946e+02	1.79500e+03	3.28912e-02	4.88333e+02
1797	4.90596e+02	1.79700e+03	3.28481e-02	4.89000e+02
1799	4.91251e+02	1.79900e+03	3.28355e-02	4.89667e+02
1801	4.91899e+02	1.80100e+03	3.28657e-02	4.90333e+02
1803	4.92549e+02	1.80300e+03	3.28977e-02	4.91000e+02
1805	4.93191e+02	1.80500e+03	3.29463e-02	4.91667e+02
1807	4.93839e+02	1.80700e+03	3.29617e-02	4.92333e+02
1809	4.94489e+02	1.80900e+03	3.29460e-02	4.93000e+02
1811	4.95141e+02	1.81100e+03	3.29359e-02	4.93667e+02
1813	4.95802e+02	1.81300e+03	3.29119e-02	4.94333e+02
1815	4.96453e+02	1.81500e+03	3.28986e-02	4.95000e+02
1817	4.97114e+02	1.81700e+03	3.28950e-02	4.95667e+02
1819	4.97764e+02	1.81900e+03	3.28985e-02	4.96333e+02
1821	4.98424e+02	1.82100e+03	3.29017e-02	4.97000e+02
1823	4.99086e+02	1.82300e+03	3.28948e-02	4.97667e+02
1825	4.99726e+02	1.82500e+03	3.28731e-02	4.98333e+02
1827	5.00385e+02	1.82700e+03	3.28464e-02	4.99000e+02
1829	5.01039e+02	1.82900e+03	3.28109e-02	4.99667e+02
1831	5.01688e+02	1.83100e+03	3.27769e-02	5.00333e+02
1833	5.02355e+02	1.83300e+03	3.27491e-02	5.01000e+02
1835	5.03013e+02	1.83500e+03	3.27366e-02	5.01667e+02
1837	5.03661e+02	1.83700e+03	3.27471e-02	5.02333e+02
1839	5.04335e+02	1.83900e+03	3.27623e-02	5.03000e+02
1841	5.04991e+02	1.84100e+03	3.27922e-02	5.03667e+02
1843	5.05648e+02	1.84300e+03	3.28005e-02	5.04333e+02
1845	5.06312e+02	1.84500e+03	3.27915e-02	5.05000e+02
1847	5.06965e+02	1.84700e+03	3.27899e-02	5.05667e+02
1849	5.07609e+02	1.84900e+03	3.27745e-02	5.06333e+02
1851	5.08278e+02	1.85100e+03	3.27635e-02	5.07000e+02
1853	5.08932e+02	1.85300e+03	3.27459e-02	5.07667e+02
1855	5.09579e+02	1.85500e+03	3.27129e-02	5.08333e+02
1857	5.10237e+02	1.85700e+03	3.26838e-02	5.09000e+02
1859	5.10877e+02	1.85900e+03	3.26704e-02	5.09667e+02
1861	5.11535e+02	1.86100e+03	3.26733e-02	5.10333e+02
1863	5.12197e+02	1.86300e+03	3.26716e-02	5.11000e+02
1865	5.12854e+02	1.86500e+03	3.26558e-02	5.11667e+02
1867	5.13502e+02	1.86700e+03	3.26339e-02	5.12333e+02
1869	5.14160e+02	1.86900e+03	3.26160e-02	5.13000e+02
1871	5.14817e+02	1.87100e+03	3.26142e-02	5.13667e+02
1873	5.15473e+02	1.87300e+03	3.26431e-02	5.14333e+02
1875	5.16130e+02	1.87500e+03	3.26629e-02	5.15000e+02
1877	5.16794e+02	1.87700e+03	3.26852e-02	5.15667e+02
1879	5.17451e+02	1.87900e+03	3.27030e-02	5.16333e+02
1881	5.18116e+02	1.88100e+03	3.27001e-02	5.17000e+02
1883	5.18794e+02	1.88300e+03	3.26872e-02	5.17667e+02
1885	5.19456e+02	1.88500e+03	3.26605e-02	5.18333e+02
1887	5.20139e+02	1.88700e+03	3.26448e-02	5.19000e+02
1889	5.20804e+02	1.88900e+03	3.26372e-02	5.19667e+02
1891	5.21492e+02	1.89100e+03	3.26144e-02	5.20333e+02
1893	5.22164e+02	1.89300e+03	3.25879e-02	5.21000e+02
1895	5.22837e+02	1.89500e+03	3.25696e-02	5.21667e+02
1897	5.23501e+02	1.89700e+03	3.25603e-02	5.22333e+02
1899	5.24173e+02	1.89900e+03	3.25640e-02	5.23000e+02
1901	5.24825e+02	1.90100e+03	3.25820e-02	5.23667e+02
1903	5.25486e+02	1.90300e+03	3.25909e-02	5.24333e+02
1905	5.26143e+02	1.90500e+03	3.25862e-02	5.25000e+02
1907	5.26794e+02	1.90700e+03	3.25828e-02	5.25667e+02
1909	5.27467e+02	1.90900e+03	3.25787e-02	5.26333e+02
1911	5.28142e+02	1.91100e+03	3.25796e-02	5.27000e+02
1913	5.28804e+02	1.91300e+03	3.25832e-02	5.27667e+02
1915	5.29477e+02	1.91500e+03	3.25768e-02	5.28333e+02
1917	5.30143e+02	1.91700e+03	3.25604e-02	5.29000e+02
1919	5.30810e+02	1.91900e+03	3.25396e-02	5.29667e+02
1921	5.31483e+02	1.92100e+03	3.25071e-02	5.30333e+02
1923	5.32145e+02	1.92300e+03	3.24793e-02	5.31000e+02
1925	5.32816e+02	1.92500e+03	3.24557e-02	5.31667e+02
1927	5.33464e+02	1.92700e+03	3.24449e-02	5.32333e+02
1929	5.34140e+02	1.92900e+03	3.24523e-02	5.33000e+02
1931	5.34801e+02	1.93100e+03	3.24581e-02	5.33667e+02
1933	5.35478e+02	1.93300e+03	3.24520e-02	5.34333e+02
1935	5.36144e+02	1.93500e+03	3.24273e-02	5.35000e+02
1937	5.36825e+02	1.93700e+03	3.23784e-02	5.35667e+02
1939	5.37489e+02	1.93900e+03	3.23525e-02	5.36333e+02
1941	5.38152e+02	1.94100e+03	3.23512e-02	5.37000e+02
1943	5.38831e+02	1.94300e+03	3.23618e-02	5.37667e+02
1945	5.39490e+02	1.94500e+03	3.23961e-02	5.38333e+02
1947	5.40157e+02	1.94700e+03	3.24088e-02	5.39000e+02
1949	5.40816e+02	1.94900e+03	3.24079e-02	5.39667e+02
1951	5.41483e+02	1.95100e+03	3.24022e-02	5.40333e+02
1953	5.42151e+02	1.95300e+03	3.23896e-02	5.41000e+02
1955	5.42810e+02	1.95500e+03	3.23945e-02	5.41667e+02
1957	5.43483e+02	1.95700e+03	3.24217e-02	5.42333e+02
1959	5.44168e+02	1.95900e+03	3.24608e-02	5.43000e+02
1961	5.44829e+02	1.96100e+03	3.25059e-02	5.43667e+02
1963	5.45527e+02	1.96300e+03	3.25101e-02	5.44333e+02
1965	5.46202e+02	1.96500e+03	3.24631e-02	5.45000e+02
1967	5.46892e+02	1.96700e+03	3.24135e-02	5.45667e+02
1969	5.47547e+02	1.96900e+03	3.23569e-02	5.46333e+02
1971	5.48211e+02	1.97100e+03	3.23346e-02	5.47000e+02
1973	5.48859e+02	1.97300e+03	3.23603e-02	5.47667e+02
1975	5.49507e+02	1.97500e+03	3.23796e-02	5.48333e+02
1977	5.50176e+02	1.97700e+03	3.24242e-02	5.49000e+02
1979	5.50829e+02	1.97900e+03	3.24595e-02	5.49667e+02
1981	5.51499e+02	1.98100e+03	3.24964e-02	5.50333e+02
1983	5.52172e+02	1.98300e+03	3.25281e-02	5.51000e+02
1985	5.52854e+02	1.98500e+03	3.25372e-02	5.51667e+02
1987	5.53499e+02	1.98700e+03	3.25292e-02	5.52333e+02
1989	5.54147e+02	1.98900e+03	3.24868e-02	5.53000e+02
1991	5.54794e+02	1.99100e+03	3.24517e-02	5.53667e+02
1993	5.55435e+02	1.99300e+03	3.23969e-02	5.54333e+02
1995	5.56099e+02	1.99500e+03	3.23459e-02	5.55000e+02
1997	5.56748e+02	1.99700e+03	3.23145e-02	5.55667e+02
1999	5.57398e+02	1.99900e+03	3.22997e-02	5.56333e+02
2001	5.58048e+02	2.00100e+03	3.23218e-02	5.57000e+02
2003	5.58718e+02	2.00300e+03	3.23383e-02	5.57667e+02
2005	5.59370e+02	2.00500e+03	3.23701e-02	5.58333e+02
2007	5.60011e+02	2.00700e+03	3.23942e-02	5.59000e+02
2009	5.60678e+02	2.00900e+03	3.24123e-02	5.59667e+02
2011	5.61333e+02	2.01100e+03	3.24220e-02	5.60333e+02
2013	5.61974e+02	2.01300e+03	3.24170e-02	5.61000e+02
2015	5.62604e+02	2.01500e+03	3.24152e-02	5.61667e+02
2017	5.63228e+02	2.01700e+03	3.24084e-02	5.62333e+02
2019	5.63867e+02	2.01900e+03	3.24087e-02	5.63000e+02
2021	5.64502e+02	2.02100e+03	3.24240e-02	5.63667e+02
2023	5.65151e+02	2.02300e+03	3.24559e-02	5.64333e+02
2025	5.65786e+02	2.02500e+03	3.25114e-02	5.65000e+02
2027	5.66444e+02	2.02700e+03	3.25558e-02	5.65667e+02
2029	5.67083e+02	2.02900e+03	3.25778e-02	5.66333e+02
2031	5.67751e+02	2.03100e+03	3.25720e-02	5.67000e+02
2033	5.68385e+02	2.03300e+03	3.25210e-02	5.67667e+02
2035	5.69037e+02	2.03500e+03	3.24790e-02	5.68333e+02
2037	5.69674e+02	2.03700e+03	3.24402e-02	5.69000e+02
2039	5.70328e+02	2.03900e+03	3.24160e-02	5.69667e+02
2041	5.70972e+02	2.04100e+03	3.24134e-02	5.70333e+02
2043	5.71613e+02	2.04300e+03	3.24102e-02	5.71000e+02
2045	5.72262e+02	2.04500e+03	3.24117e-02	5.71667e+02
2047	5.72918e+02	2.04700e+03	3.24019e-02	5.72333e+02
2049	5.73577e+02	2.04900e+03	3.23767e-02	5.73000e+02
2051	5.74228e+02	2.05100e+03	3.23567e-02	5.73667e+02
2053	5.74875e+02	2.05300e+03	3.23322e-02	5.74333e+02
2055	5.75533e+02	2.05500e+03	3.23162e-02	5.75000e+02
2057	5.76184e+02	2.05700e+03	3.23182e-02	5.75667e+02
2059	5.76835e+02	2.05900e+03	3.23294e-02	5.76333e+02
2061	5.77494e+02	2.06100e+03	3.23629e-02	5.77000e+02
2063	5.78147e+02	2.06300e+03	3.23959e-02	5.77667e+02
2065	5.78800e+02	2.06500e+03	3.24322e-02	5.78333e+02
2067	5.79460e+02	2.06700e+03	3.24557e-02	5.79000e+02
2069	5.80118e+02	2.06900e+03	3.24635e-02	5.79667e+02
2071	5.80784e+02	2.07100e+03	3.24727e-02	5.80333e+02
2073	5.81433e+02	2.07300e+03	3.24565e-02	5.81000e+02
2075	5.82092e+02	2.07500e+03	3.24290e-02	5.81667e+02
2077	5.82745e+02	2.07700e+03	3.23863e-02	5.82333e+02
2079	5.83418e+02	2.07900e+03	3.23505e-02	5.83000e+02
2081	5.84079e+02	2.08100e+03	3.23291e-02	5.83667e+02
2083	5.84749e+02	2.08300e+03	3.23126e-02	5.84333e+02
2085	5.85415e+02	2.08500e+03	3.23120e-02	5.85000e+02
2087	5.86082e+02	2.08700e+03	3.23015e-02	5.85667e+02
2089	5.86750e+02	2.08900e+03	3.22893e-02	5.86333e+02
2091	5.87399e+02	2.09100e+03	3.22751e-02	5.87000e+02
2093	5.88057e+02	2.09300e+03	3.22681e-02	5.87667e+02
2095	5.88719e+02	2.09500e+03	3.22800e-02	5.88333e+02
2097	5.89381e+02	2.09700e+03	3.23131e-02	5.89000e+02
2099	5.90035e+02	2.09900e+03	3.23354e-02	5.89667e+02
2101	5.90697e+02	2.10100e+03	3.23396e-02	5.90333e+02
2103	5.91356e+02	2.10300e+03	3.23228e-02	5.91000e+02
2105	5.92018e+02	2.10500e+03	3.22783e-02	5.91667e+02
2107	5.92666e+02	2.10700e+03	3.22583e-02	5.92333e+02
2109	5.93342e+02	2.10900e+03	3.22527e-02	5.93000e+02
2111	5.94007e+02	2.11100e+03	3.22458e-02	5.93667e+02
2113	5.94661e+02	2.11300e+03	3.22354e-02	5.94333e+02
2115	5.95333e+02	2.11500e+03	3.22119e-02	5.95000e+02
2117	5.95992e+02	2.11700e+03	3.21743e-02	5.95667e+02
2119	5.96638e+02	2.11900e+03	3.21524e-02	5.96333e+02
2121	5.97309e+02	2.12100e+03	3.21638e-02	5.97000e+02
2123	5.97967e+02	2.12300e+03	3.21856e-02	5.97667e+02
2125	5.98631e+02	2.12500e+03	3.22356e-02	5.98333e+02
2127	5.99297e+02	2.12700e+03	3.22679e-02	5.99000e+02
2129	5.99954e+02	2.12900e+03	3.22885e-02	5.99667e+02
2131	6.00597e+02	2.13100e+03	3.23060e-02	6.00333e+02
2133	6.01259e+02	2.13300e+03	3.22993e-02	6.01000e+02
2135	6.01924e+02	2.13500e+03	3.22939e-02	6.01667e+02
2137	6.02581e+02	2.13700e+03	3.22876e-02	6.02333e+02
2139	6.03239e+02	2.13900e+03	3.22913e-02	6.03000e+02
2141	6.03906e+02	2.14100e+03	3.23013e-02	6.03667e+02
2143	6.04581e+02	2.14300e+03	3.23024e-02	6.04333e+02
2145	6.05228e+02	2.14500e+03	3.22811e-02	6.05000e+02
2147	6.05900e+02	2.14700e+03	3.22508e-02	6.05667e+02
2149	6.06565e+02	2.14900e+03	3.22083e-02	6.06333e+02
2151	6.07228e+02	2.15100e+03	3.21879e-02	6.07000e+02
2153	6.07878e+02	2.15300e+03	3.21893e-02	6.07667e+02
2155	6.08537e+02	2.15500e+03	3.21965e-02	6.08333e+02
2157	6.09209e+02	2.15700e+03	3.22276e-02	6.09000e+02
2159	6.09879e+02	2.15900e+03	3.22509e-02	6.09667e+02
2161	6.10534e+02	2.16100e+03	3.22624e-02	6.10333e+02
2163	6.11195e+02	2.16300e+03	3.22586e-02	6.11000e+02
2165	6.11869e+02	2.16500e+03	3.22364e-02	6.11667e+02
2167	6.12528e+02	2.16700e+03	3.22224e-02	6.12333e+02
2169	6.13196e+02	2.16900e+03	3.22162e-02	6.13000e+02
2171	6.13871e+02	2.17100e+03	3.22242e-02	6.13667e+02
2173	6.14546e+02	2.17300e+03	3.22647e-02	6.14333e+02
2175	6.15222e+02	2.17500e+03	3.23175e-02	6.15000e+02
2177	6.15893e+02	2.17700e+03	3.23936e-02	6.15667e+02
2179	6.16565e+02	2.17900e+03	3.24493e-02	6.16333e+02
2181	6.17233e+02	2.18100e+03	3.24796e-02	6.17000e+02
2183	6.17904e+02	2.18300e+03	3.24972e-02	6.17667e+02
2185	6.18571e+02	2.18500e+03	3.24663e-02	6.18333e+02
2187	6.19234e+02	2.18700e+03	3.24246e-02	6.19000e+02
2189	6.19898e+02	2.18900e+03	3.23570e-02	6.19667e+02
2191	6.20556e+02	2.19100e+03	3.23121e-02	6.20333e+02
2193	6.21238e+02	2.19300e+03	3.22942e-02	6.21000e+02
2195	6.21894e+02	2.19500e+03	3.22778e-02	6.21667e+02
2197	6.22571e+02	2.19700e+03	3.22776e-02	6.22333e+02
2199	6.23222e+02	2.19900e+03	3.22592e-02	6.23000e+02
2201	6.23892e+02	2.20100e+03	3.22238e-02	6.23667e+02
2203	6.24561e+02	2.20300e+03	3.21933e-02	6.24333e+02
2205	6.25227e+02	2.20500e+03	3.21727e-02	6.25000e+02
2207	6.25900e+02	2.20700e+03	3.21680e-02	6.25667e+02
2209	6.26562e+02	2.20900e+03	3.21912e-02	6.26333e+02
2211	6.27219e+02	2.21100e+03	3.22105e-02	6.27000e+02
2213	6.27890e+02	2.21300e+03	3.22287e-02	6.27667e+02
2215	6.28533e+02	2.21500e+03	3.22350e-02	6.28333e+02
2217	6.29205e+02	2.21700e+03	3.22338e-02	6.29000e+02
2219	6.29848e+02	2.21900e+03	3.22368e-02	6.29667e+02
2221	6.30509e+02	2.22100e+03	3.22368e-02	6.30333e+02
2223	6.31170e+02	2.22300e+03	3.22304e-02	6.31000e+02
2225	6.31833e+02	2.22500e+03	3.22201e-02	6.31667e+02
2227	6.32494e+02	2.22700e+03	3.22260e-02	6.32333e+02
2229	6.33170e+02	2.22900e+03	3.22477e-02	6.33000e+02
2231	6.33817e+02	2.23100e+03	3.22660e-02	6.33667e+02
2233	6.34469e+02	2.23300e+03	3.22772e-02	6.34333e+02
2235	6.35123e+02	2.23500e+03	3.22611e-02	6.35000e+02
2237	6.35805e+02	2.23700e+03	3.22256e-02	6.35667e+02
2239	6.36469e+02	2.23900e+03	3.22139e-02	6.36333e+02
2241	6.37126e+02	2.24100e+03	3.22219e-02	6.37000e+02
2243	6.37795e+02	2.24300e+03	3.22358e-02	6.37667e+02
2245	6.38480e+02	2.24500e+03	3.22580e-02	6.38333e+02
2247	6.39147e+02	2.24700e+03	3.22673e-02	6.39000e+02
2249	6.39814e+02	2.24900e+03	3.22702e-02	6.39667e+02
2251	6.40478e+02	2.25100e+03	3.22751e-02	6.40333e+02
2253	6.41151e+02	2.25300e+03	3.22768e-02	6.41000e+02
2255	6.41800e+02	2.25500e+03	3.22703e-02	6.41667e+02
2257	6.42470e+02	2.25700e+03	3.22398e-02	6.42333e+02
2259	6.43119e+02	2.25900e+03	3.22076e-02	6.43000e+02
2261	6.43800e+02	2.26100e+03	3.21747e-02	6.43667e+02
2263	6.44462e+02	2.26300e+03	3.21605e-02	6.44333e+02
2265	6.45123e+02	2.26500e+03	3.21561e-02	6.45000e+02
2267	6.45781e+02	2.26700e+03	3.21423e-02	6.45667e+02
2269	6.46448e+02	2.26900e+03	3.21206e-02	6.46333e+02
2271	6.47104e+02	2.27100e+03	3.21002e-02	6.47000e+02
2273	6.47772e+02	2.27300e+03	3.20868e-02	6.47667e+02
2275	6.48430e+02	2.27500e+03	3.20830e-02	6.48333e+02
2277	6.49088e+02	2.27700e+03	3.20712e-02	6.49000e+02
2279	6.49744e+02	2.27900e+03	3.20493e-02	6.49667e+02
2281	6.50415e+02	2.28100e+03	3.20225e-02	6.50333e+02
2283	6.51067e+02	2.28300e+03	3.20173e-02	6.51000e+02
2285	6.51734e+02	2.28500e+03	3.20259e-02	6.51667e+02
2287	6.52393e+02	2.28700e+03	3.20292e-02	6.52333e+02
2289	6.53056e+02	2.28900e+03	3.20288e-02	6.53000e+02
2291	6.53726e+02	2.29100e+03	3.20290e-02	6.53667e+02
2293	6.54395e+02	2.29300e+03	3.20299e-02	6.54333e+02
2295	6.55054e+02	2.29500e+03	3.20443e-02	6.55000e+02
2297	6.55720e+02	2.29700e+03	3.20802e-02	6.55667e+02
2299	6.56376e+02	2.29900e+03	3.21207e-02	6.56333e+02
2301	6.57037e+02	2.30100e+03	3.21781e-02	6.57000e+02
2303	6.57700e+02	2.30300e+03	3.22332e-02	6.57667e+02
2305	6.58367e+02	2.30500e+03	3.22817e-02	6.58333e+02
2307	6.59030e+02	2.30700e+03	3.23173e-02	6.59000e+02
2309	6.59693e+02	2.30900e+03	3.23373e-02	6.59667e+02
2311	6.60365e+02	2.31100e+03	3.23576e-02	6.60333e+02
2313	6.61041e+02	2.31300e+03	3.23638e-02	6.61000e+02
2315	6.61708e+02	2.31500e+03	3.23676e-02	6.61667e+02
2317	6.62378e+02	2.31700e+03	3.23594e-02	6.62333e+02
2319	6.63033e+02	2.31900e+03	3.23478e-02	6.63000e+02
2321	6.63707e+02	2.32100e+03	3.23167e-02	6.63667e+02
2323	6.64365e+02	2.32300e+03	3.22811e-02	6.64333e+02
2325	6.65025e+02	2.32500e+03	3.22298e-02	6.65000e+02
2327	6.65688e+02	2.32700e+03	3.21864e-02	6.65667e+02
2329	6.66347e+02	2.32900e+03	3.21529e-02	6.66333e+02
2331	6.67009e+02	2.33100e+03	3.21217e-02	6.67000e+02
2333	6.67679e+02	2.33300e+03	3.20959e-02	6.67667e+02
2335	6.68332e+02	2.33500e+03	3.20656e-02	6.68333e+02
2337	6.69013e+02	2.33700e+03	3.20381e-02	6.69000e+02
2339	6.69657e+02	2.33900e+03	3.20178e-02	6.69667e+02
2341	6.70331e+02	2.34100e+03	3.20051e-02	6.70333e+02
2343	6.70988e+02	2.34300e+03	3.19822e-02	6.71000e+02
2345	6.71649e+02	2.34500e+03	3.19550e-02	6.71667e+02
2347	6.72307e+02	2.34700e+03	3.19420e-02	6.72333e+02
2349	6.72974e+02	2.34900e+03	3.19513e-02	6.73000e+02
2351	6.73628e+02	2.35100e+03	3.19579e-02	6.73667e+02
2353	6.74288e+02	2.35300e+03	3.19686e-02	6.74333e+02
2355	6.74944e+02	2.35500e+03	3.19619e-02	6.75000e+02
2357	6.75612e+02	2.35700e+03	3.19402e-02	6.75667e+02
2359	6.76271e+02	2.35900e+03	3.19292e-02	6.76333e+02
2361	6.76935e+02	2.36100e+03	3.19192e-02	6.77000e+02
2363	6.77596e+02	2.36300e+03	3.19016e-02	6.77667e+02
2365	6.78251e+02	2.36500e+03	3.18777e-02	6.78333e+02
2367	6.78920e+02	2.36700e+03	3.18594e-02	6.79000e+02
2369	6.79584e+02	2.36900e+03	3.18500e-02	6.79667e+02
2371	6.80247e+02	2.37100e+03	3.18528e-02	6.80333e+02
2373	6.80910e+02	2.37300e+03	3.18586e-02	6.81000e+02
2375	6.81576e+02	2.37500e+03	3.18508e-02	6.81667e+02
2377	6.82237e+02	2.37700e+03	3.18384e-02	6.82333e+02
2379	6.82892e+02	2.37900e+03	3.18373e-02	6.83000e+02
2381	6.83559e+02	2.38100e+03	3.18296e-02	6.83667e+02
2383	6.84222e+02	2.38300e+03	3.18066e-02	6.84333e+02
2385	6.84894e+02	2.38500e+03	3.17607e-02	6.85000e+02
2387	6.85549e+02	2.38700e+03	3.17256e-02	6.85667e+02
2389	6.86223e+02	2.38900e+03	3.17069e-02	6.86333e+02
2391	6.86871e+02	2.39100e+03	3.17065e-02	6.87000e+02
2393	6.87531e+02	2.39300e+03	3.17259e-02	6.87667e+02
2395	6.88210e+02	2.39500e+03	3.17249e-02	6.88333e+02
2397	6.88861e+02	2.39700e+03	3.17089e-02	6.89000e+02
2399	6.89532e+02	2.39900e+03	3.16972e-02	6.89667e+02
2401	6.90194e+02	2.40100e+03	3.16938e-02	6.90333e+02
2403	6.90867e+02	2.40300e+03	3.17062e-02	6.91000e+02
2405	6.91341e+02	2.40500e+03	3.17419e-02	6.91667e+02
2407	6.91686e+02	2.40700e+03	3.17796e-02	6.92333e+02
2409	6.92182e+02	2.40900e+03	3.18223e-02	6.93000e+02
2411	6.92653e+02	2.41100e+03	3.18577e-02	6.93667e+02
2413	6.93092e+02	2.41300e+03	3.18801e-02	6.94333e+02
2415	6.93513e+02	2.41500e+03	3.18881e-02	6.95000e+02
2417	6.93897e+02	2.41700e+03	3.18802e-02	6.95667e+02
2419	6.94267e+02	2.41900e+03	3.18698e-02	6.96333e+02
2421	6.94602e+02	2.42100e+03	3.18485e-02	6.97000e+02
2423	6.94922e+02	2.42300e+03	3.18428e-02	6.97667e+02
2425	6.95233e+02	2.42500e+03	3.18503e-02	6.98333e+02
2427	6.95534e+02	2.42700e+03	3.18507e-02	6.99000e+02
2429	6.95795e+02	2.42900e+03	3.18387e-02	6.99667e+02
2430	6.95932e+02	2.43000e+03	3.18249e-02	7.00000e+02