File: Experiments/TUBS/tga_nonisotherm/tga_dynamic_n2low20_dyn30_piece_3mg_r2.txt
Index	Ts	t	Weight	Tr
[#]	[°C]	[s]	[mg]	[°C]
681	1.30486e+02	6.81000e+02	3.03618	130.5
683	1.31496e+02	6.83000e+02	3.03611	131.5
685	1.32506e+02	6.85000e+02	3.03604	132.5
687	1.33531e+02	6.87000e+02	3.03599	133.5
689	1.34540e+02	6.89000e+02	3.03596	134.5
691	1.35560e+02	6.91000e+02	3.03594	135.5
693	1.36564e+02	6.93000e+02	3.03595	136.5
695	1.37588e+02	6.95000e+02	3.03596	137.5
697	1.38605e+02	6.97000e+02	3.03595	138.5
699	1.39618e+02	6.99000e+02	3.03592	139.5
701	1.40634e+02	7.01000e+02	3.03584	140.5
703	1.41643e+02	7.03000e+02	3.03575	141.5
705	1.42658e+02	7.05000e+02	3.0356	142.5
707	1.43680e+02	7.07000e+02	3.03545	143.5
709	1.44701e+02	7.09000e+02	3.03527	144.5
711	1.45711e+02	7.11000e+02	3.03515	145.5
713	1.46720e+02	7.13000e+02	3.03512	146.5
715	1.47745e+02	7.15000e+02	3.03514	147.5
717	1.48752e+02	7.17000e+02	3.03527	148.5
719	1.49770e+02	7.19000e+02	3.03536	149.5
721	1.50785e+02	7.21000e+02	3.03539	150.5
723	1.51805e+02	7.23000e+02	3.03537	151.5
725	1.52804e+02	7.25000e+02	3.03522	152.5
727	1.53821e+02	7.27000e+02	3.03507	153.5
729	1.54838e+02	7.29000e+02	3.03489	154.5
731	1.55866e+02	7.31000e+02	3.03478	155.5
733	1.56877e+02	7.33000e+02	3.03473	156.5
735	1.57902e+02	7.35000e+02	3.03466	157.5
737	1.58910e+02	7.37000e+02	3.03461	158.5
739	1.59933e+02	7.39000e+02	3.03457	159.5
741	1.60947e+02	7.41000e+02	3.03452	160.5
743	1.61961e+02	7.43000e+02	3.03446	161.5
745	1.62972e+02	7.45000e+02	3.0344	162.5
747	1.64003e+02	7.47000e+02	3.03435	163.5
749	1.65021e+02	7.49000e+02	3.0343	164.5
751	1.66049e+02	7.51000e+02	3.03423	165.5
753	1.67059e+02	7.53000e+02	3.03414	166.5
755	1.68072e+02	7.55000e+02	3.03407	167.5
757	1.69101e+02	7.57000e+02	3.03399	168.5
759	1.70114e+02	7.59000e+02	3.03389	169.5
761	1.71134e+02	7.61000e+02	3.03377	170.5
763	1.72150e+02	7.63000e+02	3.03366	171.5
765	1.73159e+02	7.65000e+02	3.03351	172.5
767	1.74175e+02	7.67000e+02	3.03336	173.5
769	1.75201e+02	7.69000e+02	3.03318	174.5
771	1.76227e+02	7.71000e+02	3.03302	175.5
773	1.77243e+02	7.73000e+02	3.03287	176.5
775	1.78264e+02	7.75000e+02	3.03272	177.5
777	1.79281e+02	7.77000e+02	3.03257	178.5
779	1.80313e+02	7.79000e+02	3.03241	179.5
781	1.81333e+02	7.81000e+02	3.03225	180.5
783	1.82341e+02	7.83000e+02	3.03211	181.5
785	1.83373e+02	7.85000e+02	3.032	182.5
787	1.84392e+02	7.87000e+02	3.03189	183.5
789	1.85416e+02	7.89000e+02	3.0318	184.5
791	1.86440e+02	7.91000e+02	3.0317	185.5
793	1.87469e+02	7.93000e+02	3.03158	186.5
795	1.88484e+02	7.95000e+02	3.03143	187.5
797	1.89511e+02	7.97000e+02	3.03124	188.5
799	1.90548e+02	7.99000e+02	3.03105	189.5
801	1.91560e+02	8.01000e+02	3.03084	190.5
803	1.92583e+02	8.03000e+02	3.03059	191.5
805	1.93605e+02	8.05000e+02	3.03032	192.5
807	1.94628e+02	8.07000e+02	3.03005	193.5
809	1.95662e+02	8.09000e+02	3.02977	194.5
811	1.96671e+02	8.11000e+02	3.02948	195.5
813	1.97711e+02	8.13000e+02	3.02916	196.5
815	1.98732e+02	8.15000e+02	3.02881	197.5
817	1.99752e+02	8.17000e+02	3.02838	198.5
819	2.00779e+02	8.19000e+02	3.02792	199.5
821	2.01805e+02	8.21000e+02	3.02737	200.5
823	2.02831e+02	8.23000e+02	3.02685	201.5
825	2.03849e+02	8.25000e+02	3.02632	202.5
827	2.04883e+02	8.27000e+02	3.02578	203.5
829	2.05906e+02	8.29000e+02	3.02524	204.5
831	2.06935e+02	8.31000e+02	3.02471	205.5
833	2.07956e+02	8.33000e+02	3.02414	206.5
835	2.08973e+02	8.35000e+02	3.02355	207.5
837	2.09997e+02	8.37000e+02	3.02291	208.5
839	2.11019e+02	8.39000e+02	3.02228	209.5
841	2.12039e+02	8.41000e+02	3.02163	210.5
843	2.13064e+02	8.43000e+02	3.02096	211.5
845	2.14078e+02	8.45000e+02	3.02027	212.5
847	2.15109e+02	8.47000e+02	3.01961	213.5
849	2.16134e+02	8.49000e+02	3.01896	214.5
851	2.17146e+02	8.51000e+02	3.0183	215.5
853	2.18170e+02	8.53000e+02	3.01762	216.5
855	2.19196e+02	8.55000e+02	3.01694	217.5
857	2.20203e+02	8.57000e+02	3.01625	218.5
859	2.21230e+02	8.59000e+02	3.01557	219.5
861	2.22244e+02	8.61000e+02	3.0149	220.5
863	2.23260e+02	8.63000e+02	3.01424	221.5
865	2.24273e+02	8.65000e+02	3.0136	222.5
867	2.25301e+02	8.67000e+02	3.01296	223.5
869	2.26318e+02	8.69000e+02	3.0123	224.5
871	2.27319e+02	8.71000e+02	3.01163	225.5
873	2.28351e+02	8.73000e+02	3.01094	226.5
875	2.29362e+02	8.75000e+02	3.01026	227.5
877	2.30382e+02	8.77000e+02	3.00958	228.5
879	2.31395e+02	8.79000e+02	3.00891	229.5
881	2.32410e+02	8.81000e+02	3.00825	230.5
883	2.33431e+02	8.83000e+02	3.00758	231.5
885	2.34459e+02	8.85000e+02	3.00689	232.5
887	2.35475e+02	8.87000e+02	3.00617	233.5
889	2.36486e+02	8.89000e+02	3.00542	234.5
891	2.37509e+02	8.91000e+02	3.0047	235.5
893	2.38520e+02	8.93000e+02	3.00398	236.5
895	2.39517e+02	8.95000e+02	3.00323	237.5
897	2.40541e+02	8.97000e+02	3.00247	238.5
899	2.41559e+02	8.99000e+02	3.00173	239.5
901	2.42577e+02	9.01000e+02	3.001	240.5
903	2.43593e+02	9.03000e+02	3.00026	241.5
905	2.44622e+02	9.05000e+02	2.99951	242.5
907	2.45620e+02	9.07000e+02	2.99875	243.5
909	2.46642e+02	9.09000e+02	2.99794	244.5
911	2.47665e+02	9.11000e+02	2.99711	245.5
913	2.48654e+02	9.13000e+02	2.99625	246.5
915	2.49669e+02	9.15000e+02	2.99542	247.5
917	2.50687e+02	9.17000e+02	2.99459	248.5
919	2.51710e+02	9.19000e+02	2.99375	249.5
921	2.52737e+02	9.21000e+02	2.99289	250.5
923	2.53757e+02	9.23000e+02	2.99201	251.5
925	2.54783e+02	9.25000e+02	2.99111	252.5
927	2.55798e+02	9.27000e+02	2.99022	253.5
929	2.56823e+02	9.29000e+02	2.98935	254.5
931	2.57844e+02	9.31000e+02	2.9885	255.5
933	2.58888e+02	9.33000e+02	2.98769	256.5
935	2.60004e+02	9.35000e+02	2.98685	257.5
937	2.61039e+02	9.37000e+02	2.98598	258.5
939	2.62085e+02	9.39000e+02	2.98508	259.5
941	2.63115e+02	9.41000e+02	2.98412	260.5
943	2.64121e+02	9.43000e+02	2.98316	261.5
945	2.65137e+02	9.45000e+02	2.98217	262.5
947	2.66160e+02	9.47000e+02	2.98119	263.5
949	2.67181e+02	9.49000e+02	2.98024	264.5
951	2.68210e+02	9.51000e+02	2.97928	265.5
953	2.69242e+02	9.53000e+02	2.97832	266.5
955	2.70258e+02	9.55000e+02	2.97733	267.5
957	2.71277e+02	9.57000e+02	2.97626	268.5
959	2.72309e+02	9.59000e+02	2.97518	269.5
961	2.73355e+02	9.61000e+02	2.97399	270.5
963	2.74394e+02	9.63000e+02	2.97277	271.5
965	2.75425e+02	9.65000e+02	2.97154	272.5
967	2.76438e+02	9.67000e+02	2.97038	273.5
969	2.77458e+02	9.69000e+02	2.96911	274.5
971	2.78490e+02	9.71000e+02	2.96763	275.5
973	2.79533e+02	9.73000e+02	2.9658	276.5
975	2.80538e+02	9.75000e+02	2.96397	277.5
977	2.81567e+02	9.77000e+02	2.96201	278.5
979	2.82578e+02	9.79000e+02	2.96019	279.5
981	2.83573e+02	9.81000e+02	2.95852	280.5
983	2.84580e+02	9.83000e+02	2.95686	281.5
985	2.85591e+02	9.85000e+02	2.95526	282.5
987	2.86603e+02	9.87000e+02	2.95359	283.5
989	2.87617e+02	9.89000e+02	2.95189	284.5
991	2.88635e+02	9.91000e+02	2.95021	285.5
993	2.89651e+02	9.93000e+02	2.9485	286.5
995	2.90666e+02	9.95000e+02	2.94678	287.5
997	2.91702e+02	9.97000e+02	2.94502	288.5
999	2.92708e+02	9.99000e+02	2.94323	289.5
1001	2.93730e+02	1.00100e+03	2.94139	290.5
1003	2.94747e+02	1.00300e+03	2.93953	291.5
1005	2.95760e+02	1.00500e+03	2.93762	292.5
1007	2.96762e+02	1.00700e+03	2.93566	293.5
1009	2.97771e+02	1.00900e+03	2.9336	294.5
1011	2.98769e+02	1.01100e+03	2.93149	295.5
1013	2.99775e+02	1.01300e+03	2.92927	296.5
1015	3.00788e+02	1.01500e+03	2.92706	297.5
1017	3.01795e+02	1.01700e+03	2.92478	298.5
1019	3.02795e+02	1.01900e+03	2.92248	299.5
1021	3.03811e+02	1.02100e+03	2.92008	300.5
1023	3.04824e+02	1.02300e+03	2.91764	301.5
1025	3.05831e+02	1.02500e+03	2.91509	302.5
1027	3.06844e+02	1.02700e+03	2.91251	303.5
1029	3.07845e+02	1.02900e+03	2.90979	304.5
1031	3.08850e+02	1.03100e+03	2.907	305.5
1033	3.09847e+02	1.03300e+03	2.904	306.5
1035	3.10849e+02	1.03500e+03	2.90092	307.5
1037	3.11827e+02	1.03700e+03	2.8976	308.5
1039	3.12814e+02	1.03900e+03	2.89427	309.5
1041	3.13804e+02	1.04100e+03	2.89083	310.5
1043	3.14785e+02	1.04300e+03	2.88742	311.5
1045	3.15785e+02	1.04500e+03	2.88397	312.5
1047	3.16754e+02	1.04700e+03	2.88051	313.5
1049	3.17733e+02	1.04900e+03	2.87701	314.5
1051	3.18732e+02	1.05100e+03	2.87349	315.5
1053	3.19694e+02	1.05300e+03	2.8699	316.5
1055	3.20675e+02	1.05500e+03	2.86627	317.5
1057	3.21638e+02	1.05700e+03	2.86254	318.5
1059	3.22613e+02	1.05900e+03	2.8588	319.5
1061	3.23595e+02	1.06100e+03	2.85496	320.5
1063	3.24575e+02	1.06300e+03	2.8511	321.5
1065	3.25544e+02	1.06500e+03	2.84718	322.5
1067	3.26496e+02	1.06700e+03	2.84326	323.5
1069	3.27459e+02	1.06900e+03	2.83924	324.5
1071	3.28424e+02	1.07100e+03	2.83514	325.5
1073	3.29329e+02	1.07300e+03	2.83088	326.5
1075	3.30228e+02	1.07500e+03	2.82657	327.5
1077	3.31191e+02	1.07700e+03	2.82207	328.5
1079	3.32161e+02	1.07900e+03	2.81754	329.5
1081	3.33161e+02	1.08100e+03	2.81283	330.5
1083	3.34155e+02	1.08300e+03	2.80809	331.5
1085	3.35152e+02	1.08500e+03	2.80315	332.5
1087	3.36153e+02	1.08700e+03	2.79814	333.5
1089	3.37143e+02	1.08900e+03	2.79287	334.5
1091	3.38138e+02	1.09100e+03	2.78751	335.5
1093	3.39134e+02	1.09300e+03	2.78185	336.5
1095	3.40137e+02	1.09500e+03	2.77608	337.5
1097	3.41126e+02	1.09700e+03	2.76991	338.5
1099	3.42134e+02	1.09900e+03	2.76362	339.5
1101	3.43131e+02	1.10100e+03	2.75684	340.5
1103	3.44129e+02	1.10300e+03	2.74987	341.5
1105	3.45118e+02	1.10500e+03	2.74226	342.5
1107	3.46113e+02	1.10700e+03	2.73446	343.5
1109	3.47105e+02	1.10900e+03	2.72594	344.5
1111	3.48099e+02	1.11100e+03	2.71719	345.5
1113	3.49093e+02	1.11300e+03	2.70761	346.5
1115	3.50076e+02	1.11500e+03	2.6978	347.5
1117	3.51071e+02	1.11700e+03	2.68706	348.5
1119	3.52057e+02	1.11900e+03	2.67607	349.5
1121	3.53057e+02	1.12100e+03	2.66404	350.5
1123	3.54050e+02	1.12300e+03	2.65169	351.5
1125	3.55043e+02	1.12500e+03	2.63812	352.5
1127	3.56036e+02	1.12700e+03	2.62414	353.5
1129	3.57029e+02	1.12900e+03	2.60865	354.5
1131	3.58023e+02	1.13100e+03	2.59261	355.5
1133	3.59002e+02	1.13300e+03	2.57464	356.5
1135	3.59985e+02	1.13500e+03	2.55605	357.5
1137	3.60969e+02	1.13700e+03	2.53522	358.5
1139	3.61960e+02	1.13900e+03	2.51383	359.5
1141	3.62954e+02	1.14100e+03	2.49022	360.5
1143	3.63956e+02	1.14300e+03	2.46622	361.5
1145	3.64966e+02	1.14500e+03	2.44017	362.5
1147	3.65942e+02	1.14700e+03	2.41358	363.5
1149	3.66930e+02	1.14900e+03	2.3848	364.5
1151	3.67914e+02	1.15100e+03	2.35541	365.5
1153	3.68912e+02	1.15300e+03	2.32367	366.5
1155	3.69891e+02	1.15500e+03	2.29141	367.5
1157	3.70892e+02	1.15700e+03	2.25688	368.5
1159	3.71876e+02	1.15900e+03	2.22189	369.5
1161	3.72862e+02	1.16100e+03	2.18477	370.5
1163	3.73853e+02	1.16300e+03	2.14721	371.5
1165	3.74859e+02	1.16500e+03	2.10772	372.5
1167	3.75871e+02	1.16700e+03	2.0679	373.5
1169	3.76859e+02	1.16900e+03	2.02639	374.5
1171	3.77854e+02	1.17100e+03	1.98455	375.5
1173	3.78849e+02	1.17300e+03	1.94117	376.5
1175	3.79859e+02	1.17500e+03	1.89747	377.5
1177	3.80872e+02	1.17700e+03	1.85223	378.5
1179	3.81890e+02	1.17900e+03	1.80652	379.5
1181	3.82884e+02	1.18100e+03	1.75913	380.5
1183	3.83891e+02	1.18300e+03	1.71139	381.5
1185	3.84883e+02	1.18500e+03	1.66221	382.5
1187	3.85896e+02	1.18700e+03	1.61297	383.5
1189	3.86894e+02	1.18900e+03	1.56283	384.5
1191	3.87921e+02	1.19100e+03	1.51266	385.5
1193	3.88923e+02	1.19300e+03	1.46194	386.5
1195	3.89914e+02	1.19500e+03	1.41121	387.5
1197	3.90916e+02	1.19700e+03	1.36012	388.5
1199	3.91906e+02	1.19900e+03	1.30901	389.5
1201	3.92918e+02	1.20100e+03	1.25765	390.5
1203	3.93916e+02	1.20300e+03	1.20629	391.5
1205	3.94916e+02	1.20500e+03	1.1548	392.5
1207	3.95927e+02	1.20700e+03	1.10336	393.5
1209	3.96925e+02	1.20900e+03	1.05187	394.5
1211	3.97923e+02	1.21100e+03	1.00022	395.5
1213	3.98936e+02	1.21300e+03	0.94806	396.5
1215	3.99945e+02	1.21500e+03	0.895437	397.5
1217	4.00965e+02	1.21700e+03	0.841851	398.5
1219	4.01981e+02	1.21900e+03	0.788195	399.5
1221	4.02998e+02	1.22100e+03	0.734087	400.5
1223	4.04012e+02	1.22300e+03	0.680387	401.5
1225	4.05032e+02	1.22500e+03	0.627584	402.5
1227	4.06075e+02	1.22700e+03	0.575865	403.5
1229	4.07101e+02	1.22900e+03	0.526914	404.5
1231	4.08118e+02	1.23100e+03	0.479371	405.5
1233	4.09147e+02	1.23300e+03	0.435706	406.5
1235	4.10182e+02	1.23500e+03	0.393958	407.5
1237	4.11213e+02	1.23700e+03	0.356231	408.5
1239	4.12242e+02	1.23900e+03	0.320457	409.5
1241	4.13270e+02	1.24100e+03	0.288908	410.5
1243	4.14290e+02	1.24300e+03	0.258547	411.5
1245	4.15323e+02	1.24500e+03	0.232442	412.5
1247	4.16360e+02	1.24700e+03	0.207184	413.5
1249	4.17382e+02	1.24900e+03	0.185771	414.5
1251	4.18401e+02	1.25100e+03	0.165027	415.5
1253	4.19439e+02	1.25300e+03	0.147657	416.5
1255	4.20451e+02	1.25500e+03	0.130911	417.5
1257	4.21498e+02	1.25700e+03	0.117116	418.5
1259	4.22509e+02	1.25900e+03	0.103775	419.5
1261	4.23531e+02	1.26100e+03	0.0928859	420.5
1263	4.24552e+02	1.26300e+03	0.0823718	421.5
1265	4.25555e+02	1.26500e+03	0.0738541	422.5
1267	4.26575e+02	1.26700e+03	0.0656124	423.5
1269	4.27604e+02	1.26900e+03	0.0589963	424.5
1271	4.28621e+02	1.27100e+03	0.052631	425.5
1273	4.29631e+02	1.27300e+03	0.0475965	426.5
1275	4.30623e+02	1.27500e+03	0.0427208	427.5
1277	4.31638e+02	1.27700e+03	0.0388567	428.5
1279	4.32637e+02	1.27900e+03	0.0350811	429.5
1281	4.33658e+02	1.28100e+03	0.0320199	430.5
1283	4.34666e+02	1.28300e+03	0.0290375	431.5
1285	4.35671e+02	1.28500e+03	0.0265973	432.5
1287	4.36652e+02	1.28700e+03	0.0242397	433.5
1289	4.37645e+02	1.28900e+03	0.0223251	434.5
1291	4.38633e+02	1.29100e+03	0.0204591	435.5
1293	4.39629e+02	1.29300e+03	0.0189222	436.5
1295	4.40617e+02	1.29500e+03	0.0174173	437.5
1297	4.41620e+02	1.29700e+03	0.0161532	438.5
1299	4.42599e+02	1.29900e+03	0.0149192	439.5
1301	4.43585e+02	1.30100e+03	0.0138471	440.5
1303	4.44568e+02	1.30300e+03	0.0127781	441.5
1305	4.45565e+02	1.30500e+03	0.0118111	442.5
1307	4.46551e+02	1.30700e+03	0.0108674	443.5
1309	4.47543e+02	1.30900e+03	0.010023	444.5
1311	4.48506e+02	1.31100e+03	0.00922076	445.5
1313	4.49495e+02	1.31300e+03	0.00858547	446.5
1315	4.50485e+02	1.31500e+03	0.00802353	447.5
1317	4.51495e+02	1.31700e+03	0.00763833	448.5
1319	4.52493e+02	1.31900e+03	0.00722861	449.5
1321	4.53490e+02	1.32100e+03	0.00688363	450.5
1323	4.54487e+02	1.32300e+03	0.00654642	451.5
1325	4.55480e+02	1.32500e+03	0.00623879	452.5
1327	4.56446e+02	1.32700e+03	0.00594482	453.5
1329	4.57445e+02	1.32900e+03	0.00570692	454.5
1331	4.58430e+02	1.33100e+03	0.00550542	455.5
1333	4.59430e+02	1.33300e+03	0.00537841	456.5
1335	4.60450e+02	1.33500e+03	0.0052645	457.5
1337	4.61462e+02	1.33700e+03	0.00522776	458.5
1339	4.62471e+02	1.33900e+03	0.00521339	459.5
1341	4.63471e+02	1.34100e+03	0.00524454	460.5
1343	4.64449e+02	1.34300e+03	0.00524827	461.5
1345	4.65427e+02	1.34500e+03	0.00523208	462.5
1347	4.66406e+02	1.34700e+03	0.00520144	463.5
1349	4.67425e+02	1.34900e+03	0.00512736	464.5
1351	4.68403e+02	1.35100e+03	0.00504582	465.5
1353	4.69388e+02	1.35300e+03	0.00493842	466.5
1355	4.70383e+02	1.35500e+03	0.00483877	467.5
1357	4.71359e+02	1.35700e+03	0.00472967	468.5
1359	4.72355e+02	1.35900e+03	0.0046176	469.5
1361	4.73359e+02	1.36100e+03	0.00451355	470.5
1363	4.74341e+02	1.36300e+03	0.00442645	471.5
1365	4.75345e+02	1.36500e+03	0.00437269	472.5
1367	4.76323e+02	1.36700e+03	0.00432165	473.5
1369	4.77300e+02	1.36900e+03	0.00428977	474.5
1371	4.78263e+02	1.37100e+03	0.00426517	475.5
1373	4.79228e+02	1.37300e+03	0.00426128	476.5
1375	4.80216e+02	1.37500e+03	0.0042635	477.5
1377	4.81205e+02	1.37700e+03	0.00427814	478.5
1379	4.82187e+02	1.37900e+03	0.00428257	479.5
1381	4.83169e+02	1.38100e+03	0.00426923	480.5
1383	4.84165e+02	1.38300e+03	0.00424831	481.5
1385	4.85144e+02	1.38500e+03	0.00422759	482.5
1387	4.86116e+02	1.38700e+03	0.00422029	483.5
1389	4.87098e+02	1.38900e+03	0.00423385	484.5
1391	4.88080e+02	1.39100e+03	0.00423495	485.5
1393	4.89061e+02	1.39300e+03	0.0041984	486.5
1395	4.90044e+02	1.39500e+03	0.004127	487.5
1397	4.91038e+02	1.39700e+03	0.00400413	488.5
1399	4.92029e+02	1.39900e+03	0.00390459	489.5
1401	4.93017e+02	1.40100e+03	0.00381236	490.5
1403	4.93993e+02	1.40300e+03	0.00372949	491.5
1405	4.94994e+02	1.40500e+03	0.0036772	492.5
1407	4.95975e+02	1.40700e+03	0.00364127	493.5
1409	4.96951e+02	1.40900e+03	0.00362908	494.5
1411	4.97947e+02	1.41100e+03	0.0036028	495.5
1413	4.98925e+02	1.41300e+03	0.00357851	496.5
1415	4.99932e+02	1.41500e+03	0.00356007	497.5
1417	5.00918e+02	1.41700e+03	0.00353953	498.5
1419	5.01916e+02	1.41900e+03	0.00350951	499.5
1421	5.02912e+02	1.42100e+03	0.00347516	500.5
1423	5.03871e+02	1.42300e+03	0.00345047	501.5
1425	5.04882e+02	1.42500e+03	0.00343214	502.5
1427	5.05871e+02	1.42700e+03	0.00341273	503.5
1429	5.06859e+02	1.42900e+03	0.00340361	504.5
1431	5.07831e+02	1.43100e+03	0.00340052	505.5
1433	5.08802e+02	1.43300e+03	0.00340555	506.5
1435	5.09782e+02	1.43500e+03	0.00340501	507.5
1437	5.10749e+02	1.43700e+03	0.00341237	508.5
1439	5.11693e+02	1.43900e+03	0.00342417	509.5
1441	5.12672e+02	1.44100e+03	0.00342849	510.5
1443	5.13644e+02	1.44300e+03	0.00341565	511.5
1445	5.14591e+02	1.44500e+03	0.00338382	512.5
1447	5.15576e+02	1.44700e+03	0.00336279	513.5
1449	5.16571e+02	1.44900e+03	0.00333499	514.5
1451	5.17547e+02	1.45100e+03	0.00329653	515.5
1453	5.18540e+02	1.45300e+03	0.00324987	516.5
1455	5.19524e+02	1.45500e+03	0.00321364	517.5
1457	5.20510e+02	1.45700e+03	0.00319279	518.5
1459	5.21489e+02	1.45900e+03	0.00318168	519.5
1461	5.22465e+02	1.46100e+03	0.00318534	520.5
1463	5.23433e+02	1.46300e+03	0.00317982	521.5
1465	5.24415e+02	1.46500e+03	0.00316422	522.5
1467	5.25410e+02	1.46700e+03	0.00314683	523.5
1469	5.26405e+02	1.46900e+03	0.00311712	524.5
1471	5.27400e+02	1.47100e+03	0.00309146	525.5
1473	5.28397e+02	1.47300e+03	0.00307722	526.5
1475	5.29387e+02	1.47500e+03	0.00307477	527.5
1477	5.30405e+02	1.47700e+03	0.00308139	528.5
1479	5.31396e+02	1.47900e+03	0.00307228	529.5
1481	5.32454e+02	1.48100e+03	0.00306095	530.5
1483	5.33456e+02	1.48300e+03	0.00305653	531.5
1485	5.34532e+02	1.48500e+03	0.00303308	532.5
1487	5.35568e+02	1.48700e+03	0.00298978	533.5
1489	5.36615e+02	1.48900e+03	0.0029248	534.5
1491	5.37616e+02	1.49100e+03	0.00286954	535.5
1493	5.38596e+02	1.49300e+03	0.00280813	536.5
1495	5.39620e+02	1.49500e+03	0.00274428	537.5
1497	5.40622e+02	1.49700e+03	0.00270076	538.5
1499	5.41613e+02	1.49900e+03	0.00269108	539.5
1501	5.42598e+02	1.50100e+03	0.0027273	540.5
1503	5.43594e+02	1.50300e+03	0.00274261	541.5
1505	5.44603e+02	1.50500e+03	0.00276049	542.5
1507	5.45616e+02	1.50700e+03	0.00277657	543.5
1509	5.46603e+02	1.50900e+03	0.00278534	544.5
1511	5.47601e+02	1.51100e+03	0.00278583	545.5
1513	5.48577e+02	1.51300e+03	0.0027716	546.5
1515	5.49515e+02	1.51500e+03	0.00275074	547.5
1517	5.50504e+02	1.51700e+03	0.002706	548.5
1519	5.51471e+02	1.51900e+03	0.00265727	549.5
1521	5.52464e+02	1.52100e+03	0.00259507	550.5
1523	5.53425e+02	1.52300e+03	0.00254409	551.5
1525	5.54364e+02	1.52500e+03	0.00250488	552.5
1527	5.55352e+02	1.52700e+03	0.00247924	553.5
1529	5.56331e+02	1.52900e+03	0.00249906	554.5
1531	5.57327e+02	1.53100e+03	0.00253526	555.5
1533	5.58301e+02	1.53300e+03	0.00259832	556.5
1535	5.59310e+02	1.53500e+03	0.00262776	557.5
1537	5.60238e+02	1.53700e+03	0.00262117	558.5
1539	5.61193e+02	1.53900e+03	0.00260791	559.5
1541	5.62164e+02	1.54100e+03	0.00256741	560.5
1543	5.63137e+02	1.54300e+03	0.00253113	561.5
1545	5.64139e+02	1.54500e+03	0.00248991	562.5
1547	5.65080e+02	1.54700e+03	0.0024504	563.5
1549	5.66038e+02	1.54900e+03	0.00240988	564.5
1551	5.66969e+02	1.55100e+03	0.00237066	565.5
1553	5.67883e+02	1.55300e+03	0.00232925	566.5
1555	5.68754e+02	1.55500e+03	0.00228038	567.5
1557	5.69688e+02	1.55700e+03	0.00222007	568.5
1559	5.70571e+02	1.55900e+03	0.00216338	569.5
1561	5.71543e+02	1.56100e+03	0.00211192	570.5
1563	5.72450e+02	1.56300e+03	0.00206737	571.5
1565	5.73366e+02	1.56500e+03	0.00203058	572.5
1567	5.74280e+02	1.56700e+03	0.00199079	573.5
1569	5.75183e+02	1.56900e+03	0.00195388	574.5
1571	5.76097e+02	1.57100e+03	0.0019267	575.5
1573	5.77011e+02	1.57300e+03	0.00191679	576.5
1575	5.77931e+02	1.57500e+03	0.00190782	577.5
1577	5.78878e+02	1.57700e+03	0.00189734	578.5
1579	5.79842e+02	1.57900e+03	0.00187023	579.5
1581	5.80802e+02	1.58100e+03	0.00183534	580.5
1583	5.81770e+02	1.58300e+03	0.00181544	581.5
1585	5.82746e+02	1.58500e+03	0.00179472	582.5
1587	5.83725e+02	1.58700e+03	0.00176045	583.5
1589	5.84705e+02	1.58900e+03	0.00172246	584.5
1591	5.85688e+02	1.59100e+03	0.00170279	585.5
1593	5.86661e+02	1.59300e+03	0.00169727	586.5
1595	5.87635e+02	1.59500e+03	0.00168483	587.5
1597	5.88605e+02	1.59700e+03	0.00168121	588.5
1599	5.89595e+02	1.59900e+03	0.00167813	589.5
1601	5.90583e+02	1.60100e+03	0.0016645	590.5
1603	5.91553e+02	1.60300e+03	0.00163136	591.5
1605	5.92529e+02	1.60500e+03	0.00158554	592.5
1607	5.93523e+02	1.60700e+03	0.00156278	593.5
1609	5.94524e+02	1.60900e+03	0.00156211	594.5
1611	5.95513e+02	1.61100e+03	0.00156114	595.5
1613	5.96498e+02	1.61300e+03	0.00158279	596.5
1615	5.97503e+02	1.61500e+03	0.00160805	597.5
1617	5.98501e+02	1.61700e+03	0.00164711	598.5
1619	5.99505e+02	1.61900e+03	0.00168918	599.5
1621	6.00518e+02	1.62100e+03	0.00175287	600.5
1623	6.01513e+02	1.62300e+03	0.00181477	601.5
1625	6.02500e+02	1.62500e+03	0.00184996	602.5
1627	6.03501e+02	1.62700e+03	0.00183728	603.5
1629	6.04495e+02	1.62900e+03	0.0017393	604.5
1631	6.05509e+02	1.63100e+03	0.00164925	605.5
1633	6.06507e+02	1.63300e+03	0.0015308	606.5
1635	6.07493e+02	1.63500e+03	0.00142763	607.5
1637	6.08475e+02	1.63700e+03	0.00131972	608.5
1639	6.09483e+02	1.63900e+03	0.001208	609.5
1641	6.10473e+02	1.64100e+03	0.00111641	610.5
1643	6.11493e+02	1.64300e+03	0.00106564	611.5
1645	6.12537e+02	1.64500e+03	0.00110346	612.5
1647	6.13590e+02	1.64700e+03	0.00115556	613.5
1649	6.14618e+02	1.64900e+03	0.00127678	614.5
1651	6.15662e+02	1.65100e+03	0.00138743	615.5
1653	6.16755e+02	1.65300e+03	0.00149245	616.5
1655	6.17850e+02	1.65500e+03	0.00155498	617.5
1657	6.18956e+02	1.65700e+03	0.00153348	618.5
1659	6.20090e+02	1.65900e+03	0.00149881	619.5
1661	6.21178e+02	1.66100e+03	0.00139707	620.5
1663	6.22180e+02	1.66300e+03	0.0013074	621.5
1665	6.23130e+02	1.66500e+03	0.00123675	622.5
1667	6.24143e+02	1.66700e+03	0.00121249	623.5
1669	6.25143e+02	1.66900e+03	0.0012686	624.5
1671	6.26166e+02	1.67100e+03	0.00130637	625.5
1673	6.27179e+02	1.67300e+03	0.00132311	626.5
1675	6.28214e+02	1.67500e+03	0.0012898	627.5
1677	6.29166e+02	1.67700e+03	0.00117619	628.5
1679	6.30173e+02	1.67900e+03	0.00108274	629.5
1681	6.31168e+02	1.68100e+03	0.00101073	630.5
1683	6.32161e+02	1.68300e+03	0.000971025	631.5
1685	6.33148e+02	1.68500e+03	0.000967299	632.5
1687	6.34178e+02	1.68700e+03	0.000933022	633.5
1689	6.35170e+02	1.68900e+03	0.000923546	634.5
1691	6.36156e+02	1.69100e+03	0.000959834	635.5
1693	6.37195e+02	1.69300e+03	0.00102496	636.5
1695	6.38215e+02	1.69500e+03	0.00103885	637.5
1697	6.39177e+02	1.69700e+03	0.00098357	638.5
1699	6.40167e+02	1.69900e+03	0.000912833	639.5
1701	6.41144e+02	1.70100e+03	0.000800905	640.5
1703	6.42095e+02	1.70300e+03	0.000731844	641.5
1705	6.43049e+02	1.70500e+03	0.000704312	642.5
1707	6.44040e+02	1.70700e+03	0.000666336	643.5
1709	6.45009e+02	1.70900e+03	0.000632921	644.5
1711	6.45994e+02	1.71100e+03	0.000595727	645.5
1713	6.46968e+02	1.71300e+03	0.000576834	646.5
1715	6.47944e+02	1.71500e+03	0.000583954	647.5
1717	6.48922e+02	1.71700e+03	0.000630061	648.5
1719	6.49901e+02	1.71900e+03	0.000653649	649.5
1721	6.50864e+02	1.72100e+03	0.000653538	650.5
1723	6.51825e+02	1.72300e+03	0.000637517	651.5
1725	6.52797e+02	1.72500e+03	0.000583029	652.5
1727	6.53769e+02	1.72700e+03	0.00053803	653.5
1729	6.54752e+02	1.72900e+03	0.000481493	654.5
1731	6.55716e+02	1.73100e+03	0.000436704	655.5
1733	6.56691e+02	1.73300e+03	0.000407643	656.5
1735	6.57666e+02	1.73500e+03	0.000376782	657.5
1737	6.58653e+02	1.73700e+03	0.000312475	658.5
1739	6.59614e+02	1.73900e+03	0.000218963	659.5
1741	6.60592e+02	1.74100e+03	8.13077e-05	660.5
1743	6.61571e+02	1.74300e+03	-2.19206e-05	661.5
1745	6.62553e+02	1.74500e+03	-9.44359e-05	662.5
1747	6.63537e+02	1.74700e+03	-0.00015102	663.5
1749	6.64517e+02	1.74900e+03	-0.000123371	664.5
1751	6.65488e+02	1.75100e+03	-5.65032e-05	665.5
1753	6.66477e+02	1.75300e+03	6.5287e-05	666.5
1755	6.67469e+02	1.75500e+03	0.000130534	667.5
1757	6.68457e+02	1.75700e+03	0.000168912	668.5
1759	6.69450e+02	1.75900e+03	0.000217226	669.5
1761	6.70444e+02	1.76100e+03	0.00024716	670.5
1763	6.71431e+02	1.76300e+03	0.00025874	671.5
1765	6.72427e+02	1.76500e+03	0.000245883	672.5
1767	6.73422e+02	1.76700e+03	0.000232315	673.5
1769	6.74405e+02	1.76900e+03	0.000189824	674.5
1771	6.75403e+02	1.77100e+03	0.000142807	675.5
1773	6.76399e+02	1.77300e+03	0.000100176	676.5
1775	6.77391e+02	1.77500e+03	9.99365e-05	677.5
1777	6.78384e+02	1.77700e+03	0.000139205	678.5
1779	6.79379e+02	1.77900e+03	0.000152125	679.5
1781	6.80374e+02	1.78100e+03	0.000136437	680.5
1783	6.81371e+02	1.78300e+03	0.000113807	681.5
1785	6.82358e+02	1.78500e+03	8.09976e-05	682.5
1787	6.83363e+02	1.78700e+03	7.68261e-05	683.5
1789	6.84358e+02	1.78900e+03	0.000102861	684.5
1791	6.85345e+02	1.79100e+03	0.000110884	685.5
1793	6.86344e+02	1.79300e+03	0.00010395	686.5
1795	6.87019e+02	1.79500e+03	9.18397e-05	687.5
1797	6.87504e+02	1.79700e+03	8.74223e-05	688.5
1799	6.88240e+02	1.79900e+03	9.88001e-05	689.5
1801	6.88940e+02	1.80100e+03	0.000126697	690.5
1803	6.89594e+02	1.80300e+03	0.000109984	691.5
1805	6.90201e+02	1.80500e+03	4.84864e-05	692.5
1807	6.90785e+02	1.80700e+03	-2.80557e-05	693.5
1809	6.91315e+02	1.80900e+03	-0.000129515	694.5
1811	6.91820e+02	1.81100e+03	-0.000198806	695.5
1813	6.92303e+02	1.81300e+03	-0.000228148	696.5
1815	6.92760e+02	1.81500e+03	-0.000230577	697.5
1817	6.93197e+02	1.81700e+03	-0.000171481	698.5
1819	6.93595e+02	1.81900e+03	-0.000123494	699.5
1821	6.93962e+02	1.82100e+03	-7.3142e-05	700.0
1823	6.94331e+02	1.82300e+03	-5.27924e-05	700.0
1825	6.94673e+02	1.82500e+03	-6.10325e-05	700.0
1827	6.94996e+02	1.82700e+03	-5.58211e-05	700.0
1829	6.95294e+02	1.82900e+03	-8.61218e-05	700.0
1831	6.95586e+02	1.83100e+03	-0.000151403	700.0
1833	6.95835e+02	1.83300e+03	-0.00025365	700.0
1835	6.96085e+02	1.83500e+03	-0.000308634	700.0
1837	6.96316e+02	1.83700e+03	-0.000314803	700.0
1839	6.96516e+02	1.83900e+03	-0.000320643	700.0
1841	6.96737e+02	1.84100e+03	-0.000304841	700.0
1843	6.96943e+02	1.84300e+03	-0.000313173	700.0
1845	6.97134e+02	1.84500e+03	-0.000341535	700.0
1847	6.97306e+02	1.84700e+03	-0.000363404	700.0
1849	6.97478e+02	1.84900e+03	-0.000373306	700.0
1851	6.97641e+02	1.85100e+03	-0.000369499	700.0
1853	6.97801e+02	1.85300e+03	-0.000358584	700.0
1855	6.97933e+02	1.85500e+03	-0.000364798	700.0
1857	6.98069e+02	1.85700e+03	-0.000380143	700.0
1859	6.98183e+02	1.85900e+03	-0.000385767	700.0
1861	6.98293e+02	1.86100e+03	-0.000385287	700.0
1863	6.98402e+02	1.86300e+03	-0.000396239	700.0
1865	6.98508e+02	1.86500e+03	-0.000411949	700.0
1867	6.98616e+02	1.86700e+03	-0.000430553	700.0
1869	6.98717e+02	1.86900e+03	-0.000456233	700.0
1871	6.98806e+02	1.87100e+03	-0.000476963	700.0
1873	6.98891e+02	1.87300e+03	-0.000494862	700.0
1875	6.98973e+02	1.87500e+03	-0.000511061	700.0
1877	6.99051e+02	1.87700e+03	-0.000517355	700.0
1879	6.99133e+02	1.87900e+03	-0.000525462	700.0
1881	6.99194e+02	1.88100e+03	-0.000514683	700.0
1883	6.99264e+02	1.88300e+03	-0.000498803	700.0
1885	6.99341e+02	1.88500e+03	-0.000472082	700.0
1887	6.99403e+02	1.88700e+03	-0.0004508	700.0
1889	6.99458e+02	1.88900e+03	-0.000450488	700.0
1891	6.99523e+02	1.89100e+03	-0.000458576	700.0
1893	6.99577e+02	1.89300e+03	-0.000484071	700.0
1895	6.99630e+02	1.89500e+03	-0.000496753	700.0
1897	6.99679e+02	1.89700e+03	-0.000500368	700.0
1899	6.99724e+02	1.89900e+03	-0.000499912	700.0
1901	6.99777e+02	1.90100e+03	-0.000478056	700.0
1903	6.99819e+02	1.90300e+03	-0.000457308	700.0
1905	6.99858e+02	1.90500e+03	-0.00044988	700.0
1907	6.99888e+02	1.90700e+03	-0.000474773	700.0
1909	6.99932e+02	1.90900e+03	-0.00054821	700.0
1911	6.99973e+02	1.91100e+03	-0.000613377	700.0
1913	7.00004e+02	1.91300e+03	-0.000690304	700.0
1915	7.00040e+02	1.91500e+03	-0.000742431	700.0
1917	7.00072e+02	1.91700e+03	-0.00074457	700.0
1919	7.00106e+02	1.91900e+03	-0.000729686	700.0
1921	7.00133e+02	1.92100e+03	-0.000687009	700.0
1923	7.00155e+02	1.92300e+03	-0.000673748	700.0
1925	7.00191e+02	1.92500e+03	-0.000681818	700.0
1927	7.00213e+02	1.92700e+03	-0.000682335	700.0
1929	7.00244e+02	1.92900e+03	-0.000679366	700.0
1931	7.00270e+02	1.93100e+03	-0.000671398	700.0
1933	7.00285e+02	1.93300e+03	-0.000659285	700.0
1935	7.00312e+02	1.93500e+03	-0.000654675	700.0
1937	7.00328e+02	1.93700e+03	-0.00066175	700.0
1939	7.00354e+02	1.93900e+03	-0.000671563	700.0
1941	7.00374e+02	1.94100e+03	-0.00069206	700.0
1943	7.00394e+02	1.94300e+03	-0.000711752	700.0
1945	7.00414e+02	1.94500e+03	-0.0007359	700.0
1947	7.00428e+02	1.94700e+03	-0.000758143	700.0
1949	7.00447e+02	1.94900e+03	-0.000776562	700.0
1951	7.00464e+02	1.95100e+03	-0.000790752	700.0
1953	7.00476e+02	1.95300e+03	-0.000794074	700.0
1955	7.00494e+02	1.95500e+03	-0.000792633	700.0
1957	7.00506e+02	1.95700e+03	-0.000761088	700.0
1959	7.00524e+02	1.95900e+03	-0.000719654	700.0
1961	7.00539e+02	1.96100e+03	-0.000654266	700.0
1963	7.00549e+02	1.96300e+03	-0.000625301	700.0
1965	7.00569e+02	1.96500e+03	-0.000634467	700.0
1967	7.00581e+02	1.96700e+03	-0.000660415	700.0
1969	7.00592e+02	1.96900e+03	-0.000714661	700.0
1971	7.00604e+02	1.97100e+03	-0.000742322	700.0
1973	7.00616e+02	1.97300e+03	-0.00075541	700.0
1975	7.00621e+02	1.97500e+03	-0.000773361	700.0
1977	7.00632e+02	1.97700e+03	-0.000790047	700.0
1979	7.00635e+02	1.97900e+03	-0.000808198	700.0
1981	7.00654e+02	1.98100e+03	-0.000826462	700.0
1983	7.00658e+02	1.98300e+03	-0.000845212	700.0
1985	7.00681e+02	1.98500e+03	-0.000870704	700.0
1987	7.00677e+02	1.98700e+03	-0.000911973	700.0
1989	7.00690e+02	1.98900e+03	-0.000971593	700.0
1991	7.00696e+02	1.99100e+03	-0.00101709	700.0
1993	7.00710e+02	1.99300e+03	-0.00103183	700.0
1995	7.00710e+02	1.99500e+03	-0.00101966	700.0
1997	7.00721e+02	1.99700e+03	-0.000969642	700.0
1999	7.00731e+02	1.99900e+03	-0.000940486	700.0
2001	7.00733e+02	2.00100e+03	-0.000906961	700.0
2003	7.00744e+02	2.00300e+03	-0.000872133	700.0
2005	7.00739e+02	2.00500e+03	-0.000842513	700.0
2007	7.00753e+02	2.00700e+03	-0.000824637	700.0
2009	7.00764e+02	2.00900e+03	-0.00082836	700.0
2011	7.00783e+02	2.01100e+03	-0.000833777	700.0
2013	7.00774e+02	2.01300e+03	-0.000865336	700.0
2015	7.00787e+02	2.01500e+03	-0.000907143	700.0
2017	7.00787e+02	2.01700e+03	-0.000963191	700.0
2019	7.00787e+02	2.01900e+03	-0.00100666	700.0
2021	7.00795e+02	2.02100e+03	-0.00104479	700.0
2023	7.00803e+02	2.02300e+03	-0.00108367	700.0
2025	7.00810e+02	2.02500e+03	-0.00111679	700.0
2027	7.00818e+02	2.02700e+03	-0.00113998	700.0
2029	7.00810e+02	2.02900e+03	-0.0011567	700.0
2031	7.00824e+02	2.03100e+03	-0.00117304	700.0
2033	7.00815e+02	2.03300e+03	-0.00117722	700.0
2035	7.00833e+02	2.03500e+03	-0.00116834	700.0
2037	7.00831e+02	2.03700e+03	-0.00114745	700.0
2039	7.00837e+02	2.03900e+03	-0.00113192	700.0
2041	7.00837e+02	2.04100e+03	-0.00112201	700.0
2043	7.00838e+02	2.04300e+03	-0.00112185	700.0
2045	7.00845e+02	2.04500e+03	-0.00113979	700.0
2047	7.00856e+02	2.04700e+03	-0.00115632	700.0
2049	7.00860e+02	2.04900e+03	-0.00118029	700.0
2051	7.00853e+02	2.05100e+03	-0.0012028	700.0
2053	7.00864e+02	2.05300e+03	-0.00122761	700.0
2055	7.00863e+02	2.05500e+03	-0.00125157	700.0
2057	7.00859e+02	2.05700e+03	-0.00127193	700.0
2059	7.00871e+02	2.05900e+03	-0.00128334	700.0
2061	7.00867e+02	2.06100e+03	-0.00126826	700.0
2063	7.00866e+02	2.06300e+03	-0.00125288	700.0
2065	7.00875e+02	2.06500e+03	-0.00122931	700.0
2067	7.00881e+02	2.06700e+03	-0.00122291	700.0
2069	7.00885e+02	2.06900e+03	-0.00123934	700.0
2071	7.00876e+02	2.07100e+03	-0.00125774	700.0
2073	7.00877e+02	2.07300e+03	-0.00129367	700.0
2075	7.00891e+02	2.07500e+03	-0.00133284	700.0
2077	7.00878e+02	2.07700e+03	-0.00137841	700.0
2079	7.00884e+02	2.07900e+03	-0.00141094	700.0
2081	7.00886e+02	2.08100e+03	-0.00144218	700.0
2083	7.00901e+02	2.08300e+03	-0.00147445	700.0
2085	7.00897e+02	2.08500e+03	-0.00149056	700.0
2087	7.00899e+02	2.08700e+03	-0.00149799	700.0
2089	7.00900e+02	2.08900e+03	-0.00149075	700.0
2091	7.00899e+02	2.09100e+03	-0.00149089	700.0
2093	7.00900e+02	2.09300e+03	-0.00148618	700.0
2095	7.00909e+02	2.09500e+03	-0.00147954	700.0
2097	7.00896e+02	2.09700e+03	-0.00147717	700.0
2099	7.00911e+02	2.09900e+03	-0.00148018	700.0
2101	7.00904e+02	2.10100e+03	-0.00149294	700.0
2103	7.00909e+02	2.10300e+03	-0.00150961	700.0
2105	7.00915e+02	2.10500e+03	-0.00154665	700.0
2107	7.00909e+02	2.10700e+03	-0.00159105	700.0
2109	7.00909e+02	2.10900e+03	-0.00164604	700.0
2111	7.00902e+02	2.11100e+03	-0.00167522	700.0
2113	7.00912e+02	2.11300e+03	-0.00166695	700.0
2115	7.00912e+02	2.11500e+03	-0.00165709	700.0
2117	7.00922e+02	2.11700e+03	-0.00162485	700.0
2119	7.00926e+02	2.11900e+03	-0.00159577	700.0
2121	7.00919e+02	2.12100e+03	-0.00157601	700.0
2123	7.00915e+02	2.12300e+03	-0.00157156	700.0
2125	7.00913e+02	2.12500e+03	-0.00159804	700.0
2127	7.00918e+02	2.12700e+03	-0.00162714	700.0
2129	7.00922e+02	2.12900e+03	-0.00166587	700.0
2131	7.00920e+02	2.13100e+03	-0.00168815	700.0
2133	7.00920e+02	2.13300e+03	-0.0016859	700.0
2135	7.00911e+02	2.13500e+03	-0.00168162	700.0
2137	7.00922e+02	2.13700e+03	-0.00166024	700.0
2139	7.00923e+02	2.13900e+03	-0.00164359	700.0
2141	7.00926e+02	2.14100e+03	-0.00164565	700.0
2143	7.00921e+02	2.14300e+03	-0.00167479	700.0
2145	7.00923e+02	2.14500e+03	-0.00174569	700.0
2147	7.00920e+02	2.14700e+03	-0.00181439	700.0
2149	7.00920e+02	2.14900e+03	-0.00189819	700.0
2151	7.00926e+02	2.15100e+03	-0.00196817	700.0
2153	7.00925e+02	2.15300e+03	-0.00200649	700.0
2155	7.00922e+02	2.15500e+03	-0.0020183	700.0
2157	7.00915e+02	2.15700e+03	-0.00199308	700.0
2159	7.00920e+02	2.15900e+03	-0.0019773	700.0
2161	7.00914e+02	2.16100e+03	-0.00193564	700.0
2163	7.00927e+02	2.16300e+03	-0.0018888	700.0
2165	7.00922e+02	2.16500e+03	-0.00182671	700.0
2167	7.00922e+02	2.16700e+03	-0.00177954	700.0
2169	7.00920e+02	2.16900e+03	-0.0017505	700.0
2171	7.00921e+02	2.17100e+03	-0.00172812	700.0
2173	7.00918e+02	2.17300e+03	-0.00173195	700.0
2175	7.00912e+02	2.17500e+03	-0.00174242	700.0
2177	7.00918e+02	2.17700e+03	-0.00176364	700.0
2179	7.00923e+02	2.17900e+03	-0.00178027	700.0
2181	7.00919e+02	2.18100e+03	-0.00181366	700.0
2183	7.00921e+02	2.18300e+03	-0.00185878	700.0
2185	7.00927e+02	2.18500e+03	-0.00191548	700.0
2187	7.00920e+02	2.18700e+03	-0.00195575	700.0
2189	7.00925e+02	2.18900e+03	-0.00197644	700.0
2191	7.00917e+02	2.19100e+03	-0.00199426	700.0
2193	7.00918e+02	2.19300e+03	-0.00198898	700.0
2195	7.00916e+02	2.19500e+03	-0.00196511	700.0
2197	7.00918e+02	2.19700e+03	-0.00191526	700.0
2199	7.00910e+02	2.19900e+03	-0.0018871	700.0
2201	7.00912e+02	2.20100e+03	-0.00187148	700.0
2203	7.00921e+02	2.20300e+03	-0.00185412	700.0
2205	7.00915e+02	2.20500e+03	-0.00184369	700.0
2207	7.00920e+02	2.20700e+03	-0.00181047	700.0
2209	7.00914e+02	2.20900e+03	-0.00176471	700.0
2211	7.00912e+02	2.21100e+03	-0.00173482	700.0
2213	7.00914e+02	2.21300e+03	-0.00172452	700.0
2215	7.00908e+02	2.21500e+03	-0.00172074	700.0
2217	7.00910e+02	2.21700e+03	-0.00173786	700.0
2219	7.00908e+02	2.21900e+03	-0.00175304	700.0
2221	7.00911e+02	2.22100e+03	-0.00177276	700.0
2223	7.00912e+02	2.22300e+03	-0.00178682	700.0
2225	7.00907e+02	2.22500e+03	-0.00179428	700.0
2227	7.00907e+02	2.22700e+03	-0.00180266	700.0
2229	7.00906e+02	2.22900e+03	-0.00181204	700.0
2231	7.00915e+02	2.23100e+03	-0.00182558	700.0
2233	7.00897e+02	2.23300e+03	-0.001846	700.0
2235	7.00908e+02	2.23500e+03	-0.00186666	700.0
2237	7.00895e+02	2.23700e+03	-0.0018925	700.0
2239	7.00900e+02	2.23900e+03	-0.00192123	700.0
2241	7.00898e+02	2.24100e+03	-0.00195748	700.0
2243	7.00896e+02	2.24300e+03	-0.0019842	700.0
2245	7.00900e+02	2.24500e+03	-0.00199444	700.0
2247	7.00893e+02	2.24700e+03	-0.00199009	700.0
2249	7.00900e+02	2.24900e+03	-0.00197459	700.0
2251	7.00900e+02	2.25100e+03	-0.0019883	700.0
2253	7.00897e+02	2.25300e+03	-0.00202345	700.0
2255	7.00886e+02	2.25500e+03	-0.00205573	700.0
2257	7.00900e+02	2.25700e+03	-0.00209468	700.0
2259	7.00894e+02	2.25900e+03	-0.00212288	700.0
2261	7.00892e+02	2.26100e+03	-0.00211444	700.0
2263	7.00891e+02	2.26300e+03	-0.00208486	700.0
2265	7.00902e+02	2.26500e+03	-0.00202311	700.0
2267	7.00896e+02	2.26700e+03	-0.00199214	700.0
2269	7.00899e+02	2.26900e+03	-0.00198564	700.0
2271	7.00893e+02	2.27100e+03	-0.00197789	700.0
2273	7.00893e+02	2.27300e+03	-0.00200076	700.0
2275	7.00898e+02	2.27500e+03	-0.0020249	700.0
2277	7.00892e+02	2.27700e+03	-0.00206516	700.0
2279	7.00894e+02	2.27900e+03	-0.00210483	700.0
2281	7.00894e+02	2.28100e+03	-0.00214358	700.0
2283	7.00888e+02	2.28300e+03	-0.00216863	700.0
2285	7.00900e+02	2.28500e+03	-0.00216288	700.0
2287	7.00884e+02	2.28700e+03	-0.00214062	700.0
2289	7.00890e+02	2.28900e+03	-0.00210757	700.0
2291	7.00886e+02	2.29100e+03	-0.00210182	700.0
2293	7.00885e+02	2.29300e+03	-0.00211902	700.0
2295	7.00891e+02	2.29500e+03	-0.0021231	700.0
2297	7.00897e+02	2.29700e+03	-0.00212584	700.0
2299	7.00886e+02	2.29900e+03	-0.00212035	700.0
2301	7.00890e+02	2.30100e+03	-0.00209882	700.0
2303	7.00889e+02	2.30300e+03	-0.00207369	700.0
2305	7.00888e+02	2.30500e+03	-0.00203125	700.0
2307	7.00886e+02	2.30700e+03	-0.0019916	700.0
2309	7.00878e+02	2.30900e+03	-0.00195655	700.0
2311	7.00887e+02	2.31100e+03	-0.0019445	700.0
2313	7.00885e+02	2.31300e+03	-0.00197523	700.0
2315	7.00880e+02	2.31500e+03	-0.00200949	700.0
2317	7.00881e+02	2.31700e+03	-0.00206681	700.0
2319	7.00882e+02	2.31900e+03	-0.00211322	700.0
2321	7.00887e+02	2.32100e+03	-0.00214953	700.0
2323	7.00879e+02	2.32300e+03	-0.00217783	700.0
2325	7.00884e+02	2.32500e+03	-0.00218564	700.0
2327	7.00880e+02	2.32700e+03	-0.00218558	700.0
2329	7.00885e+02	2.32900e+03	-0.00215404	700.0
2331	7.00878e+02	2.33100e+03	-0.00213045	700.0
2333	7.00883e+02	2.33300e+03	-0.0021146	700.0
2335	7.00883e+02	2.33500e+03	-0.00211417	700.0
2337	7.00886e+02	2.33700e+03	-0.0021397	700.0
2339	7.00881e+02	2.33900e+03	-0.00215665	700.0
2341	7.00887e+02	2.34100e+03	-0.00218264	700.0
2343	7.00879e+02	2.34300e+03	-0.00221776	700.0
2345	7.00889e+02	2.34500e+03	-0.0022567	700.0
2347	7.00888e+02	2.34700e+03	-0.00227361	700.0
2349	7.00887e+02	2.34900e+03	-0.00227402	700.0
2351	7.00885e+02	2.35100e+03	-0.00227532	700.0
2353	7.00883e+02	2.35300e+03	-0.00226992	700.0
2355	7.00879e+02	2.35500e+03	-0.00227432	700.0
2357	7.00885e+02	2.35700e+03	-0.00228383	700.0
2359	7.00880e+02	2.35900e+03	-0.00228456	700.0
2361	7.00884e+02	2.36100e+03	-0.00226277	700.0
2363	7.00879e+02	2.36300e+03	-0.00221944	700.0
2365	7.00884e+02	2.36500e+03	-0.00215853	700.0
2367	7.00885e+02	2.36700e+03	-0.00211748	700.0
2369	7.00875e+02	2.36900e+03	-0.00209431	700.0
2371	7.00882e+02	2.37100e+03	-0.00207503	700.0
2373	7.00881e+02	2.37300e+03	-0.00207781	700.0
2375	7.00886e+02	2.37500e+03	-0.0020896	700.0
2377	7.00883e+02	2.37700e+03	-0.00212019	700.0
2379	7.00882e+02	2.37900e+03	-0.0021369	700.0
2381	7.00880e+02	2.38100e+03	-0.00214647	700.0
2383	7.00882e+02	2.38300e+03	-0.0021644	700.0
2385	7.00877e+02	2.38500e+03	-0.00218906	700.0
2387	7.00881e+02	2.38700e+03	-0.00221691	700.0
2389	7.00881e+02	2.38900e+03	-0.00224046	700.0
2391	7.00879e+02	2.39100e+03	-0.00225683	700.0
2393	7.00879e+02	2.39300e+03	-0.00227885	700.0
2395	7.00881e+02	2.39500e+03	-0.00231715	700.0
2397	7.00875e+02	2.39700e+03	-0.00237502	700.0
2399	7.00887e+02	2.39900e+03	-0.00240163	700.0
2401	7.00874e+02	2.40100e+03	-0.00239212	700.0
2403	7.00876e+02	2.40300e+03	-0.00237126	700.0
2405	7.00875e+02	2.40500e+03	-0.0023175	700.0
2407	7.00871e+02	2.40700e+03	-0.00228099	700.0
2409	7.00874e+02	2.40900e+03	-0.00226008	700.0
2411	7.00873e+02	2.41100e+03	-0.0022387	700.0
2413	7.00870e+02	2.41300e+03	-0.00220153	700.0
2415	7.00872e+02	2.41500e+03	-0.00215136	700.0
2417	7.00861e+02	2.41700e+03	-0.00210849	700.0
2419	7.00865e+02	2.41900e+03	-0.00211925	700.0
2421	7.00867e+02	2.42100e+03	-0.00223771	700.0
2423	7.00866e+02	2.42300e+03	-0.00236158	700.0
2425	7.00872e+02	2.42500e+03	-0.00253601	700.0
2427	7.00881e+02	2.42700e+03	-0.00265779	700.0
2429	7.00874e+02	2.42900e+03	-0.00268396	700.0
2431	7.00882e+02	2.43100e+03	-0.00265497	700.0
2433	7.00875e+02	2.43300e+03	-0.00251566	700.0
2435	7.00874e+02	2.43500e+03	-0.00240511	700.0
2437	7.00872e+02	2.43700e+03	-0.00229351	700.0
2439	7.00881e+02	2.43900e+03	-0.00221284	700.0
2441	7.00869e+02	2.44100e+03	-0.00218422	700.0
2443	7.00872e+02	2.44300e+03	-0.00216049	700.0
2445	7.00873e+02	2.44500e+03	-0.00216575	700.0
2447	7.00866e+02	2.44700e+03	-0.00215138	700.0
2449	7.00875e+02	2.44900e+03	-0.00212896	700.0
2451	7.00870e+02	2.45100e+03	-0.00212215	700.0
2453	7.00872e+02	2.45300e+03	-0.0021406	700.0
2455	7.00870e+02	2.45500e+03	-0.00216438	700.0
2457	7.00873e+02	2.45700e+03	-0.00220943	700.0
2459	7.00872e+02	2.45900e+03	-0.00223884	700.0
2461	7.00881e+02	2.46100e+03	-0.00225728	700.0
2463	7.00871e+02	2.46300e+03	-0.00228386	700.0
2465	7.00881e+02	2.46500e+03	-0.00231541	700.0
2467	7.00861e+02	2.46700e+03	-0.00234323	700.0
2469	7.00871e+02	2.46900e+03	-0.00235961	700.0
2471	7.00868e+02	2.47100e+03	-0.00236403	700.0
2473	7.00873e+02	2.47300e+03	-0.0023408	700.0
2475	7.00868e+02	2.47500e+03	-0.00231553	700.0
2477	7.00865e+02	2.47700e+03	-0.00227791	700.0
2479	7.00876e+02	2.47900e+03	-0.00223905	700.0
2481	7.00864e+02	2.48100e+03	-0.0022096	700.0
2483	7.00876e+02	2.48300e+03	-0.00219267	700.0
2485	7.00871e+02	2.48500e+03	-0.00220062	700.0
2487	7.00865e+02	2.48700e+03	-0.00221458	700.0
2489	7.00866e+02	2.48900e+03	-0.0022457	700.0
2491	7.00872e+02	2.49100e+03	-0.00226761	700.0
2493	7.00868e+02	2.49300e+03	-0.00228324	700.0
2495	7.00871e+02	2.49500e+03	-0.00229875	700.0
2497	7.00862e+02	2.49700e+03	-0.00229811	700.0
2499	7.00872e+02	2.49900e+03	-0.00229256	700.0
2501	7.00876e+02	2.50100e+03	-0.00226828	700.0
2503	7.00873e+02	2.50300e+03	-0.00224372	700.0
2505	7.00867e+02	2.50500e+03	-0.00220972	700.0
2507	7.00872e+02	2.50700e+03	-0.0021829	700.0
2509	7.00867e+02	2.50900e+03	-0.0021841	700.0
2511	7.00869e+02	2.51100e+03	-0.00220267	700.0
2513	7.00868e+02	2.51300e+03	-0.00224659	700.0
2515	7.00875e+02	2.51500e+03	-0.00227337	700.0
2517	7.00873e+02	2.51700e+03	-0.00228738	700.0
2519	7.00870e+02	2.51900e+03	-0.00229672	700.0
2521	7.00867e+02	2.52100e+03	-0.00229277	700.0
2523	7.00865e+02	2.52300e+03	-0.00228611	700.0
2525	7.00873e+02	2.52500e+03	-0.00227984	700.0
2527	7.00869e+02	2.52700e+03	-0.00228399	700.0
2529	7.00876e+02	2.52900e+03	-0.002282	700.0
2531	7.00873e+02	2.53100e+03	-0.00225989	700.0
2533	7.00877e+02	2.53300e+03	-0.00222218	700.0
2535	7.00872e+02	2.53500e+03	-0.0021968	700.0
2537	7.00870e+02	2.53700e+03	-0.00218353	700.0
2539	7.00871e+02	2.53900e+03	-0.00218112	700.0
2541	7.00861e+02	2.54100e+03	-0.00220087	700.0
2543	7.00873e+02	2.54300e+03	-0.00221796	700.0
2545	7.00871e+02	2.54500e+03	-0.00224301	700.0
2547	7.00880e+02	2.54700e+03	-0.00226875	700.0
2549	7.00874e+02	2.54900e+03	-0.00230424	700.0
2551	7.00875e+02	2.55100e+03	-0.0023386	700.0
2553	7.00863e+02	2.55300e+03	-0.00236391	700.0
2555	7.00875e+02	2.55500e+03	-0.00237468	700.0
2557	7.00864e+02	2.55700e+03	-0.00236251	700.0
2559	7.00872e+02	2.55900e+03	-0.00236094	700.0
2561	7.00868e+02	2.56100e+03	-0.00238541	700.0
2563	7.00869e+02	2.56300e+03	-0.00242508	700.0
2565	7.00861e+02	2.56500e+03	-0.00246617	700.0
2567	7.00871e+02	2.56700e+03	-0.00248207	700.0
2569	7.00871e+02	2.56900e+03	-0.00247057	700.0
2571	7.00872e+02	2.57100e+03	-0.00246136	700.0
2573	7.00872e+02	2.57300e+03	-0.00244591	700.0
2575	7.00866e+02	2.57500e+03	-0.00243077	700.0
2577	7.00865e+02	2.57700e+03	-0.00240972	700.0
2579	7.00871e+02	2.57900e+03	-0.00239014	700.0
2581	7.00877e+02	2.58100e+03	-0.00235674	700.0
2583	7.00869e+02	2.58300e+03	-0.00232285	700.0
2585	7.00873e+02	2.58500e+03	-0.00228981	700.0
2587	7.00876e+02	2.58700e+03	-0.00227093	700.0
2589	7.00879e+02	2.58900e+03	-0.00227127	700.0
2591	7.00869e+02	2.59100e+03	-0.00226981	700.0
2593	7.00877e+02	2.59300e+03	-0.00228139	700.0
2595	7.00864e+02	2.59500e+03	-0.00229909	700.0
2597	7.00882e+02	2.59700e+03	-0.0023286	700.0
2599	7.00875e+02	2.59900e+03	-0.00233835	700.0
2601	7.00877e+02	2.60100e+03	-0.00233344	700.0
2603	7.00875e+02	2.60300e+03	-0.00232736	700.0
2605	7.00877e+02	2.60500e+03	-0.00231247	700.0
2607	7.00875e+02	2.60700e+03	-0.00230582	700.0
2609	7.00878e+02	2.60900e+03	-0.00230604	700.0
2611	7.00878e+02	2.61100e+03	-0.00230482	700.0
2613	7.00870e+02	2.61300e+03	-0.0023061	700.0
2615	7.00875e+02	2.61500e+03	-0.00231104	700.0
2617	7.00872e+02	2.61700e+03	-0.00233339	700.0
2619	7.00879e+02	2.61900e+03	-0.00237481	700.0
2621	7.00875e+02	2.62100e+03	-0.00243455	700.0
2623	7.00882e+02	2.62300e+03	-0.00247982	700.0
2625	7.00874e+02	2.62500e+03	-0.00250685	700.0
2627	7.00883e+02	2.62700e+03	-0.00252233	700.0
2629	7.00869e+02	2.62900e+03	-0.0025074	700.0
2631	7.00877e+02	2.63100e+03	-0.00248124	700.0
2633	7.00881e+02	2.63300e+03	-0.00243491	700.0
2635	7.00885e+02	2.63500e+03	-0.00239441	700.0
2637	7.00880e+02	2.63700e+03	-0.00235605	700.0
2639	7.00881e+02	2.63900e+03	-0.00232907	700.0
2641	7.00885e+02	2.64100e+03	-0.00232037	700.0
2643	7.00874e+02	2.64300e+03	-0.0023104	700.0
2645	7.00882e+02	2.64500e+03	-0.00230495	700.0
2647	7.00881e+02	2.64700e+03	-0.00229501	700.0
2649	7.00880e+02	2.64900e+03	-0.00227591	700.0
2651	7.00884e+02	2.65100e+03	-0.00225099	700.0
2653	7.00889e+02	2.65300e+03	-0.00223465	700.0
2655	7.00886e+02	2.65500e+03	-0.00223304	700.0
2657	7.00873e+02	2.65700e+03	-0.00225461	700.0
2659	7.00884e+02	2.65900e+03	-0.00227473	700.0
2661	7.00879e+02	2.66100e+03	-0.00230956	700.0
2663	7.00880e+02	2.66300e+03	-0.00235546	700.0
2665	7.00882e+02	2.66500e+03	-0.00241112	700.0
2667	7.00879e+02	2.66700e+03	-0.00246032	700.0
2669	7.00871e+02	2.66900e+03	-0.0025216	700.0
2671	7.00879e+02	2.67100e+03	-0.00258137	700.0
2673	7.00878e+02	2.67300e+03	-0.00262965	700.0
2675	7.00894e+02	2.67500e+03	-0.00264786	700.0
2677	7.00889e+02	2.67700e+03	-0.00262333	700.0
2679	7.00884e+02	2.67900e+03	-0.00259544	700.0
2681	7.00876e+02	2.68100e+03	-0.00253654	700.0
2683	7.00888e+02	2.68300e+03	-0.00248479	700.0
2685	7.00877e+02	2.68500e+03	-0.00243685	700.0
2687	7.00888e+02	2.68700e+03	-0.00240312	700.0
2689	7.00888e+02	2.68900e+03	-0.00239537	700.0
2691	7.00889e+02	2.69100e+03	-0.00238802	700.0
2693	7.00886e+02	2.69300e+03	-0.00239269	700.0
2695	7.00883e+02	2.69500e+03	-0.00239735	700.0
2697	7.00890e+02	2.69700e+03	-0.00240233	700.0
2699	7.00892e+02	2.69900e+03	-0.00239433	700.0
2701	7.00882e+02	2.70100e+03	-0.00235812	700.0
2703	7.00884e+02	2.70300e+03	-0.00232162	700.0
2705	7.00893e+02	2.70500e+03	-0.00228236	700.0
2707	7.00888e+02	2.70700e+03	-0.00227104	700.0
2709	7.00888e+02	2.70900e+03	-0.00230069	700.0
2711	7.00889e+02	2.71100e+03	-0.00233032	700.0
2713	7.00892e+02	2.71300e+03	-0.00237241	700.0
2715	7.00889e+02	2.71500e+03	-0.00241911	700.0
2717	7.00885e+02	2.71700e+03	-0.00246099	700.0
2719	7.00884e+02	2.71900e+03	-0.00249206	700.0
2720	7.00890e+02	2.72000e+03	-0.00250445	700.0