File: Experiments/TUBS/tga_nonisotherm/tga_dynamic_n2_dyn10_piece_1mg_r3.txt
index	ts	t	weight	tr
[#]	[°C]	[s]	[mg]	[°C]
843	1.30925e+02	8.43000e+02	1.02668e+00	1.30500e+02
847	1.31597e+02	8.47000e+02	1.02686e+00	1.31167e+02
851	1.32271e+02	8.51000e+02	1.02698e+00	1.31833e+02
855	1.32951e+02	8.55000e+02	1.02699e+00	1.32500e+02
859	1.33620e+02	8.59000e+02	1.02692e+00	1.33167e+02
863	1.34298e+02	8.63000e+02	1.02685e+00	1.33833e+02
867	1.34965e+02	8.67000e+02	1.02678e+00	1.34500e+02
871	1.35640e+02	8.71000e+02	1.02674e+00	1.35167e+02
875	1.36315e+02	8.75000e+02	1.02675e+00	1.35833e+02
879	1.36989e+02	8.79000e+02	1.02675e+00	1.36500e+02
883	1.37675e+02	8.83000e+02	1.02673e+00	1.37167e+02
887	1.38342e+02	8.87000e+02	1.02674e+00	1.37833e+02
891	1.39015e+02	8.91000e+02	1.02671e+00	1.38500e+02
895	1.39687e+02	8.95000e+02	1.02665e+00	1.39167e+02
899	1.40367e+02	8.99000e+02	1.02668e+00	1.39833e+02
903	1.41041e+02	9.03000e+02	1.02671e+00	1.40500e+02
907	1.41715e+02	9.07000e+02	1.02661e+00	1.41167e+02
911	1.42397e+02	9.11000e+02	1.02647e+00	1.41833e+02
915	1.43064e+02	9.15000e+02	1.02652e+00	1.42500e+02
919	1.43731e+02	9.19000e+02	1.02664e+00	1.43167e+02
923	1.44415e+02	9.23000e+02	1.02651e+00	1.43833e+02
927	1.45105e+02	9.27000e+02	1.02646e+00	1.44500e+02
931	1.45770e+02	9.31000e+02	1.02687e+00	1.45167e+02
935	1.46446e+02	9.35000e+02	1.02717e+00	1.45833e+02
939	1.47113e+02	9.39000e+02	1.02703e+00	1.46500e+02
943	1.47799e+02	9.43000e+02	1.02681e+00	1.47167e+02
947	1.48470e+02	9.47000e+02	1.02669e+00	1.47833e+02
951	1.49152e+02	9.51000e+02	1.02664e+00	1.48500e+02
955	1.49828e+02	9.55000e+02	1.02664e+00	1.49167e+02
959	1.50494e+02	9.59000e+02	1.02658e+00	1.49833e+02
963	1.51159e+02	9.63000e+02	1.02639e+00	1.50500e+02
967	1.51860e+02	9.67000e+02	1.02627e+00	1.51167e+02
971	1.52535e+02	9.71000e+02	1.02623e+00	1.51833e+02
975	1.53190e+02	9.75000e+02	1.02626e+00	1.52500e+02
979	1.53883e+02	9.79000e+02	1.02632e+00	1.53167e+02
983	1.54550e+02	9.83000e+02	1.02629e+00	1.53833e+02
987	1.55242e+02	9.87000e+02	1.02624e+00	1.54500e+02
991	1.55908e+02	9.91000e+02	1.02623e+00	1.55167e+02
995	1.56583e+02	9.95000e+02	1.02625e+00	1.55833e+02
999	1.57253e+02	9.99000e+02	1.02616e+00	1.56500e+02
1003	1.57933e+02	1.00300e+03	1.02601e+00	1.57167e+02
1007	1.58615e+02	1.00700e+03	1.02603e+00	1.57833e+02
1011	1.59307e+02	1.01100e+03	1.02617e+00	1.58500e+02
1015	1.59970e+02	1.01500e+03	1.02615e+00	1.59167e+02
1019	1.60636e+02	1.01900e+03	1.02605e+00	1.59833e+02
1023	1.61313e+02	1.02300e+03	1.02603e+00	1.60500e+02
1027	1.62002e+02	1.02700e+03	1.02596e+00	1.61167e+02
1031	1.62680e+02	1.03100e+03	1.02586e+00	1.61833e+02
1035	1.63352e+02	1.03500e+03	1.02572e+00	1.62500e+02
1039	1.64014e+02	1.03900e+03	1.02567e+00	1.63167e+02
1043	1.64689e+02	1.04300e+03	1.02579e+00	1.63833e+02
1047	1.65370e+02	1.04700e+03	1.02582e+00	1.64500e+02
1051	1.66047e+02	1.05100e+03	1.02576e+00	1.65167e+02
1055	1.66731e+02	1.05500e+03	1.02578e+00	1.65833e+02
1059	1.67399e+02	1.05900e+03	1.02584e+00	1.66500e+02
1063	1.68087e+02	1.06300e+03	1.02583e+00	1.67167e+02
1067	1.68750e+02	1.06700e+03	1.02575e+00	1.67833e+02
1071	1.69435e+02	1.07100e+03	1.02564e+00	1.68500e+02
1075	1.70108e+02	1.07500e+03	1.02558e+00	1.69167e+02
1079	1.70783e+02	1.07900e+03	1.02550e+00	1.69833e+02
1083	1.71474e+02	1.08300e+03	1.02534e+00	1.70500e+02
1087	1.72124e+02	1.08700e+03	1.02527e+00	1.71167e+02
1091	1.72812e+02	1.09100e+03	1.02521e+00	1.71833e+02
1095	1.73485e+02	1.09500e+03	1.02508e+00	1.72500e+02
1099	1.74163e+02	1.09900e+03	1.02492e+00	1.73167e+02
1103	1.74839e+02	1.10300e+03	1.02485e+00	1.73833e+02
1107	1.75509e+02	1.10700e+03	1.02483e+00	1.74500e+02
1111	1.76200e+02	1.11100e+03	1.02477e+00	1.75167e+02
1115	1.76876e+02	1.11500e+03	1.02465e+00	1.75833e+02
1119	1.77541e+02	1.11900e+03	1.02454e+00	1.76500e+02
1123	1.78225e+02	1.12300e+03	1.02448e+00	1.77167e+02
1127	1.78904e+02	1.12700e+03	1.02437e+00	1.77833e+02
1131	1.79576e+02	1.13100e+03	1.02416e+00	1.78500e+02
1135	1.80259e+02	1.13500e+03	1.02391e+00	1.79167e+02
1139	1.80942e+02	1.13900e+03	1.02373e+00	1.79833e+02
1143	1.81620e+02	1.14300e+03	1.02360e+00	1.80500e+02
1147	1.82291e+02	1.14700e+03	1.02347e+00	1.81167e+02
1151	1.82970e+02	1.15100e+03	1.02333e+00	1.81833e+02
1155	1.83641e+02	1.15500e+03	1.02313e+00	1.82500e+02
1159	1.84316e+02	1.15900e+03	1.02279e+00	1.83167e+02
1163	1.84992e+02	1.16300e+03	1.02241e+00	1.83833e+02
1167	1.85667e+02	1.16700e+03	1.02213e+00	1.84500e+02
1171	1.86347e+02	1.17100e+03	1.02193e+00	1.85167e+02
1175	1.87017e+02	1.17500e+03	1.02179e+00	1.85833e+02
1179	1.87695e+02	1.17900e+03	1.02165e+00	1.86500e+02
1183	1.88374e+02	1.18300e+03	1.02146e+00	1.87167e+02
1187	1.89028e+02	1.18700e+03	1.02126e+00	1.87833e+02
1191	1.89715e+02	1.19100e+03	1.02103e+00	1.88500e+02
1195	1.90381e+02	1.19500e+03	1.02077e+00	1.89167e+02
1199	1.91066e+02	1.19900e+03	1.02053e+00	1.89833e+02
1203	1.91726e+02	1.20300e+03	1.02033e+00	1.90500e+02
1207	1.92400e+02	1.20700e+03	1.02018e+00	1.91167e+02
1211	1.93078e+02	1.21100e+03	1.01988e+00	1.91833e+02
1215	1.93754e+02	1.21500e+03	1.01948e+00	1.92500e+02
1219	1.94419e+02	1.21900e+03	1.01911e+00	1.93167e+02
1223	1.95094e+02	1.22300e+03	1.01875e+00	1.93833e+02
1227	1.95758e+02	1.22700e+03	1.01841e+00	1.94500e+02
1231	1.96423e+02	1.23100e+03	1.01805e+00	1.95167e+02
1235	1.97103e+02	1.23500e+03	1.01761e+00	1.95833e+02
1239	1.97766e+02	1.23900e+03	1.01734e+00	1.96500e+02
1243	1.98439e+02	1.24300e+03	1.01734e+00	1.97167e+02
1247	1.99106e+02	1.24700e+03	1.01718e+00	1.97833e+02
1251	1.99770e+02	1.25100e+03	1.01680e+00	1.98500e+02
1255	2.00450e+02	1.25500e+03	1.01640e+00	1.99167e+02
1259	2.01107e+02	1.25900e+03	1.01598e+00	1.99833e+02
1263	2.01791e+02	1.26300e+03	1.01558e+00	2.00500e+02
1267	2.02470e+02	1.26700e+03	1.01527e+00	2.01167e+02
1271	2.03131e+02	1.27100e+03	1.01502e+00	2.01833e+02
1275	2.03801e+02	1.27500e+03	1.01471e+00	2.02500e+02
1279	2.04482e+02	1.27900e+03	1.01438e+00	2.03167e+02
1283	2.05138e+02	1.28300e+03	1.01413e+00	2.03833e+02
1287	2.05819e+02	1.28700e+03	1.01391e+00	2.04500e+02
1291	2.06491e+02	1.29100e+03	1.01359e+00	2.05167e+02
1295	2.07164e+02	1.29500e+03	1.01325e+00	2.05833e+02
1299	2.07829e+02	1.29900e+03	1.01301e+00	2.06500e+02
1303	2.08499e+02	1.30300e+03	1.01284e+00	2.07167e+02
1307	2.09160e+02	1.30700e+03	1.01264e+00	2.07833e+02
1311	2.09838e+02	1.31100e+03	1.01226e+00	2.08500e+02
1315	2.10502e+02	1.31500e+03	1.01172e+00	2.09167e+02
1319	2.11175e+02	1.31900e+03	1.01155e+00	2.09833e+02
1323	2.11847e+02	1.32300e+03	1.01173e+00	2.10500e+02
1327	2.12511e+02	1.32700e+03	1.01151e+00	2.11167e+02
1331	2.13190e+02	1.33100e+03	1.01091e+00	2.11833e+02
1335	2.13854e+02	1.33500e+03	1.01045e+00	2.12500e+02
1339	2.14522e+02	1.33900e+03	1.01016e+00	2.13167e+02
1343	2.15188e+02	1.34300e+03	1.00986e+00	2.13833e+02
1347	2.15858e+02	1.34700e+03	1.00955e+00	2.14500e+02
1351	2.16527e+02	1.35100e+03	1.00933e+00	2.15167e+02
1355	2.17200e+02	1.35500e+03	1.00914e+00	2.15833e+02
1359	2.17872e+02	1.35900e+03	1.00882e+00	2.16500e+02
1363	2.18528e+02	1.36300e+03	1.00839e+00	2.17167e+02
1367	2.19198e+02	1.36700e+03	1.00805e+00	2.17833e+02
1371	2.19867e+02	1.37100e+03	1.00779e+00	2.18500e+02
1375	2.20538e+02	1.37500e+03	1.00751e+00	2.19167e+02
1379	2.21197e+02	1.37900e+03	1.00721e+00	2.19833e+02
1383	2.21861e+02	1.38300e+03	1.00694e+00	2.20500e+02
1387	2.22542e+02	1.38700e+03	1.00669e+00	2.21167e+02
1391	2.23210e+02	1.39100e+03	1.00637e+00	2.21833e+02
1395	2.23881e+02	1.39500e+03	1.00601e+00	2.22500e+02
1399	2.24556e+02	1.39900e+03	1.00564e+00	2.23167e+02
1403	2.25225e+02	1.40300e+03	1.00531e+00	2.23833e+02
1407	2.25899e+02	1.40700e+03	1.00501e+00	2.24500e+02
1411	2.26548e+02	1.41100e+03	1.00473e+00	2.25167e+02
1415	2.27229e+02	1.41500e+03	1.00444e+00	2.25833e+02
1419	2.27902e+02	1.41900e+03	1.00415e+00	2.26500e+02
1423	2.28565e+02	1.42300e+03	1.00379e+00	2.27167e+02
1427	2.29247e+02	1.42700e+03	1.00343e+00	2.27833e+02
1431	2.29909e+02	1.43100e+03	1.00313e+00	2.28500e+02
1435	2.30586e+02	1.43500e+03	1.00281e+00	2.29167e+02
1439	2.31256e+02	1.43900e+03	1.00251e+00	2.29833e+02
1443	2.31919e+02	1.44300e+03	1.00231e+00	2.30500e+02
1447	2.32592e+02	1.44700e+03	1.00208e+00	2.31167e+02
1451	2.33274e+02	1.45100e+03	1.00185e+00	2.31833e+02
1455	2.33948e+02	1.45500e+03	1.00164e+00	2.32500e+02
1459	2.34610e+02	1.45900e+03	1.00129e+00	2.33167e+02
1463	2.35290e+02	1.46300e+03	1.00090e+00	2.33833e+02
1467	2.35972e+02	1.46700e+03	1.00056e+00	2.34500e+02
1471	2.36636e+02	1.47100e+03	1.00029e+00	2.35167e+02
1475	2.37305e+02	1.47500e+03	9.99963e-01	2.35833e+02
1479	2.37981e+02	1.47900e+03	9.99594e-01	2.36500e+02
1483	2.38666e+02	1.48300e+03	9.99325e-01	2.37167e+02
1487	2.39316e+02	1.48700e+03	9.99098e-01	2.37833e+02
1491	2.40005e+02	1.49100e+03	9.98859e-01	2.38500e+02
1495	2.40686e+02	1.49500e+03	9.98639e-01	2.39167e+02
1499	2.41363e+02	1.49900e+03	9.98405e-01	2.39833e+02
1503	2.42049e+02	1.50300e+03	9.98057e-01	2.40500e+02
1507	2.42754e+02	1.50700e+03	9.97673e-01	2.41167e+02
1511	2.43438e+02	1.51100e+03	9.97341e-01	2.41833e+02
1515	2.44110e+02	1.51500e+03	9.96979e-01	2.42500e+02
1519	2.44781e+02	1.51900e+03	9.96584e-01	2.43167e+02
1523	2.45442e+02	1.52300e+03	9.96366e-01	2.43833e+02
1527	2.46111e+02	1.52700e+03	9.96269e-01	2.44500e+02
1531	2.46795e+02	1.53100e+03	9.95977e-01	2.45167e+02
1535	2.47469e+02	1.53500e+03	9.95587e-01	2.45833e+02
1539	2.48144e+02	1.53900e+03	9.95267e-01	2.46500e+02
1543	2.48823e+02	1.54300e+03	9.94949e-01	2.47167e+02
1547	2.49495e+02	1.54700e+03	9.94652e-01	2.47833e+02
1551	2.50190e+02	1.55100e+03	9.94371e-01	2.48500e+02
1555	2.50863e+02	1.55500e+03	9.94052e-01	2.49167e+02
1559	2.51544e+02	1.55900e+03	9.93710e-01	2.49833e+02
1563	2.52237e+02	1.56300e+03	9.93364e-01	2.50500e+02
1567	2.52932e+02	1.56700e+03	9.92972e-01	2.51167e+02
1571	2.53610e+02	1.57100e+03	9.92630e-01	2.51833e+02
1575	2.54287e+02	1.57500e+03	9.92399e-01	2.52500e+02
1579	2.54962e+02	1.57900e+03	9.92167e-01	2.53167e+02
1583	2.55649e+02	1.58300e+03	9.91881e-01	2.53833e+02
1587	2.56326e+02	1.58700e+03	9.91590e-01	2.54500e+02
1591	2.56989e+02	1.59100e+03	9.91334e-01	2.55167e+02
1595	2.57666e+02	1.59500e+03	9.91241e-01	2.55833e+02
1599	2.58326e+02	1.59900e+03	9.91191e-01	2.56500e+02
1603	2.59012e+02	1.60300e+03	9.90826e-01	2.57167e+02
1607	2.59678e+02	1.60700e+03	9.90320e-01	2.57833e+02
1611	2.60365e+02	1.61100e+03	9.89919e-01	2.58500e+02
1615	2.61038e+02	1.61500e+03	9.89652e-01	2.59167e+02
1619	2.61721e+02	1.61900e+03	9.89458e-01	2.59833e+02
1623	2.62404e+02	1.62300e+03	9.89169e-01	2.60500e+02
1627	2.63067e+02	1.62700e+03	9.88831e-01	2.61167e+02
1631	2.63746e+02	1.63100e+03	9.88543e-01	2.61833e+02
1635	2.64428e+02	1.63500e+03	9.88265e-01	2.62500e+02
1639	2.65105e+02	1.63900e+03	9.87974e-01	2.63167e+02
1643	2.65797e+02	1.64300e+03	9.87678e-01	2.63833e+02
1647	2.66502e+02	1.64700e+03	9.87354e-01	2.64500e+02
1651	2.67176e+02	1.65100e+03	9.87038e-01	2.65167e+02
1655	2.67852e+02	1.65500e+03	9.86770e-01	2.65833e+02
1659	2.68527e+02	1.65900e+03	9.86432e-01	2.66500e+02
1663	2.69188e+02	1.66300e+03	9.85988e-01	2.67167e+02
1667	2.69873e+02	1.66700e+03	9.85528e-01	2.67833e+02
1671	2.70544e+02	1.67100e+03	9.85161e-01	2.68500e+02
1675	2.71236e+02	1.67500e+03	9.84859e-01	2.69167e+02
1679	2.71911e+02	1.67900e+03	9.84500e-01	2.69833e+02
1683	2.72586e+02	1.68300e+03	9.84094e-01	2.70500e+02
1687	2.73262e+02	1.68700e+03	9.83737e-01	2.71167e+02
1691	2.73962e+02	1.69100e+03	9.83456e-01	2.71833e+02
1695	2.74644e+02	1.69500e+03	9.83218e-01	2.72500e+02
1699	2.75317e+02	1.69900e+03	9.82864e-01	2.73167e+02
1703	2.75979e+02	1.70300e+03	9.82362e-01	2.73833e+02
1707	2.76661e+02	1.70700e+03	9.81907e-01	2.74500e+02
1711	2.77370e+02	1.71100e+03	9.81469e-01	2.75167e+02
1715	2.78089e+02	1.71500e+03	9.80982e-01	2.75833e+02
1719	2.78742e+02	1.71900e+03	9.80534e-01	2.76500e+02
1723	2.79447e+02	1.72300e+03	9.80138e-01	2.77167e+02
1727	2.80125e+02	1.72700e+03	9.79728e-01	2.77833e+02
1731	2.80795e+02	1.73100e+03	9.79334e-01	2.78500e+02
1735	2.81455e+02	1.73500e+03	9.78984e-01	2.79167e+02
1739	2.82128e+02	1.73900e+03	9.78610e-01	2.79833e+02
1743	2.82795e+02	1.74300e+03	9.78109e-01	2.80500e+02
1747	2.83508e+02	1.74700e+03	9.77497e-01	2.81167e+02
1751	2.84191e+02	1.75100e+03	9.76925e-01	2.81833e+02
1755	2.84871e+02	1.75500e+03	9.76461e-01	2.82500e+02
1759	2.85560e+02	1.75900e+03	9.76006e-01	2.83167e+02
1763	2.86233e+02	1.76300e+03	9.75499e-01	2.83833e+02
1767	2.86915e+02	1.76700e+03	9.74976e-01	2.84500e+02
1771	2.87587e+02	1.77100e+03	9.74409e-01	2.85167e+02
1775	2.88247e+02	1.77500e+03	9.73680e-01	2.85833e+02
1779	2.88914e+02	1.77900e+03	9.73007e-01	2.86500e+02
1783	2.89565e+02	1.78300e+03	9.72551e-01	2.87167e+02
1787	2.90206e+02	1.78700e+03	9.72020e-01	2.87833e+02
1791	2.90852e+02	1.79100e+03	9.71343e-01	2.88500e+02
1795	2.91523e+02	1.79500e+03	9.70673e-01	2.89167e+02
1799	2.92154e+02	1.79900e+03	9.70004e-01	2.89833e+02
1803	2.92798e+02	1.80300e+03	9.69223e-01	2.90500e+02
1807	2.93453e+02	1.80700e+03	9.68404e-01	2.91167e+02
1811	2.94128e+02	1.81100e+03	9.67715e-01	2.91833e+02
1815	2.94812e+02	1.81500e+03	9.67042e-01	2.92500e+02
1819	2.95485e+02	1.81900e+03	9.66347e-01	2.93167e+02
1823	2.96147e+02	1.82300e+03	9.65625e-01	2.93833e+02
1827	2.96860e+02	1.82700e+03	9.64743e-01	2.94500e+02
1831	2.97565e+02	1.83100e+03	9.63873e-01	2.95167e+02
1835	2.98234e+02	1.83500e+03	9.63039e-01	2.95833e+02
1839	2.98894e+02	1.83900e+03	9.62108e-01	2.96500e+02
1843	2.99542e+02	1.84300e+03	9.61205e-01	2.97167e+02
1847	3.00184e+02	1.84700e+03	9.60500e-01	2.97833e+02
1851	3.00836e+02	1.85100e+03	9.59882e-01	2.98500e+02
1855	3.01496e+02	1.85500e+03	9.59141e-01	2.99167e+02
1859	3.02185e+02	1.85900e+03	9.58279e-01	2.99833e+02
1863	3.02852e+02	1.86300e+03	9.57391e-01	3.00500e+02
1867	3.03510e+02	1.86700e+03	9.56493e-01	3.01167e+02
1871	3.04176e+02	1.87100e+03	9.55544e-01	3.01833e+02
1875	3.04864e+02	1.87500e+03	9.54531e-01	3.02500e+02
1879	3.05519e+02	1.87900e+03	9.53569e-01	3.03167e+02
1883	3.06182e+02	1.88300e+03	9.52653e-01	3.03833e+02
1887	3.06853e+02	1.88700e+03	9.51724e-01	3.04500e+02
1891	3.07527e+02	1.89100e+03	9.50832e-01	3.05167e+02
1895	3.08190e+02	1.89500e+03	9.49939e-01	3.05833e+02
1899	3.08853e+02	1.89900e+03	9.49008e-01	3.06500e+02
1903	3.09512e+02	1.90300e+03	9.48154e-01	3.07167e+02
1907	3.10175e+02	1.90700e+03	9.47305e-01	3.07833e+02
1911	3.10845e+02	1.91100e+03	9.46209e-01	3.08500e+02
1915	3.11503e+02	1.91500e+03	9.45153e-01	3.09167e+02
1919	3.12167e+02	1.91900e+03	9.44415e-01	3.09833e+02
1923	3.12833e+02	1.92300e+03	9.43649e-01	3.10500e+02
1927	3.13500e+02	1.92700e+03	9.42639e-01	3.11167e+02
1931	3.14184e+02	1.93100e+03	9.41533e-01	3.11833e+02
1935	3.14850e+02	1.93500e+03	9.40577e-01	3.12500e+02
1939	3.15489e+02	1.93900e+03	9.39723e-01	3.13167e+02
1943	3.16152e+02	1.94300e+03	9.38708e-01	3.13833e+02
1947	3.16831e+02	1.94700e+03	9.37619e-01	3.14500e+02
1951	3.17514e+02	1.95100e+03	9.36693e-01	3.15167e+02
1955	3.18178e+02	1.95500e+03	9.35769e-01	3.15833e+02
1959	3.18873e+02	1.95900e+03	9.34586e-01	3.16500e+02
1963	3.19557e+02	1.96300e+03	9.33376e-01	3.17167e+02
1967	3.20276e+02	1.96700e+03	9.32264e-01	3.17833e+02
1971	3.21017e+02	1.97100e+03	9.31141e-01	3.18500e+02
1975	3.21745e+02	1.97500e+03	9.30016e-01	3.19167e+02
1979	3.22432e+02	1.97900e+03	9.28779e-01	3.19833e+02
1983	3.23112e+02	1.98300e+03	9.27314e-01	3.20500e+02
1987	3.23824e+02	1.98700e+03	9.25766e-01	3.21167e+02
1991	3.24523e+02	1.99100e+03	9.24493e-01	3.21833e+02
1995	3.25207e+02	1.99500e+03	9.23331e-01	3.22500e+02
1999	3.25909e+02	1.99900e+03	9.21822e-01	3.23167e+02
2003	3.26675e+02	2.00300e+03	9.20122e-01	3.23833e+02
2007	3.27433e+02	2.00700e+03	9.18484e-01	3.24500e+02
2011	3.28175e+02	2.01100e+03	9.16859e-01	3.25167e+02
2015	3.28897e+02	2.01500e+03	9.15190e-01	3.25833e+02
2019	3.29559e+02	2.01900e+03	9.13462e-01	3.26500e+02
2023	3.30235e+02	2.02300e+03	9.11544e-01	3.27167e+02
2027	3.30945e+02	2.02700e+03	9.09472e-01	3.27833e+02
2031	3.31633e+02	2.03100e+03	9.07440e-01	3.28500e+02
2035	3.32293e+02	2.03500e+03	9.05290e-01	3.29167e+02
2039	3.32972e+02	2.03900e+03	9.03001e-01	3.29833e+02
2043	3.33662e+02	2.04300e+03	9.00910e-01	3.30500e+02
2047	3.34443e+02	2.04700e+03	8.98780e-01	3.31167e+02
2051	3.35171e+02	2.05100e+03	8.96060e-01	3.31833e+02
2055	3.35817e+02	2.05500e+03	8.92895e-01	3.32500e+02
2059	3.36573e+02	2.05900e+03	8.89959e-01	3.33167e+02
2063	3.37229e+02	2.06300e+03	8.87522e-01	3.33833e+02
2067	3.37895e+02	2.06700e+03	8.85047e-01	3.34500e+02
2071	3.38562e+02	2.07100e+03	8.82075e-01	3.35167e+02
2075	3.39205e+02	2.07500e+03	8.78620e-01	3.35833e+02
2079	3.39881e+02	2.07900e+03	8.74985e-01	3.36500e+02
2083	3.40589e+02	2.08300e+03	8.71384e-01	3.37167e+02
2087	3.41211e+02	2.08700e+03	8.67644e-01	3.37833e+02
2091	3.41908e+02	2.09100e+03	8.63692e-01	3.38500e+02
2095	3.42630e+02	2.09500e+03	8.59602e-01	3.39167e+02
2099	3.43325e+02	2.09900e+03	8.55320e-01	3.39833e+02
2103	3.43987e+02	2.10300e+03	8.50775e-01	3.40500e+02
2107	3.44706e+02	2.10700e+03	8.45852e-01	3.41167e+02
2111	3.45362e+02	2.11100e+03	8.40522e-01	3.41833e+02
2115	3.46107e+02	2.11500e+03	8.34921e-01	3.42500e+02
2119	3.46896e+02	2.11900e+03	8.29192e-01	3.43167e+02
2123	3.47675e+02	2.12300e+03	8.23422e-01	3.43833e+02
2127	3.48291e+02	2.12700e+03	8.17468e-01	3.44500e+02
2131	3.48900e+02	2.13100e+03	8.11342e-01	3.45167e+02
2135	3.49531e+02	2.13500e+03	8.05207e-01	3.45833e+02
2139	3.50094e+02	2.13900e+03	7.99035e-01	3.46500e+02
2143	3.50715e+02	2.14300e+03	7.92457e-01	3.47167e+02
2147	3.51325e+02	2.14700e+03	7.85166e-01	3.47833e+02
2151	3.51975e+02	2.15100e+03	7.77526e-01	3.48500e+02
2155	3.52642e+02	2.15500e+03	7.69776e-01	3.49167e+02
2159	3.53287e+02	2.15900e+03	7.61673e-01	3.49833e+02
2163	3.53947e+02	2.16300e+03	7.53207e-01	3.50500e+02
2167	3.54605e+02	2.16700e+03	7.44510e-01	3.51167e+02
2171	3.55255e+02	2.17100e+03	7.35464e-01	3.51833e+02
2175	3.55908e+02	2.17500e+03	7.25878e-01	3.52500e+02
2179	3.56558e+02	2.17900e+03	7.15821e-01	3.53167e+02
2183	3.57223e+02	2.18300e+03	7.05535e-01	3.53833e+02
2187	3.57875e+02	2.18700e+03	6.95078e-01	3.54500e+02
2191	3.58535e+02	2.19100e+03	6.84413e-01	3.55167e+02
2195	3.59201e+02	2.19500e+03	6.73529e-01	3.55833e+02
2199	3.59856e+02	2.19900e+03	6.62348e-01	3.56500e+02
2203	3.60533e+02	2.20300e+03	6.50868e-01	3.57167e+02
2207	3.61197e+02	2.20700e+03	6.39176e-01	3.57833e+02
2211	3.61870e+02	2.21100e+03	6.27381e-01	3.58500e+02
2215	3.62553e+02	2.21500e+03	6.15500e-01	3.59167e+02
2219	3.63238e+02	2.21900e+03	6.03471e-01	3.59833e+02
2223	3.63941e+02	2.22300e+03	5.91238e-01	3.60500e+02
2227	3.64660e+02	2.22700e+03	5.78803e-01	3.61167e+02
2231	3.65398e+02	2.23100e+03	5.66175e-01	3.61833e+02
2235	3.66115e+02	2.23500e+03	5.53380e-01	3.62500e+02
2239	3.66832e+02	2.23900e+03	5.40468e-01	3.63167e+02
2243	3.67575e+02	2.24300e+03	5.27505e-01	3.63833e+02
2247	3.68248e+02	2.24700e+03	5.14393e-01	3.64500e+02
2251	3.68958e+02	2.25100e+03	5.00931e-01	3.65167e+02
2255	3.69661e+02	2.25500e+03	4.87469e-01	3.65833e+02
2259	3.70288e+02	2.25900e+03	4.74467e-01	3.66500e+02
2263	3.70802e+02	2.26300e+03	4.61605e-01	3.67167e+02
2267	3.71372e+02	2.26700e+03	4.48389e-01	3.67833e+02
2271	3.71994e+02	2.27100e+03	4.34916e-01	3.68500e+02
2275	3.72653e+02	2.27500e+03	4.21289e-01	3.69167e+02
2279	3.73310e+02	2.27900e+03	4.07598e-01	3.69833e+02
2283	3.74001e+02	2.28300e+03	3.93952e-01	3.70500e+02
2287	3.74665e+02	2.28700e+03	3.80383e-01	3.71167e+02
2291	3.75317e+02	2.29100e+03	3.67170e-01	3.71833e+02
2295	3.75944e+02	2.29500e+03	3.53793e-01	3.72500e+02
2299	3.76599e+02	2.29900e+03	3.40341e-01	3.73167e+02
2303	3.77247e+02	2.30300e+03	3.27293e-01	3.73833e+02
2307	3.77891e+02	2.30700e+03	3.14528e-01	3.74500e+02
2311	3.78576e+02	2.31100e+03	3.01526e-01	3.75167e+02
2315	3.79223e+02	2.31500e+03	2.88019e-01	3.75833e+02
2319	3.79874e+02	2.31900e+03	2.74956e-01	3.76500e+02
2323	3.80543e+02	2.32300e+03	2.62363e-01	3.77167e+02
2327	3.81200e+02	2.32700e+03	2.49815e-01	3.77833e+02
2331	3.81939e+02	2.33100e+03	2.37501e-01	3.78500e+02
2335	3.82607e+02	2.33500e+03	2.25568e-01	3.79167e+02
2339	3.83232e+02	2.33900e+03	2.14045e-01	3.79833e+02
2343	3.83914e+02	2.34300e+03	2.02987e-01	3.80500e+02
2347	3.84594e+02	2.34700e+03	1.92275e-01	3.81167e+02
2351	3.85288e+02	2.35100e+03	1.81866e-01	3.81833e+02
2355	3.85957e+02	2.35500e+03	1.71956e-01	3.82500e+02
2359	3.86627e+02	2.35900e+03	1.62401e-01	3.83167e+02
2363	3.87349e+02	2.36300e+03	1.52890e-01	3.83833e+02
2367	3.88045e+02	2.36700e+03	1.43628e-01	3.84500e+02
2371	3.88754e+02	2.37100e+03	1.35104e-01	3.85167e+02
2375	3.89425e+02	2.37500e+03	1.27435e-01	3.85833e+02
2379	3.90144e+02	2.37900e+03	1.20073e-01	3.86500e+02
2383	3.90847e+02	2.38300e+03	1.12696e-01	3.87167e+02
2387	3.91589e+02	2.38700e+03	1.05729e-01	3.87833e+02
2391	3.92312e+02	2.39100e+03	9.92696e-02	3.88500e+02
2395	3.93146e+02	2.39500e+03	9.30881e-02	3.89167e+02
2399	3.93863e+02	2.39900e+03	8.72113e-02	3.89833e+02
2403	3.94469e+02	2.40300e+03	8.16705e-02	3.90500e+02
2407	3.95078e+02	2.40700e+03	7.63893e-02	3.91167e+02
2411	3.95633e+02	2.41100e+03	7.13839e-02	3.91833e+02
2415	3.96259e+02	2.41500e+03	6.66558e-02	3.92500e+02
2419	3.96891e+02	2.41900e+03	6.22008e-02	3.93167e+02
2423	3.97519e+02	2.42300e+03	5.80627e-02	3.93833e+02
2427	3.98119e+02	2.42700e+03	5.42343e-02	3.94500e+02
2431	3.98758e+02	2.43100e+03	5.07284e-02	3.95167e+02
2435	3.99315e+02	2.43500e+03	4.74160e-02	3.95833e+02
2439	3.99911e+02	2.43900e+03	4.41800e-02	3.96500e+02
2443	4.00519e+02	2.44300e+03	4.10894e-02	3.97167e+02
2447	4.01141e+02	2.44700e+03	3.82227e-02	3.97833e+02
2451	4.01786e+02	2.45100e+03	3.56088e-02	3.98500e+02
2455	4.02412e+02	2.45500e+03	3.33413e-02	3.99167e+02
2459	4.03036e+02	2.45900e+03	3.13154e-02	3.99833e+02
2463	4.03685e+02	2.46300e+03	2.93004e-02	4.00500e+02
2467	4.04332e+02	2.46700e+03	2.72832e-02	4.01167e+02
2471	4.04978e+02	2.47100e+03	2.54339e-02	4.01833e+02
2475	4.05626e+02	2.47500e+03	2.39035e-02	4.02500e+02
2479	4.06286e+02	2.47900e+03	2.24518e-02	4.03167e+02
2483	4.06923e+02	2.48300e+03	2.09097e-02	4.03833e+02
2487	4.07557e+02	2.48700e+03	1.93842e-02	4.04500e+02
2491	4.08208e+02	2.49100e+03	1.80159e-02	4.05167e+02
2495	4.08860e+02	2.49500e+03	1.69311e-02	4.05833e+02
2499	4.09508e+02	2.49900e+03	1.60244e-02	4.06500e+02
2503	4.10157e+02	2.50300e+03	1.50554e-02	4.07167e+02
2507	4.10815e+02	2.50700e+03	1.40008e-02	4.07833e+02
2511	4.11481e+02	2.51100e+03	1.29313e-02	4.08500e+02
2515	4.12142e+02	2.51500e+03	1.19445e-02	4.09167e+02
2519	4.12809e+02	2.51900e+03	1.11086e-02	4.09833e+02
2523	4.13473e+02	2.52300e+03	1.03484e-02	4.10500e+02
2527	4.14137e+02	2.52700e+03	9.68086e-03	4.11167e+02
2531	4.14794e+02	2.53100e+03	9.09152e-03	4.11833e+02
2535	4.15447e+02	2.53500e+03	8.49102e-03	4.12500e+02
2539	4.16133e+02	2.53900e+03	7.84825e-03	4.13167e+02
2543	4.16843e+02	2.54300e+03	7.19279e-03	4.13833e+02
2547	4.17616e+02	2.54700e+03	6.70001e-03	4.14500e+02
2551	4.18391e+02	2.55100e+03	6.39409e-03	4.15167e+02
2555	4.19103e+02	2.55500e+03	6.08714e-03	4.15833e+02
2559	4.19740e+02	2.55900e+03	5.68599e-03	4.16500e+02
2563	4.20368e+02	2.56300e+03	5.24357e-03	4.17167e+02
2567	4.21017e+02	2.56700e+03	4.87149e-03	4.17833e+02
2571	4.21663e+02	2.57100e+03	4.57860e-03	4.18500e+02
2575	4.22316e+02	2.57500e+03	4.28183e-03	4.19167e+02
2579	4.22945e+02	2.57900e+03	3.93461e-03	4.19833e+02
2583	4.23594e+02	2.58300e+03	3.54802e-03	4.20500e+02
2587	4.24232e+02	2.58700e+03	3.17447e-03	4.21167e+02
2591	4.24905e+02	2.59100e+03	2.83949e-03	4.21833e+02
2595	4.25590e+02	2.59500e+03	2.49253e-03	4.22500e+02
2599	4.26255e+02	2.59900e+03	2.12394e-03	4.23167e+02
2603	4.26931e+02	2.60300e+03	1.76330e-03	4.23833e+02
2607	4.27603e+02	2.60700e+03	1.45553e-03	4.24500e+02
2611	4.28297e+02	2.61100e+03	1.22064e-03	4.25167e+02
2615	4.28964e+02	2.61500e+03	1.01685e-03	4.25833e+02
2619	4.29601e+02	2.61900e+03	8.95863e-04	4.26500e+02
2623	4.30237e+02	2.62300e+03	8.26810e-04	4.27167e+02
2627	4.30893e+02	2.62700e+03	6.85451e-04	4.27833e+02
2631	4.31583e+02	2.63100e+03	4.69515e-04	4.28500e+02
2635	4.32257e+02	2.63500e+03	3.16830e-04	4.29167e+02
2639	4.32878e+02	2.63900e+03	2.26528e-04	4.29833e+02
2643	4.33506e+02	2.64300e+03	4.91639e-05	4.30500e+02
2647	4.34104e+02	2.64700e+03	-1.68381e-04	4.31167e+02
2651	4.34732e+02	2.65100e+03	-2.81569e-04	4.31833e+02
2655	4.35345e+02	2.65500e+03	-3.02056e-04	4.32500e+02
2659	4.35974e+02	2.65900e+03	-3.11866e-04	4.33167e+02
2663	4.36681e+02	2.66300e+03	-3.52272e-04	4.33833e+02
2667	4.37335e+02	2.66700e+03	-4.30880e-04	4.34500e+02
2671	4.37962e+02	2.67100e+03	-4.88172e-04	4.35167e+02
2675	4.38551e+02	2.67500e+03	-5.31522e-04	4.35833e+02
2679	4.39201e+02	2.67900e+03	-6.23822e-04	4.36500e+02
2683	4.39847e+02	2.68300e+03	-7.10713e-04	4.37167e+02
2687	4.40571e+02	2.68700e+03	-7.83313e-04	4.37833e+02
2691	4.41223e+02	2.69100e+03	-8.43507e-04	4.38500e+02
2695	4.41795e+02	2.69500e+03	-8.95038e-04	4.39167e+02
2699	4.42231e+02	2.69900e+03	-9.16963e-04	4.39833e+02
2703	4.42783e+02	2.70300e+03	-8.65788e-04	4.40500e+02
2707	4.43365e+02	2.70700e+03	-9.14895e-04	4.41167e+02
2711	4.43988e+02	2.71100e+03	-1.03934e-03	4.41833e+02
2715	4.44613e+02	2.71500e+03	-1.10064e-03	4.42500e+02
2719	4.45245e+02	2.71900e+03	-1.12056e-03	4.43167e+02
2723	4.45878e+02	2.72300e+03	-1.10216e-03	4.43833e+02
2727	4.46527e+02	2.72700e+03	-1.07114e-03	4.44500e+02
2731	4.47165e+02	2.73100e+03	-1.00611e-03	4.45167e+02
2735	4.47819e+02	2.73500e+03	-8.77591e-04	4.45833e+02
2739	4.48454e+02	2.73900e+03	-8.07524e-04	4.46500e+02
2743	4.49105e+02	2.74300e+03	-8.36548e-04	4.47167e+02
2747	4.49756e+02	2.74700e+03	-9.27984e-04	4.47833e+02
2751	4.50399e+02	2.75100e+03	-1.02506e-03	4.48500e+02
2755	4.51047e+02	2.75500e+03	-1.07982e-03	4.49167e+02
2759	4.51694e+02	2.75900e+03	-1.13626e-03	4.49833e+02
2763	4.52336e+02	2.76300e+03	-1.16206e-03	4.50500e+02
2767	4.52987e+02	2.76700e+03	-1.16653e-03	4.51167e+02
2771	4.53636e+02	2.77100e+03	-1.18760e-03	4.51833e+02
2775	4.54295e+02	2.77500e+03	-1.24383e-03	4.52500e+02
2779	4.54952e+02	2.77900e+03	-1.37420e-03	4.53167e+02
2783	4.55607e+02	2.78300e+03	-1.47458e-03	4.53833e+02
2787	4.56272e+02	2.78700e+03	-1.38552e-03	4.54500e+02
2791	4.56931e+02	2.79100e+03	-1.18855e-03	4.55167e+02
2795	4.57584e+02	2.79500e+03	-1.08540e-03	4.55833e+02
2799	4.58247e+02	2.79900e+03	-1.12259e-03	4.56500e+02
2803	4.58908e+02	2.80300e+03	-1.24016e-03	4.57167e+02
2807	4.59574e+02	2.80700e+03	-1.40558e-03	4.57833e+02
2811	4.60235e+02	2.81100e+03	-1.50231e-03	4.58500e+02
2815	4.60890e+02	2.81500e+03	-1.49812e-03	4.59167e+02
2819	4.61560e+02	2.81900e+03	-1.46918e-03	4.59833e+02
2823	4.62220e+02	2.82300e+03	-1.43785e-03	4.60500e+02
2827	4.62885e+02	2.82700e+03	-1.43753e-03	4.61167e+02
2831	4.63556e+02	2.83100e+03	-1.44822e-03	4.61833e+02
2835	4.64219e+02	2.83500e+03	-1.44827e-03	4.62500e+02
2839	4.64867e+02	2.83900e+03	-1.51576e-03	4.63167e+02
2843	4.65534e+02	2.84300e+03	-1.60000e-03	4.63833e+02
2847	4.66191e+02	2.84700e+03	-1.60840e-03	4.64500e+02
2851	4.66846e+02	2.85100e+03	-1.64328e-03	4.65167e+02
2855	4.67494e+02	2.85500e+03	-1.74462e-03	4.65833e+02
2859	4.68145e+02	2.85900e+03	-1.81498e-03	4.66500e+02
2863	4.68790e+02	2.86300e+03	-1.81413e-03	4.67167e+02
2867	4.69428e+02	2.86700e+03	-1.76639e-03	4.67833e+02
2871	4.70074e+02	2.87100e+03	-1.68135e-03	4.68500e+02
2875	4.70738e+02	2.87500e+03	-1.64523e-03	4.69167e+02
2879	4.71391e+02	2.87900e+03	-1.62170e-03	4.69833e+02
2883	4.72044e+02	2.88300e+03	-1.60220e-03	4.70500e+02
2887	4.72693e+02	2.88700e+03	-1.69535e-03	4.71167e+02
2891	4.73360e+02	2.89100e+03	-1.85489e-03	4.71833e+02
2895	4.74012e+02	2.89500e+03	-1.97652e-03	4.72500e+02
2899	4.74674e+02	2.89900e+03	-1.96057e-03	4.73167e+02
2903	4.75327e+02	2.90300e+03	-1.85713e-03	4.73833e+02
2907	4.75983e+02	2.90700e+03	-1.79092e-03	4.74500e+02
2911	4.76645e+02	2.91100e+03	-1.77187e-03	4.75167e+02
2915	4.77297e+02	2.91500e+03	-1.73319e-03	4.75833e+02
2919	4.77952e+02	2.91900e+03	-1.72260e-03	4.76500e+02
2923	4.78612e+02	2.92300e+03	-1.84121e-03	4.77167e+02
2927	4.79280e+02	2.92700e+03	-1.94132e-03	4.77833e+02
2931	4.79946e+02	2.93100e+03	-1.91488e-03	4.78500e+02
2935	4.80596e+02	2.93500e+03	-1.89529e-03	4.79167e+02
2939	4.81250e+02	2.93900e+03	-1.90815e-03	4.79833e+02
2943	4.81910e+02	2.94300e+03	-1.79695e-03	4.80500e+02
2947	4.82582e+02	2.94700e+03	-1.66685e-03	4.81167e+02
2951	4.83229e+02	2.95100e+03	-1.67409e-03	4.81833e+02
2955	4.83888e+02	2.95500e+03	-1.74210e-03	4.82500e+02
2959	4.84546e+02	2.95900e+03	-1.80980e-03	4.83167e+02
2963	4.85203e+02	2.96300e+03	-1.90576e-03	4.83833e+02
2967	4.85860e+02	2.96700e+03	-2.01217e-03	4.84500e+02
2971	4.86523e+02	2.97100e+03	-2.02714e-03	4.85167e+02
2975	4.87174e+02	2.97500e+03	-1.98716e-03	4.85833e+02
2979	4.87820e+02	2.97900e+03	-1.99325e-03	4.86500e+02
2983	4.88475e+02	2.98300e+03	-2.06609e-03	4.87167e+02
2987	4.89127e+02	2.98700e+03	-2.12414e-03	4.87833e+02
2991	4.89781e+02	2.99100e+03	-2.09359e-03	4.88500e+02
2995	4.90423e+02	2.99500e+03	-1.97460e-03	4.89167e+02
2999	4.91084e+02	2.99900e+03	-1.87566e-03	4.89833e+02
3003	4.91728e+02	3.00300e+03	-1.84920e-03	4.90500e+02
3007	4.92378e+02	3.00700e+03	-1.84361e-03	4.91167e+02
3011	4.93031e+02	3.01100e+03	-1.85403e-03	4.91833e+02
3015	4.93688e+02	3.01500e+03	-1.82167e-03	4.92500e+02
3019	4.94345e+02	3.01900e+03	-1.77531e-03	4.93167e+02
3023	4.95006e+02	3.02300e+03	-1.80092e-03	4.93833e+02
3027	4.95665e+02	3.02700e+03	-1.82332e-03	4.94500e+02
3031	4.96337e+02	3.03100e+03	-1.79577e-03	4.95167e+02
3035	4.96992e+02	3.03500e+03	-1.82504e-03	4.95833e+02
3039	4.97650e+02	3.03900e+03	-1.86593e-03	4.96500e+02
3043	4.98308e+02	3.04300e+03	-1.80735e-03	4.97167e+02
3047	4.98980e+02	3.04700e+03	-1.84405e-03	4.97833e+02
3051	4.99631e+02	3.05100e+03	-1.97511e-03	4.98500e+02
3055	5.00297e+02	3.05500e+03	-2.04287e-03	4.99167e+02
3059	5.00968e+02	3.05900e+03	-2.09567e-03	4.99833e+02
3063	5.01634e+02	3.06300e+03	-2.09967e-03	5.00500e+02
3067	5.02293e+02	3.06700e+03	-2.03402e-03	5.01167e+02
3071	5.02958e+02	3.07100e+03	-1.95165e-03	5.01833e+02
3075	5.03596e+02	3.07500e+03	-1.87233e-03	5.02500e+02
3079	5.04231e+02	3.07900e+03	-1.79318e-03	5.03167e+02
3083	5.04890e+02	3.08300e+03	-1.74306e-03	5.03833e+02
3087	5.05556e+02	3.08700e+03	-1.79063e-03	5.04500e+02
3091	5.06208e+02	3.09100e+03	-1.97578e-03	5.05167e+02
3095	5.06861e+02	3.09500e+03	-2.11791e-03	5.05833e+02
3099	5.07499e+02	3.09900e+03	-2.12251e-03	5.06500e+02
3103	5.08151e+02	3.10300e+03	-2.09423e-03	5.07167e+02
3107	5.08819e+02	3.10700e+03	-1.99760e-03	5.07833e+02
3111	5.09478e+02	3.11100e+03	-1.92865e-03	5.08500e+02
3115	5.10135e+02	3.11500e+03	-1.94506e-03	5.09167e+02
3119	5.10795e+02	3.11900e+03	-2.01097e-03	5.09833e+02
3123	5.11465e+02	3.12300e+03	-2.11074e-03	5.10500e+02
3127	5.12128e+02	3.12700e+03	-2.14554e-03	5.11167e+02
3131	5.12793e+02	3.13100e+03	-2.11727e-03	5.11833e+02
3135	5.13449e+02	3.13500e+03	-2.09583e-03	5.12500e+02
3139	5.14103e+02	3.13900e+03	-2.08466e-03	5.13167e+02
3143	5.14768e+02	3.14300e+03	-2.09453e-03	5.13833e+02
3147	5.15423e+02	3.14700e+03	-2.09252e-03	5.14500e+02
3151	5.16085e+02	3.15100e+03	-1.94823e-03	5.15167e+02
3155	5.16750e+02	3.15500e+03	-1.79742e-03	5.15833e+02
3159	5.17408e+02	3.15900e+03	-1.84387e-03	5.16500e+02
3163	5.18068e+02	3.16300e+03	-1.97385e-03	5.17167e+02
3167	5.18737e+02	3.16700e+03	-2.06851e-03	5.17833e+02
3171	5.19406e+02	3.17100e+03	-2.14014e-03	5.18500e+02
3175	5.20066e+02	3.17500e+03	-2.13655e-03	5.19167e+02
3179	5.20743e+02	3.17900e+03	-2.14131e-03	5.19833e+02
3183	5.21402e+02	3.18300e+03	-2.19177e-03	5.20500e+02
3187	5.22075e+02	3.18700e+03	-2.20419e-03	5.21167e+02
3191	5.22741e+02	3.19100e+03	-2.23390e-03	5.21833e+02
3195	5.23401e+02	3.19500e+03	-2.25840e-03	5.22500e+02
3199	5.24060e+02	3.19900e+03	-2.22081e-03	5.23167e+02
3203	5.24721e+02	3.20300e+03	-2.12285e-03	5.23833e+02
3207	5.25373e+02	3.20700e+03	-1.97869e-03	5.24500e+02
3211	5.26031e+02	3.21100e+03	-1.88355e-03	5.25167e+02
3215	5.26693e+02	3.21500e+03	-1.94671e-03	5.25833e+02
3219	5.27355e+02	3.21900e+03	-2.12347e-03	5.26500e+02
3223	5.28012e+02	3.22300e+03	-2.24699e-03	5.27167e+02
3227	5.28687e+02	3.22700e+03	-2.28891e-03	5.27833e+02
3231	5.29343e+02	3.23100e+03	-2.32229e-03	5.28500e+02
3235	5.30016e+02	3.23500e+03	-2.28631e-03	5.29167e+02
3239	5.30675e+02	3.23900e+03	-2.18677e-03	5.29833e+02
3243	5.31355e+02	3.24300e+03	-2.12887e-03	5.30500e+02
3247	5.32021e+02	3.24700e+03	-2.10335e-03	5.31167e+02
3251	5.32695e+02	3.25100e+03	-2.09985e-03	5.31833e+02
3255	5.33363e+02	3.25500e+03	-2.15056e-03	5.32500e+02
3259	5.34031e+02	3.25900e+03	-2.20351e-03	5.33167e+02
3263	5.34707e+02	3.26300e+03	-2.25054e-03	5.33833e+02
3267	5.35374e+02	3.26700e+03	-2.28766e-03	5.34500e+02
3271	5.36035e+02	3.27100e+03	-2.26329e-03	5.35167e+02
3275	5.36713e+02	3.27500e+03	-2.25953e-03	5.35833e+02
3279	5.37376e+02	3.27900e+03	-2.32433e-03	5.36500e+02
3283	5.38044e+02	3.28300e+03	-2.39409e-03	5.37167e+02
3287	5.38707e+02	3.28700e+03	-2.40531e-03	5.37833e+02
3291	5.39378e+02	3.29100e+03	-2.38037e-03	5.38500e+02
3295	5.40046e+02	3.29500e+03	-2.36429e-03	5.39167e+02
3299	5.40698e+02	3.29900e+03	-2.33710e-03	5.39833e+02
3303	5.41358e+02	3.30300e+03	-2.31819e-03	5.40500e+02
3307	5.42007e+02	3.30700e+03	-2.33038e-03	5.41167e+02
3311	5.42671e+02	3.31100e+03	-2.40805e-03	5.41833e+02
3315	5.43334e+02	3.31500e+03	-2.59628e-03	5.42500e+02
3319	5.43995e+02	3.31900e+03	-2.74995e-03	5.43167e+02
3323	5.44660e+02	3.32300e+03	-2.67753e-03	5.43833e+02
3327	5.45316e+02	3.32700e+03	-2.39883e-03	5.44500e+02
3331	5.45970e+02	3.33100e+03	-2.18764e-03	5.45167e+02
3335	5.46615e+02	3.33500e+03	-2.20601e-03	5.45833e+02
3339	5.47287e+02	3.33900e+03	-2.32799e-03	5.46500e+02
3343	5.47938e+02	3.34300e+03	-2.40824e-03	5.47167e+02
3347	5.48591e+02	3.34700e+03	-2.42727e-03	5.47833e+02
3351	5.49253e+02	3.35100e+03	-2.45017e-03	5.48500e+02
3355	5.49906e+02	3.35500e+03	-2.48052e-03	5.49167e+02
3359	5.50568e+02	3.35900e+03	-2.46855e-03	5.49833e+02
3363	5.51226e+02	3.36300e+03	-2.38842e-03	5.50500e+02
3367	5.51883e+02	3.36700e+03	-2.34707e-03	5.51167e+02
3371	5.52545e+02	3.37100e+03	-2.46030e-03	5.51833e+02
3375	5.53201e+02	3.37500e+03	-2.60804e-03	5.52500e+02
3379	5.53872e+02	3.37900e+03	-2.63001e-03	5.53167e+02
3383	5.54535e+02	3.38300e+03	-2.52475e-03	5.53833e+02
3387	5.55207e+02	3.38700e+03	-2.37252e-03	5.54500e+02
3391	5.55845e+02	3.39100e+03	-2.30554e-03	5.55167e+02
3395	5.56515e+02	3.39500e+03	-2.43265e-03	5.55833e+02
3399	5.57180e+02	3.39900e+03	-2.65619e-03	5.56500e+02
3403	5.57856e+02	3.40300e+03	-2.79925e-03	5.57167e+02
3407	5.58520e+02	3.40700e+03	-2.78095e-03	5.57833e+02
3411	5.59197e+02	3.41100e+03	-2.68713e-03	5.58500e+02
3415	5.59868e+02	3.41500e+03	-2.69817e-03	5.59167e+02
3419	5.60529e+02	3.41900e+03	-2.70473e-03	5.59833e+02
3423	5.61188e+02	3.42300e+03	-2.56713e-03	5.60500e+02
3427	5.61861e+02	3.42700e+03	-2.53626e-03	5.61167e+02
3431	5.62519e+02	3.43100e+03	-2.72745e-03	5.61833e+02
3435	5.63178e+02	3.43500e+03	-2.90994e-03	5.62500e+02
3439	5.63829e+02	3.43900e+03	-2.90049e-03	5.63167e+02
3443	5.64486e+02	3.44300e+03	-2.75863e-03	5.63833e+02
3447	5.65149e+02	3.44700e+03	-2.63969e-03	5.64500e+02
3451	5.65796e+02	3.45100e+03	-2.61551e-03	5.65167e+02
3455	5.66454e+02	3.45500e+03	-2.64477e-03	5.65833e+02
3459	5.67112e+02	3.45900e+03	-2.64851e-03	5.66500e+02
3463	5.67758e+02	3.46300e+03	-2.61666e-03	5.67167e+02
3467	5.68411e+02	3.46700e+03	-2.59018e-03	5.67833e+02
3471	5.69063e+02	3.47100e+03	-2.58176e-03	5.68500e+02
3475	5.69703e+02	3.47500e+03	-2.60655e-03	5.69167e+02
3479	5.70350e+02	3.47900e+03	-2.73732e-03	5.69833e+02
3483	5.71001e+02	3.48300e+03	-2.90591e-03	5.70500e+02
3487	5.71662e+02	3.48700e+03	-2.88888e-03	5.71167e+02
3491	5.72321e+02	3.49100e+03	-2.73290e-03	5.71833e+02
3495	5.72977e+02	3.49500e+03	-2.69776e-03	5.72500e+02
3499	5.73633e+02	3.49900e+03	-2.73076e-03	5.73167e+02
3503	5.74279e+02	3.50300e+03	-2.70590e-03	5.73833e+02
3507	5.74943e+02	3.50700e+03	-2.71495e-03	5.74500e+02
3511	5.75608e+02	3.51100e+03	-2.83435e-03	5.75167e+02
3515	5.76241e+02	3.51500e+03	-2.96130e-03	5.75833e+02
3519	5.76899e+02	3.51900e+03	-3.01345e-03	5.76500e+02
3523	5.77537e+02	3.52300e+03	-2.99646e-03	5.77167e+02
3527	5.78184e+02	3.52700e+03	-2.92462e-03	5.77833e+02
3531	5.78838e+02	3.53100e+03	-2.86841e-03	5.78500e+02
3535	5.79492e+02	3.53500e+03	-2.88071e-03	5.79167e+02
3539	5.80152e+02	3.53900e+03	-2.91737e-03	5.79833e+02
3543	5.80820e+02	3.54300e+03	-2.94881e-03	5.80500e+02
3547	5.81475e+02	3.54700e+03	-2.98552e-03	5.81167e+02
3551	5.82117e+02	3.55100e+03	-3.02860e-03	5.81833e+02
3555	5.82779e+02	3.55500e+03	-3.07352e-03	5.82500e+02
3559	5.83442e+02	3.55900e+03	-3.08339e-03	5.83167e+02
3563	5.84097e+02	3.56300e+03	-3.04664e-03	5.83833e+02
3567	5.84755e+02	3.56700e+03	-2.98343e-03	5.84500e+02
3571	5.85428e+02	3.57100e+03	-2.99456e-03	5.85167e+02
3575	5.86079e+02	3.57500e+03	-3.06451e-03	5.85833e+02
3579	5.86732e+02	3.57900e+03	-3.07798e-03	5.86500e+02
3583	5.87403e+02	3.58300e+03	-3.04113e-03	5.87167e+02
3587	5.88052e+02	3.58700e+03	-2.98100e-03	5.87833e+02
3591	5.88709e+02	3.59100e+03	-2.95333e-03	5.88500e+02
3595	5.89362e+02	3.59500e+03	-3.01697e-03	5.89167e+02
3599	5.90026e+02	3.59900e+03	-3.12487e-03	5.89833e+02
3603	5.90677e+02	3.60300e+03	-3.17719e-03	5.90500e+02
3607	5.91347e+02	3.60700e+03	-3.17501e-03	5.91167e+02
3611	5.92005e+02	3.61100e+03	-3.11528e-03	5.91833e+02
3615	5.92685e+02	3.61500e+03	-2.98237e-03	5.92500e+02
3619	5.93378e+02	3.61900e+03	-2.86703e-03	5.93167e+02
3623	5.94059e+02	3.62300e+03	-2.84022e-03	5.93833e+02
3627	5.94747e+02	3.62700e+03	-2.88466e-03	5.94500e+02
3631	5.95421e+02	3.63100e+03	-2.90594e-03	5.95167e+02
3635	5.96095e+02	3.63500e+03	-2.90557e-03	5.95833e+02
3639	5.96767e+02	3.63900e+03	-2.95283e-03	5.96500e+02
3643	5.97463e+02	3.64300e+03	-3.04403e-03	5.97167e+02
3647	5.98145e+02	3.64700e+03	-3.17934e-03	5.97833e+02
3651	5.98810e+02	3.65100e+03	-3.28054e-03	5.98500e+02
3655	5.99478e+02	3.65500e+03	-3.23577e-03	5.99167e+02
3659	6.00152e+02	3.65900e+03	-3.11995e-03	5.99833e+02
3663	6.00834e+02	3.66300e+03	-3.11088e-03	6.00500e+02
3667	6.01519e+02	3.66700e+03	-3.16774e-03	6.01167e+02
3671	6.02200e+02	3.67100e+03	-3.20497e-03	6.01833e+02
3675	6.02877e+02	3.67500e+03	-3.17557e-03	6.02500e+02
3679	6.03540e+02	3.67900e+03	-3.10898e-03	6.03167e+02
3683	6.04220e+02	3.68300e+03	-3.14611e-03	6.03833e+02
3687	6.04894e+02	3.68700e+03	-3.19258e-03	6.04500e+02
3691	6.05555e+02	3.69100e+03	-3.16003e-03	6.05167e+02
3695	6.06204e+02	3.69500e+03	-3.17315e-03	6.05833e+02
3699	6.06875e+02	3.69900e+03	-3.30040e-03	6.06500e+02
3703	6.07537e+02	3.70300e+03	-3.37664e-03	6.07167e+02
3707	6.08199e+02	3.70700e+03	-3.30887e-03	6.07833e+02
3711	6.08858e+02	3.71100e+03	-3.23950e-03	6.08500e+02
3715	6.09534e+02	3.71500e+03	-3.23727e-03	6.09167e+02
3719	6.10188e+02	3.71900e+03	-3.26427e-03	6.09833e+02
3723	6.10858e+02	3.72300e+03	-3.26126e-03	6.10500e+02
3727	6.11532e+02	3.72700e+03	-3.21631e-03	6.11167e+02
3731	6.12203e+02	3.73100e+03	-3.19848e-03	6.11833e+02
3735	6.12872e+02	3.73500e+03	-3.28642e-03	6.12500e+02
3739	6.13535e+02	3.73900e+03	-3.37612e-03	6.13167e+02
3743	6.14199e+02	3.74300e+03	-3.39238e-03	6.13833e+02
3747	6.14860e+02	3.74700e+03	-3.40722e-03	6.14500e+02
3751	6.15530e+02	3.75100e+03	-3.46347e-03	6.15167e+02
3755	6.16194e+02	3.75500e+03	-3.48893e-03	6.15833e+02
3759	6.16851e+02	3.75900e+03	-3.48050e-03	6.16500e+02
3763	6.17520e+02	3.76300e+03	-3.51365e-03	6.17167e+02
3767	6.18188e+02	3.76700e+03	-3.49896e-03	6.17833e+02
3771	6.18865e+02	3.77100e+03	-3.46658e-03	6.18500e+02
3775	6.19532e+02	3.77500e+03	-3.53202e-03	6.19167e+02
3779	6.20190e+02	3.77900e+03	-3.63667e-03	6.19833e+02
3783	6.20839e+02	3.78300e+03	-3.57861e-03	6.20500e+02
3787	6.21489e+02	3.78700e+03	-3.41809e-03	6.21167e+02
3791	6.22142e+02	3.79100e+03	-3.36570e-03	6.21833e+02
3795	6.22801e+02	3.79500e+03	-3.34624e-03	6.22500e+02
3799	6.23461e+02	3.79900e+03	-3.25865e-03	6.23167e+02
3803	6.24110e+02	3.80300e+03	-3.24188e-03	6.23833e+02
3807	6.24778e+02	3.80700e+03	-3.29481e-03	6.24500e+02
3811	6.25450e+02	3.81100e+03	-3.32711e-03	6.25167e+02
3815	6.26098e+02	3.81500e+03	-3.39713e-03	6.25833e+02
3819	6.26757e+02	3.81900e+03	-3.47248e-03	6.26500e+02
3823	6.27416e+02	3.82300e+03	-3.48126e-03	6.27167e+02
3827	6.28092e+02	3.82700e+03	-3.45006e-03	6.27833e+02
3831	6.28771e+02	3.83100e+03	-3.49524e-03	6.28500e+02
3835	6.29441e+02	3.83500e+03	-3.54706e-03	6.29167e+02
3839	6.30108e+02	3.83900e+03	-3.52258e-03	6.29833e+02
3843	6.30772e+02	3.84300e+03	-3.49426e-03	6.30500e+02
3847	6.31445e+02	3.84700e+03	-3.51836e-03	6.31167e+02
3851	6.32108e+02	3.85100e+03	-3.59887e-03	6.31833e+02
3855	6.32775e+02	3.85500e+03	-3.61044e-03	6.32500e+02
3859	6.33450e+02	3.85900e+03	-3.41532e-03	6.33167e+02
3863	6.34127e+02	3.86300e+03	-3.23584e-03	6.33833e+02
3867	6.34779e+02	3.86700e+03	-3.28894e-03	6.34500e+02
3871	6.35450e+02	3.87100e+03	-3.40926e-03	6.35167e+02
3875	6.36108e+02	3.87500e+03	-3.46658e-03	6.35833e+02
3879	6.36767e+02	3.87900e+03	-3.50726e-03	6.36500e+02
3883	6.37432e+02	3.88300e+03	-3.56503e-03	6.37167e+02
3887	6.38099e+02	3.88700e+03	-3.58317e-03	6.37833e+02
3891	6.38779e+02	3.89100e+03	-3.56989e-03	6.38500e+02
3895	6.39434e+02	3.89500e+03	-3.59640e-03	6.39167e+02
3899	6.40114e+02	3.89900e+03	-3.60800e-03	6.39833e+02
3903	6.40764e+02	3.90300e+03	-3.57259e-03	6.40500e+02
3907	6.41432e+02	3.90700e+03	-3.54010e-03	6.41167e+02
3911	6.42102e+02	3.91100e+03	-3.51827e-03	6.41833e+02
3915	6.42769e+02	3.91500e+03	-3.51804e-03	6.42500e+02
3919	6.43445e+02	3.91900e+03	-3.53350e-03	6.43167e+02
3923	6.44121e+02	3.92300e+03	-3.54735e-03	6.43833e+02
3927	6.44793e+02	3.92700e+03	-3.58585e-03	6.44500e+02
3931	6.45468e+02	3.93100e+03	-3.66762e-03	6.45167e+02
3935	6.46124e+02	3.93500e+03	-3.71857e-03	6.45833e+02
3939	6.46788e+02	3.93900e+03	-3.68836e-03	6.46500e+02
3943	6.47451e+02	3.94300e+03	-3.61036e-03	6.47167e+02
3947	6.48120e+02	3.94700e+03	-3.53035e-03	6.47833e+02
3951	6.48772e+02	3.95100e+03	-3.50804e-03	6.48500e+02
3955	6.49435e+02	3.95500e+03	-3.52594e-03	6.49167e+02
3959	6.50094e+02	3.95900e+03	-3.55004e-03	6.49833e+02
3963	6.50749e+02	3.96300e+03	-3.59365e-03	6.50500e+02
3967	6.51407e+02	3.96700e+03	-3.63271e-03	6.51167e+02
3971	6.52053e+02	3.97100e+03	-3.65718e-03	6.51833e+02
3975	6.52722e+02	3.97500e+03	-3.65892e-03	6.52500e+02
3979	6.53393e+02	3.97900e+03	-3.66005e-03	6.53167e+02
3983	6.54054e+02	3.98300e+03	-3.70513e-03	6.53833e+02
3987	6.54707e+02	3.98700e+03	-3.75281e-03	6.54500e+02
3991	6.55381e+02	3.99100e+03	-3.72261e-03	6.55167e+02
3995	6.56057e+02	3.99500e+03	-3.64717e-03	6.55833e+02
3999	6.56720e+02	3.99900e+03	-3.61431e-03	6.56500e+02
4003	6.57391e+02	4.00300e+03	-3.62850e-03	6.57167e+02
4007	6.58068e+02	4.00700e+03	-3.62623e-03	6.57833e+02
4011	6.58742e+02	4.01100e+03	-3.62612e-03	6.58500e+02
4015	6.59410e+02	4.01500e+03	-3.69171e-03	6.59167e+02
4019	6.60078e+02	4.01900e+03	-3.79242e-03	6.59833e+02
4023	6.60753e+02	4.02300e+03	-3.86085e-03	6.60500e+02
4027	6.61441e+02	4.02700e+03	-3.89411e-03	6.61167e+02
4031	6.62116e+02	4.03100e+03	-3.88308e-03	6.61833e+02
4035	6.62781e+02	4.03500e+03	-3.82388e-03	6.62500e+02
4039	6.63449e+02	4.03900e+03	-3.76991e-03	6.63167e+02
4043	6.64113e+02	4.04300e+03	-3.72834e-03	6.63833e+02
4047	6.64776e+02	4.04700e+03	-3.75218e-03	6.64500e+02
4051	6.65439e+02	4.05100e+03	-3.86348e-03	6.65167e+02
4055	6.66100e+02	4.05500e+03	-3.93646e-03	6.65833e+02
4059	6.66766e+02	4.05900e+03	-3.93199e-03	6.66500e+02
4063	6.67425e+02	4.06300e+03	-3.84145e-03	6.67167e+02
4067	6.68087e+02	4.06700e+03	-3.73113e-03	6.67833e+02
4071	6.68745e+02	4.07100e+03	-3.68663e-03	6.68500e+02
4075	6.69407e+02	4.07500e+03	-3.66958e-03	6.69167e+02
4079	6.70060e+02	4.07900e+03	-3.73875e-03	6.69833e+02
4083	6.70721e+02	4.08300e+03	-3.85135e-03	6.70500e+02
4087	6.71372e+02	4.08700e+03	-3.82068e-03	6.71167e+02
4091	6.72037e+02	4.09100e+03	-3.72103e-03	6.71833e+02
4095	6.72704e+02	4.09500e+03	-3.70649e-03	6.72500e+02
4099	6.73362e+02	4.09900e+03	-3.73851e-03	6.73167e+02
4103	6.74025e+02	4.10300e+03	-3.75978e-03	6.73833e+02
4107	6.74687e+02	4.10700e+03	-3.73726e-03	6.74500e+02
4111	6.75346e+02	4.11100e+03	-3.71276e-03	6.75167e+02
4115	6.76008e+02	4.11500e+03	-3.70469e-03	6.75833e+02
4119	6.76676e+02	4.11900e+03	-3.73346e-03	6.76500e+02
4123	6.77334e+02	4.12300e+03	-3.82301e-03	6.77167e+02
4127	6.77999e+02	4.12700e+03	-3.92400e-03	6.77833e+02
4131	6.78663e+02	4.13100e+03	-3.97649e-03	6.78500e+02
4135	6.79325e+02	4.13500e+03	-3.98403e-03	6.79167e+02
4139	6.79986e+02	4.13900e+03	-4.00662e-03	6.79833e+02
4143	6.80641e+02	4.14300e+03	-4.04848e-03	6.80500e+02
4147	6.81316e+02	4.14700e+03	-4.09405e-03	6.81167e+02
4151	6.81974e+02	4.15100e+03	-4.08896e-03	6.81833e+02
4155	6.82642e+02	4.15500e+03	-4.06173e-03	6.82500e+02
4159	6.83316e+02	4.15900e+03	-4.02141e-03	6.83167e+02
4163	6.83970e+02	4.16300e+03	-3.94830e-03	6.83833e+02
4167	6.84632e+02	4.16700e+03	-3.89697e-03	6.84500e+02
4171	6.85295e+02	4.17100e+03	-3.83198e-03	6.85167e+02
4175	6.85962e+02	4.17500e+03	-3.80273e-03	6.85833e+02
4179	6.86629e+02	4.17900e+03	-3.86869e-03	6.86500e+02
4183	6.87301e+02	4.18300e+03	-3.99481e-03	6.87167e+02
4187	6.87967e+02	4.18700e+03	-4.11661e-03	6.87833e+02
4191	6.88632e+02	4.19100e+03	-4.16024e-03	6.88500e+02
4195	6.89286e+02	4.19500e+03	-4.12022e-03	6.89167e+02
4199	6.89954e+02	4.19900e+03	-3.99916e-03	6.89833e+02
4203	6.90626e+02	4.20300e+03	-3.84746e-03	6.90500e+02
4207	6.91289e+02	4.20700e+03	-3.75497e-03	6.91167e+02
4211	6.91938e+02	4.21100e+03	-3.75844e-03	6.91833e+02
4215	6.92610e+02	4.21500e+03	-3.82825e-03	6.92500e+02
4219	6.93270e+02	4.21900e+03	-3.90920e-03	6.93167e+02
4223	6.93936e+02	4.22300e+03	-3.98119e-03	6.93833e+02
4227	6.94594e+02	4.22700e+03	-4.06617e-03	6.94500e+02
4231	6.95266e+02	4.23100e+03	-4.13211e-03	6.95167e+02
4235	6.95839e+02	4.23500e+03	-4.15932e-03	6.95833e+02
4239	6.96280e+02	4.23900e+03	-4.11483e-03	6.96500e+02
4243	6.96772e+02	4.24300e+03	-4.00781e-03	6.97167e+02
4247	6.97184e+02	4.24700e+03	-4.02214e-03	6.97833e+02
4251	6.97546e+02	4.25100e+03	-4.08173e-03	6.98500e+02
4255	6.97888e+02	4.25500e+03	-4.07376e-03	6.99167e+02
4259	6.98169e+02	4.25900e+03	-4.09862e-03	6.99833e+02
4260	6.98234e+02	4.26000e+03	-4.11398e-03	7.00000e+02