File: Experiments/TUBS/tga_nonisotherm/tga_dynamic_n2_dyn5_piece_2mg_r2.txt
index	ts	t	weight	tr
[#]	[°C]	[s]	[mg]	[°C]
1083	1.31380e+02	1.08300e+03	2.04426e+00	1.30250e+02
1091	1.32054e+02	1.09100e+03	2.04410e+00	1.30917e+02
1099	1.32725e+02	1.09900e+03	2.04410e+00	1.31583e+02
1107	1.33400e+02	1.10700e+03	2.04404e+00	1.32250e+02
1115	1.34086e+02	1.11500e+03	2.04406e+00	1.32917e+02
1123	1.34743e+02	1.12300e+03	2.04401e+00	1.33583e+02
1131	1.35429e+02	1.13100e+03	2.04401e+00	1.34250e+02
1139	1.36087e+02	1.13900e+03	2.04400e+00	1.34917e+02
1147	1.36776e+02	1.14700e+03	2.04404e+00	1.35583e+02
1155	1.37442e+02	1.15500e+03	2.04393e+00	1.36250e+02
1163	1.38119e+02	1.16300e+03	2.04393e+00	1.36917e+02
1171	1.38802e+02	1.17100e+03	2.04393e+00	1.37583e+02
1179	1.39479e+02	1.17900e+03	2.04391e+00	1.38250e+02
1187	1.40148e+02	1.18700e+03	2.04402e+00	1.38917e+02
1195	1.40831e+02	1.19500e+03	2.04395e+00	1.39583e+02
1203	1.41505e+02	1.20300e+03	2.04387e+00	1.40250e+02
1211	1.42176e+02	1.21100e+03	2.04391e+00	1.40917e+02
1219	1.42858e+02	1.21900e+03	2.04382e+00	1.41583e+02
1227	1.43534e+02	1.22700e+03	2.04375e+00	1.42250e+02
1235	1.44196e+02	1.23500e+03	2.04360e+00	1.42917e+02
1243	1.44890e+02	1.24300e+03	2.04364e+00	1.43583e+02
1251	1.45563e+02	1.25100e+03	2.04377e+00	1.44250e+02
1259	1.46219e+02	1.25900e+03	2.04373e+00	1.44917e+02
1267	1.46911e+02	1.26700e+03	2.04363e+00	1.45583e+02
1275	1.47582e+02	1.27500e+03	2.04365e+00	1.46250e+02
1283	1.48252e+02	1.28300e+03	2.04356e+00	1.46917e+02
1291	1.48930e+02	1.29100e+03	2.04355e+00	1.47583e+02
1299	1.49597e+02	1.29900e+03	2.04348e+00	1.48250e+02
1307	1.50287e+02	1.30700e+03	2.04341e+00	1.48917e+02
1315	1.50954e+02	1.31500e+03	2.04351e+00	1.49583e+02
1323	1.51643e+02	1.32300e+03	2.04338e+00	1.50250e+02
1331	1.52308e+02	1.33100e+03	2.04329e+00	1.50917e+02
1339	1.52996e+02	1.33900e+03	2.04337e+00	1.51583e+02
1347	1.53668e+02	1.34700e+03	2.04337e+00	1.52250e+02
1355	1.54338e+02	1.35500e+03	2.04330e+00	1.52917e+02
1363	1.55012e+02	1.36300e+03	2.04326e+00	1.53583e+02
1371	1.55678e+02	1.37100e+03	2.04324e+00	1.54250e+02
1379	1.56365e+02	1.37900e+03	2.04305e+00	1.54917e+02
1387	1.57025e+02	1.38700e+03	2.04310e+00	1.55583e+02
1395	1.57714e+02	1.39500e+03	2.04289e+00	1.56250e+02
1403	1.58382e+02	1.40300e+03	2.04302e+00	1.56917e+02
1411	1.59059e+02	1.41100e+03	2.04300e+00	1.57583e+02
1419	1.59731e+02	1.41900e+03	2.04300e+00	1.58250e+02
1427	1.60413e+02	1.42700e+03	2.04297e+00	1.58917e+02
1435	1.61086e+02	1.43500e+03	2.04291e+00	1.59583e+02
1443	1.61752e+02	1.44300e+03	2.04284e+00	1.60250e+02
1451	1.62420e+02	1.45100e+03	2.04273e+00	1.60917e+02
1459	1.63099e+02	1.45900e+03	2.04251e+00	1.61583e+02
1467	1.63764e+02	1.46700e+03	2.04244e+00	1.62250e+02
1475	1.64447e+02	1.47500e+03	2.04229e+00	1.62917e+02
1483	1.65126e+02	1.48300e+03	2.04219e+00	1.63583e+02
1491	1.65795e+02	1.49100e+03	2.04212e+00	1.64250e+02
1499	1.66466e+02	1.49900e+03	2.04197e+00	1.64917e+02
1507	1.67141e+02	1.50700e+03	2.04187e+00	1.65583e+02
1515	1.67808e+02	1.51500e+03	2.04171e+00	1.66250e+02
1523	1.68488e+02	1.52300e+03	2.04151e+00	1.66917e+02
1531	1.69147e+02	1.53100e+03	2.04126e+00	1.67583e+02
1539	1.69833e+02	1.53900e+03	2.04094e+00	1.68250e+02
1547	1.70509e+02	1.54700e+03	2.04067e+00	1.68917e+02
1555	1.71174e+02	1.55500e+03	2.04046e+00	1.69583e+02
1563	1.71834e+02	1.56300e+03	2.04006e+00	1.70250e+02
1571	1.72510e+02	1.57100e+03	2.03974e+00	1.70917e+02
1579	1.73194e+02	1.57900e+03	2.03948e+00	1.71583e+02
1587	1.73863e+02	1.58700e+03	2.03900e+00	1.72250e+02
1595	1.74534e+02	1.59500e+03	2.03854e+00	1.72917e+02
1603	1.75209e+02	1.60300e+03	2.03816e+00	1.73583e+02
1611	1.75889e+02	1.61100e+03	2.03782e+00	1.74250e+02
1619	1.76566e+02	1.61900e+03	2.03741e+00	1.74917e+02
1627	1.77237e+02	1.62700e+03	2.03690e+00	1.75583e+02
1635	1.77909e+02	1.63500e+03	2.03641e+00	1.76250e+02
1643	1.78590e+02	1.64300e+03	2.03601e+00	1.76917e+02
1651	1.79253e+02	1.65100e+03	2.03556e+00	1.77583e+02
1659	1.79939e+02	1.65900e+03	2.03507e+00	1.78250e+02
1667	1.80600e+02	1.66700e+03	2.03453e+00	1.78917e+02
1675	1.81276e+02	1.67500e+03	2.03396e+00	1.79583e+02
1683	1.81948e+02	1.68300e+03	2.03333e+00	1.80250e+02
1691	1.82625e+02	1.69100e+03	2.03279e+00	1.80917e+02
1699	1.83301e+02	1.69900e+03	2.03227e+00	1.81583e+02
1707	1.83982e+02	1.70700e+03	2.03165e+00	1.82250e+02
1715	1.84638e+02	1.71500e+03	2.03093e+00	1.82917e+02
1723	1.85317e+02	1.72300e+03	2.03035e+00	1.83583e+02
1731	1.85993e+02	1.73100e+03	2.02990e+00	1.84250e+02
1739	1.86662e+02	1.73900e+03	2.02930e+00	1.84917e+02
1747	1.87329e+02	1.74700e+03	2.02861e+00	1.85583e+02
1755	1.88004e+02	1.75500e+03	2.02785e+00	1.86250e+02
1763	1.88691e+02	1.76300e+03	2.02730e+00	1.86917e+02
1771	1.89365e+02	1.77100e+03	2.02669e+00	1.87583e+02
1779	1.90031e+02	1.77900e+03	2.02610e+00	1.88250e+02
1787	1.90706e+02	1.78700e+03	2.02538e+00	1.88917e+02
1795	1.91389e+02	1.79500e+03	2.02470e+00	1.89583e+02
1803	1.92046e+02	1.80300e+03	2.02440e+00	1.90250e+02
1811	1.92733e+02	1.81100e+03	2.02355e+00	1.90917e+02
1819	1.93410e+02	1.81900e+03	2.02288e+00	1.91583e+02
1827	1.94083e+02	1.82700e+03	2.02227e+00	1.92250e+02
1835	1.94751e+02	1.83500e+03	2.02159e+00	1.92917e+02
1843	1.95441e+02	1.84300e+03	2.02096e+00	1.93583e+02
1851	1.96088e+02	1.85100e+03	2.02042e+00	1.94250e+02
1859	1.96775e+02	1.85900e+03	2.01980e+00	1.94917e+02
1867	1.97452e+02	1.86700e+03	2.01907e+00	1.95583e+02
1875	1.98115e+02	1.87500e+03	2.01838e+00	1.96250e+02
1883	1.98796e+02	1.88300e+03	2.01780e+00	1.96917e+02
1891	1.99466e+02	1.89100e+03	2.01713e+00	1.97583e+02
1899	2.00135e+02	1.89900e+03	2.01642e+00	1.98250e+02
1907	2.00815e+02	1.90700e+03	2.01564e+00	1.98917e+02
1915	2.01478e+02	1.91500e+03	2.01497e+00	1.99583e+02
1923	2.02155e+02	1.92300e+03	2.01437e+00	2.00250e+02
1931	2.02815e+02	1.93100e+03	2.01371e+00	2.00917e+02
1939	2.03498e+02	1.93900e+03	2.01287e+00	2.01583e+02
1947	2.04151e+02	1.94700e+03	2.01225e+00	2.02250e+02
1955	2.04807e+02	1.95500e+03	2.01156e+00	2.02917e+02
1963	2.05482e+02	1.96300e+03	2.01089e+00	2.03583e+02
1971	2.06146e+02	1.97100e+03	2.01026e+00	2.04250e+02
1979	2.06800e+02	1.97900e+03	2.00943e+00	2.04917e+02
1987	2.07467e+02	1.98700e+03	2.00877e+00	2.05583e+02
1995	2.08137e+02	1.99500e+03	2.00809e+00	2.06250e+02
2003	2.08797e+02	2.00300e+03	2.00733e+00	2.06917e+02
2011	2.09460e+02	2.01100e+03	2.00659e+00	2.07583e+02
2019	2.10115e+02	2.01900e+03	2.00590e+00	2.08250e+02
2027	2.10782e+02	2.02700e+03	2.00523e+00	2.08917e+02
2035	2.11455e+02	2.03500e+03	2.00440e+00	2.09583e+02
2043	2.12118e+02	2.04300e+03	2.00378e+00	2.10250e+02
2051	2.12773e+02	2.05100e+03	2.00314e+00	2.10917e+02
2059	2.13448e+02	2.05900e+03	2.00244e+00	2.11583e+02
2067	2.14117e+02	2.06700e+03	2.00177e+00	2.12250e+02
2075	2.14772e+02	2.07500e+03	2.00098e+00	2.12917e+02
2083	2.15438e+02	2.08300e+03	2.00023e+00	2.13583e+02
2091	2.16085e+02	2.09100e+03	1.99951e+00	2.14250e+02
2099	2.16755e+02	2.09900e+03	1.99881e+00	2.14917e+02
2107	2.17418e+02	2.10700e+03	1.99815e+00	2.15583e+02
2115	2.18099e+02	2.11500e+03	1.99747e+00	2.16250e+02
2123	2.18755e+02	2.12300e+03	1.99675e+00	2.16917e+02
2131	2.19411e+02	2.13100e+03	1.99610e+00	2.17583e+02
2139	2.20071e+02	2.13900e+03	1.99529e+00	2.18250e+02
2147	2.20745e+02	2.14700e+03	1.99451e+00	2.18917e+02
2155	2.21411e+02	2.15500e+03	1.99383e+00	2.19583e+02
2163	2.22077e+02	2.16300e+03	1.99322e+00	2.20250e+02
2171	2.22750e+02	2.17100e+03	1.99244e+00	2.20917e+02
2179	2.23418e+02	2.17900e+03	1.99178e+00	2.21583e+02
2187	2.24087e+02	2.18700e+03	1.99097e+00	2.22250e+02
2195	2.24765e+02	2.19500e+03	1.99027e+00	2.22917e+02
2203	2.25421e+02	2.20300e+03	1.98966e+00	2.23583e+02
2211	2.26091e+02	2.21100e+03	1.98896e+00	2.24250e+02
2219	2.26764e+02	2.21900e+03	1.98824e+00	2.24917e+02
2227	2.27430e+02	2.22700e+03	1.98741e+00	2.25583e+02
2235	2.28100e+02	2.23500e+03	1.98663e+00	2.26250e+02
2243	2.28751e+02	2.24300e+03	1.98608e+00	2.26917e+02
2251	2.29414e+02	2.25100e+03	1.98538e+00	2.27583e+02
2259	2.30078e+02	2.25900e+03	1.98458e+00	2.28250e+02
2267	2.30756e+02	2.26700e+03	1.98382e+00	2.28917e+02
2275	2.31416e+02	2.27500e+03	1.98321e+00	2.29583e+02
2283	2.32082e+02	2.28300e+03	1.98277e+00	2.30250e+02
2291	2.32733e+02	2.29100e+03	1.98202e+00	2.30917e+02
2299	2.33400e+02	2.29900e+03	1.98122e+00	2.31583e+02
2307	2.34059e+02	2.30700e+03	1.98052e+00	2.32250e+02
2315	2.34733e+02	2.31500e+03	1.97992e+00	2.32917e+02
2323	2.35395e+02	2.32300e+03	1.97925e+00	2.33583e+02
2331	2.36053e+02	2.33100e+03	1.97847e+00	2.34250e+02
2339	2.36737e+02	2.33900e+03	1.97780e+00	2.34917e+02
2347	2.37390e+02	2.34700e+03	1.97715e+00	2.35583e+02
2355	2.38061e+02	2.35500e+03	1.97643e+00	2.36250e+02
2363	2.38715e+02	2.36300e+03	1.97583e+00	2.36917e+02
2371	2.39378e+02	2.37100e+03	1.97530e+00	2.37583e+02
2379	2.40038e+02	2.37900e+03	1.97466e+00	2.38250e+02
2387	2.40714e+02	2.38700e+03	1.97391e+00	2.38917e+02
2395	2.41381e+02	2.39500e+03	1.97333e+00	2.39583e+02
2403	2.42052e+02	2.40300e+03	1.97277e+00	2.40250e+02
2411	2.42719e+02	2.41100e+03	1.97202e+00	2.40917e+02
2419	2.43373e+02	2.41900e+03	1.97140e+00	2.41583e+02
2427	2.44054e+02	2.42700e+03	1.97078e+00	2.42250e+02
2435	2.44708e+02	2.43500e+03	1.97008e+00	2.42917e+02
2443	2.45380e+02	2.44300e+03	1.96944e+00	2.43583e+02
2451	2.46054e+02	2.45100e+03	1.96883e+00	2.44250e+02
2459	2.46713e+02	2.45900e+03	1.96823e+00	2.44917e+02
2467	2.47377e+02	2.46700e+03	1.96761e+00	2.45583e+02
2475	2.48043e+02	2.47500e+03	1.96688e+00	2.46250e+02
2483	2.48714e+02	2.48300e+03	1.96644e+00	2.46917e+02
2491	2.49372e+02	2.49100e+03	1.96576e+00	2.47583e+02
2499	2.50030e+02	2.49900e+03	1.96519e+00	2.48250e+02
2507	2.50697e+02	2.50700e+03	1.96473e+00	2.48917e+02
2515	2.51358e+02	2.51500e+03	1.96405e+00	2.49583e+02
2523	2.52033e+02	2.52300e+03	1.96329e+00	2.50250e+02
2531	2.52704e+02	2.53100e+03	1.96260e+00	2.50917e+02
2539	2.53364e+02	2.53900e+03	1.96205e+00	2.51583e+02
2547	2.54028e+02	2.54700e+03	1.96142e+00	2.52250e+02
2555	2.54700e+02	2.55500e+03	1.96091e+00	2.52917e+02
2563	2.55346e+02	2.56300e+03	1.96028e+00	2.53583e+02
2571	2.56026e+02	2.57100e+03	1.95956e+00	2.54250e+02
2579	2.56696e+02	2.57900e+03	1.95903e+00	2.54917e+02
2587	2.57354e+02	2.58700e+03	1.95829e+00	2.55583e+02
2595	2.58026e+02	2.59500e+03	1.95768e+00	2.56250e+02
2603	2.58699e+02	2.60300e+03	1.95697e+00	2.56917e+02
2611	2.59367e+02	2.61100e+03	1.95638e+00	2.57583e+02
2619	2.60025e+02	2.61900e+03	1.95576e+00	2.58250e+02
2627	2.60716e+02	2.62700e+03	1.95511e+00	2.58917e+02
2635	2.61373e+02	2.63500e+03	1.95448e+00	2.59583e+02
2643	2.62049e+02	2.64300e+03	1.95393e+00	2.60250e+02
2651	2.62713e+02	2.65100e+03	1.95328e+00	2.60917e+02
2659	2.63378e+02	2.65900e+03	1.95249e+00	2.61583e+02
2667	2.64045e+02	2.66700e+03	1.95188e+00	2.62250e+02
2675	2.64710e+02	2.67500e+03	1.95119e+00	2.62917e+02
2683	2.65390e+02	2.68300e+03	1.95045e+00	2.63583e+02
2691	2.66065e+02	2.69100e+03	1.94975e+00	2.64250e+02
2699	2.66724e+02	2.69900e+03	1.94899e+00	2.64917e+02
2707	2.67397e+02	2.70700e+03	1.94824e+00	2.65583e+02
2715	2.68066e+02	2.71500e+03	1.94752e+00	2.66250e+02
2723	2.68740e+02	2.72300e+03	1.94670e+00	2.66917e+02
2731	2.69407e+02	2.73100e+03	1.94570e+00	2.67583e+02
2739	2.70076e+02	2.73900e+03	1.94489e+00	2.68250e+02
2747	2.70755e+02	2.74700e+03	1.94416e+00	2.68917e+02
2755	2.71416e+02	2.75500e+03	1.94335e+00	2.69583e+02
2763	2.72086e+02	2.76300e+03	1.94246e+00	2.70250e+02
2771	2.72752e+02	2.77100e+03	1.94133e+00	2.70917e+02
2779	2.73425e+02	2.77900e+03	1.94043e+00	2.71583e+02
2787	2.74107e+02	2.78700e+03	1.93954e+00	2.72250e+02
2795	2.74793e+02	2.79500e+03	1.93867e+00	2.72917e+02
2803	2.75468e+02	2.80300e+03	1.93767e+00	2.73583e+02
2811	2.76167e+02	2.81100e+03	1.93650e+00	2.74250e+02
2819	2.76835e+02	2.81900e+03	1.93547e+00	2.74917e+02
2827	2.77560e+02	2.82700e+03	1.93443e+00	2.75583e+02
2835	2.78228e+02	2.83500e+03	1.93335e+00	2.76250e+02
2843	2.78898e+02	2.84300e+03	1.93212e+00	2.76917e+02
2851	2.79568e+02	2.85100e+03	1.93089e+00	2.77583e+02
2859	2.80239e+02	2.85900e+03	1.92960e+00	2.78250e+02
2867	2.80910e+02	2.86700e+03	1.92838e+00	2.78917e+02
2875	2.81567e+02	2.87500e+03	1.92704e+00	2.79583e+02
2883	2.82229e+02	2.88300e+03	1.92562e+00	2.80250e+02
2891	2.82913e+02	2.89100e+03	1.92411e+00	2.80917e+02
2899	2.83616e+02	2.89900e+03	1.92287e+00	2.81583e+02
2907	2.84365e+02	2.90700e+03	1.92139e+00	2.82250e+02
2915	2.85066e+02	2.91500e+03	1.91982e+00	2.82917e+02
2923	2.85739e+02	2.92300e+03	1.91840e+00	2.83583e+02
2931	2.86420e+02	2.93100e+03	1.91680e+00	2.84250e+02
2939	2.87114e+02	2.93900e+03	1.91496e+00	2.84917e+02
2947	2.87796e+02	2.94700e+03	1.91336e+00	2.85583e+02
2955	2.88472e+02	2.95500e+03	1.91163e+00	2.86250e+02
2963	2.89183e+02	2.96300e+03	1.90999e+00	2.86917e+02
2971	2.89845e+02	2.97100e+03	1.90831e+00	2.87583e+02
2979	2.90519e+02	2.97900e+03	1.90659e+00	2.88250e+02
2987	2.91225e+02	2.98700e+03	1.90482e+00	2.88917e+02
2995	2.91921e+02	2.99500e+03	1.90310e+00	2.89583e+02
3003	2.92636e+02	3.00300e+03	1.90130e+00	2.90250e+02
3011	2.93315e+02	3.01100e+03	1.89936e+00	2.90917e+02
3019	2.94002e+02	3.01900e+03	1.89738e+00	2.91583e+02
3027	2.94673e+02	3.02700e+03	1.89544e+00	2.92250e+02
3035	2.95339e+02	3.03500e+03	1.89353e+00	2.92917e+02
3043	2.96004e+02	3.04300e+03	1.89165e+00	2.93583e+02
3051	2.96662e+02	3.05100e+03	1.88973e+00	2.94250e+02
3059	2.97345e+02	3.05900e+03	1.88775e+00	2.94917e+02
3067	2.97999e+02	3.06700e+03	1.88573e+00	2.95583e+02
3075	2.98670e+02	3.07500e+03	1.88374e+00	2.96250e+02
3083	2.99346e+02	3.08300e+03	1.88166e+00	2.96917e+02
3091	3.00025e+02	3.09100e+03	1.87969e+00	2.97583e+02
3099	3.00701e+02	3.09900e+03	1.87775e+00	2.98250e+02
3107	3.01369e+02	3.10700e+03	1.87568e+00	2.98917e+02
3115	3.02033e+02	3.11500e+03	1.87363e+00	2.99583e+02
3123	3.02701e+02	3.12300e+03	1.87168e+00	3.00250e+02
3131	3.03362e+02	3.13100e+03	1.86960e+00	3.00917e+02
3139	3.04027e+02	3.13900e+03	1.86750e+00	3.01583e+02
3147	3.04709e+02	3.14700e+03	1.86537e+00	3.02250e+02
3155	3.05372e+02	3.15500e+03	1.86335e+00	3.02917e+02
3163	3.06029e+02	3.16300e+03	1.86127e+00	3.03583e+02
3171	3.06679e+02	3.17100e+03	1.85915e+00	3.04250e+02
3179	3.07343e+02	3.17900e+03	1.85687e+00	3.04917e+02
3187	3.08006e+02	3.18700e+03	1.85462e+00	3.05583e+02
3195	3.08692e+02	3.19500e+03	1.85225e+00	3.06250e+02
3203	3.09371e+02	3.20300e+03	1.84991e+00	3.06917e+02
3211	3.10049e+02	3.21100e+03	1.84772e+00	3.07583e+02
3219	3.10728e+02	3.21900e+03	1.84524e+00	3.08250e+02
3227	3.11401e+02	3.22700e+03	1.84273e+00	3.08917e+02
3235	3.12081e+02	3.23500e+03	1.84023e+00	3.09583e+02
3243	3.12758e+02	3.24300e+03	1.83759e+00	3.10250e+02
3251	3.13447e+02	3.25100e+03	1.83492e+00	3.10917e+02
3259	3.14135e+02	3.25900e+03	1.83214e+00	3.11583e+02
3267	3.14794e+02	3.26700e+03	1.82934e+00	3.12250e+02
3275	3.15494e+02	3.27500e+03	1.82640e+00	3.12917e+02
3283	3.16198e+02	3.28300e+03	1.82324e+00	3.13583e+02
3291	3.16867e+02	3.29100e+03	1.82006e+00	3.14250e+02
3299	3.17555e+02	3.29900e+03	1.81689e+00	3.14917e+02
3307	3.18233e+02	3.30700e+03	1.81347e+00	3.15583e+02
3315	3.18904e+02	3.31500e+03	1.80992e+00	3.16250e+02
3323	3.19590e+02	3.32300e+03	1.80623e+00	3.16917e+02
3331	3.20268e+02	3.33100e+03	1.80233e+00	3.17583e+02
3339	3.20941e+02	3.33900e+03	1.79832e+00	3.18250e+02
3347	3.21620e+02	3.34700e+03	1.79424e+00	3.18917e+02
3355	3.22283e+02	3.35500e+03	1.78995e+00	3.19583e+02
3363	3.22944e+02	3.36300e+03	1.78549e+00	3.20250e+02
3371	3.23608e+02	3.37100e+03	1.78079e+00	3.20917e+02
3379	3.24295e+02	3.37900e+03	1.77596e+00	3.21583e+02
3387	3.24987e+02	3.38700e+03	1.77092e+00	3.22250e+02
3395	3.25676e+02	3.39500e+03	1.76564e+00	3.22917e+02
3403	3.26342e+02	3.40300e+03	1.76029e+00	3.23583e+02
3411	3.27038e+02	3.41100e+03	1.75452e+00	3.24250e+02
3419	3.27698e+02	3.41900e+03	1.74850e+00	3.24917e+02
3427	3.28362e+02	3.42700e+03	1.74221e+00	3.25583e+02
3435	3.29054e+02	3.43500e+03	1.73578e+00	3.26250e+02
3443	3.29758e+02	3.44300e+03	1.72908e+00	3.26917e+02
3451	3.30436e+02	3.45100e+03	1.72188e+00	3.27583e+02
3459	3.31090e+02	3.45900e+03	1.71451e+00	3.28250e+02
3467	3.31736e+02	3.46700e+03	1.70679e+00	3.28917e+02
3475	3.32377e+02	3.47500e+03	1.69875e+00	3.29583e+02
3483	3.33026e+02	3.48300e+03	1.69046e+00	3.30250e+02
3491	3.33670e+02	3.49100e+03	1.68161e+00	3.30917e+02
3499	3.34304e+02	3.49900e+03	1.67245e+00	3.31583e+02
3507	3.34945e+02	3.50700e+03	1.66302e+00	3.32250e+02
3515	3.35598e+02	3.51500e+03	1.65307e+00	3.32917e+02
3523	3.36289e+02	3.52300e+03	1.64276e+00	3.33583e+02
3531	3.36919e+02	3.53100e+03	1.63199e+00	3.34250e+02
3539	3.37581e+02	3.53900e+03	1.62088e+00	3.34917e+02
3547	3.38227e+02	3.54700e+03	1.60941e+00	3.35583e+02
3555	3.38887e+02	3.55500e+03	1.59730e+00	3.36250e+02
3563	3.39550e+02	3.56300e+03	1.58465e+00	3.36917e+02
3571	3.40206e+02	3.57100e+03	1.57151e+00	3.37583e+02
3579	3.40880e+02	3.57900e+03	1.55796e+00	3.38250e+02
3587	3.41547e+02	3.58700e+03	1.54407e+00	3.38917e+02
3595	3.42209e+02	3.59500e+03	1.52942e+00	3.39583e+02
3603	3.42871e+02	3.60300e+03	1.51409e+00	3.40250e+02
3611	3.43520e+02	3.61100e+03	1.49810e+00	3.40917e+02
3619	3.44184e+02	3.61900e+03	1.48182e+00	3.41583e+02
3627	3.44862e+02	3.62700e+03	1.46498e+00	3.42250e+02
3635	3.45540e+02	3.63500e+03	1.44758e+00	3.42917e+02
3643	3.46214e+02	3.64300e+03	1.42979e+00	3.43583e+02
3651	3.46884e+02	3.65100e+03	1.41133e+00	3.44250e+02
3659	3.47577e+02	3.65900e+03	1.39221e+00	3.44917e+02
3667	3.48227e+02	3.66700e+03	1.37251e+00	3.45583e+02
3675	3.48881e+02	3.67500e+03	1.35217e+00	3.46250e+02
3683	3.49546e+02	3.68300e+03	1.33108e+00	3.46917e+02
3691	3.50219e+02	3.69100e+03	1.30972e+00	3.47583e+02
3699	3.50888e+02	3.69900e+03	1.28795e+00	3.48250e+02
3707	3.51534e+02	3.70700e+03	1.26544e+00	3.48917e+02
3715	3.52184e+02	3.71500e+03	1.24265e+00	3.49583e+02
3723	3.52848e+02	3.72300e+03	1.21955e+00	3.50250e+02
3731	3.53505e+02	3.73100e+03	1.19603e+00	3.50917e+02
3739	3.54164e+02	3.73900e+03	1.17202e+00	3.51583e+02
3747	3.54863e+02	3.74700e+03	1.14746e+00	3.52250e+02
3755	3.55538e+02	3.75500e+03	1.12232e+00	3.52917e+02
3763	3.56186e+02	3.76300e+03	1.09698e+00	3.53583e+02
3771	3.56841e+02	3.77100e+03	1.07149e+00	3.54250e+02
3779	3.57492e+02	3.77900e+03	1.04556e+00	3.54917e+02
3787	3.58168e+02	3.78700e+03	1.01924e+00	3.55583e+02
3795	3.58852e+02	3.79500e+03	9.92886e-01	3.56250e+02
3803	3.59579e+02	3.80300e+03	9.66400e-01	3.56917e+02
3811	3.60327e+02	3.81100e+03	9.40150e-01	3.57583e+02
3819	3.60958e+02	3.81900e+03	9.13584e-01	3.58250e+02
3827	3.61662e+02	3.82700e+03	8.86710e-01	3.58917e+02
3835	3.62354e+02	3.83500e+03	8.59741e-01	3.59583e+02
3843	3.63029e+02	3.84300e+03	8.32869e-01	3.60250e+02
3851	3.63716e+02	3.85100e+03	8.05987e-01	3.60917e+02
3859	3.64402e+02	3.85900e+03	7.79167e-01	3.61583e+02
3867	3.65118e+02	3.86700e+03	7.52847e-01	3.62250e+02
3875	3.65829e+02	3.87500e+03	7.26516e-01	3.62917e+02
3883	3.66534e+02	3.88300e+03	6.99522e-01	3.63583e+02
3891	3.67225e+02	3.89100e+03	6.72774e-01	3.64250e+02
3899	3.67926e+02	3.89900e+03	6.46728e-01	3.64917e+02
3907	3.68604e+02	3.90700e+03	6.20270e-01	3.65583e+02
3915	3.69270e+02	3.91500e+03	5.94526e-01	3.66250e+02
3923	3.69934e+02	3.92300e+03	5.68564e-01	3.66917e+02
3931	3.70611e+02	3.93100e+03	5.43545e-01	3.67583e+02
3939	3.71259e+02	3.93900e+03	5.19314e-01	3.68250e+02
3947	3.71931e+02	3.94700e+03	4.95233e-01	3.68917e+02
3955	3.72597e+02	3.95500e+03	4.71714e-01	3.69583e+02
3963	3.73267e+02	3.96300e+03	4.48872e-01	3.70250e+02
3971	3.73945e+02	3.97100e+03	4.26473e-01	3.70917e+02
3979	3.74629e+02	3.97900e+03	4.04589e-01	3.71583e+02
3987	3.75341e+02	3.98700e+03	3.83804e-01	3.72250e+02
3995	3.76069e+02	3.99500e+03	3.63465e-01	3.72917e+02
4003	3.76780e+02	4.00300e+03	3.44093e-01	3.73583e+02
4011	3.77491e+02	4.01100e+03	3.25567e-01	3.74250e+02
4019	3.78163e+02	4.01900e+03	3.07716e-01	3.74917e+02
4027	3.78847e+02	4.02700e+03	2.90618e-01	3.75583e+02
4035	3.79521e+02	4.03500e+03	2.74393e-01	3.76250e+02
4043	3.80174e+02	4.04300e+03	2.58868e-01	3.76917e+02
4051	3.80851e+02	4.05100e+03	2.44121e-01	3.77583e+02
4059	3.81520e+02	4.05900e+03	2.29940e-01	3.78250e+02
4067	3.82170e+02	4.06700e+03	2.16556e-01	3.78917e+02
4075	3.82828e+02	4.07500e+03	2.03994e-01	3.79583e+02
4083	3.83507e+02	4.08300e+03	1.92171e-01	3.80250e+02
4091	3.84181e+02	4.09100e+03	1.80858e-01	3.80917e+02
4099	3.84859e+02	4.09900e+03	1.70241e-01	3.81583e+02
4107	3.85527e+02	4.10700e+03	1.60364e-01	3.82250e+02
4115	3.86203e+02	4.11500e+03	1.50675e-01	3.82917e+02
4123	3.86893e+02	4.12300e+03	1.41586e-01	3.83583e+02
4131	3.87572e+02	4.13100e+03	1.33156e-01	3.84250e+02
4139	3.88252e+02	4.13900e+03	1.25466e-01	3.84917e+02
4147	3.88908e+02	4.14700e+03	1.18311e-01	3.85583e+02
4155	3.89560e+02	4.15500e+03	1.11360e-01	3.86250e+02
4163	3.90252e+02	4.16300e+03	1.04879e-01	3.86917e+02
4171	3.90922e+02	4.17100e+03	9.88282e-02	3.87583e+02
4179	3.91604e+02	4.17900e+03	9.32877e-02	3.88250e+02
4187	3.92282e+02	4.18700e+03	8.79673e-02	3.88917e+02
4195	3.92962e+02	4.19500e+03	8.30241e-02	3.89583e+02
4203	3.93628e+02	4.20300e+03	7.83766e-02	3.90250e+02
4211	3.94294e+02	4.21100e+03	7.40374e-02	3.90917e+02
4219	3.94974e+02	4.21900e+03	6.99513e-02	3.91583e+02
4227	3.95648e+02	4.22700e+03	6.59484e-02	3.92250e+02
4235	3.96317e+02	4.23500e+03	6.24978e-02	3.92917e+02
4243	3.96993e+02	4.24300e+03	5.92558e-02	3.93583e+02
4251	3.97689e+02	4.25100e+03	5.61600e-02	3.94250e+02
4259	3.98380e+02	4.25900e+03	5.32391e-02	3.94917e+02
4267	3.99086e+02	4.26700e+03	5.05644e-02	3.95583e+02
4275	3.99805e+02	4.27500e+03	4.79297e-02	3.96250e+02
4283	4.00511e+02	4.28300e+03	4.54292e-02	3.96917e+02
4291	4.01189e+02	4.29100e+03	4.32709e-02	3.97583e+02
4299	4.01880e+02	4.29900e+03	4.11801e-02	3.98250e+02
4307	4.02563e+02	4.30700e+03	3.92232e-02	3.98917e+02
4315	4.03235e+02	4.31500e+03	3.73373e-02	3.99583e+02
4323	4.03912e+02	4.32300e+03	3.55680e-02	4.00250e+02
4331	4.04638e+02	4.33100e+03	3.37759e-02	4.00917e+02
4339	4.05336e+02	4.33900e+03	3.21586e-02	4.01583e+02
4347	4.06048e+02	4.34700e+03	3.06517e-02	4.02250e+02
4355	4.06800e+02	4.35500e+03	2.94154e-02	4.02917e+02
4363	4.07521e+02	4.36300e+03	2.81354e-02	4.03583e+02
4371	4.08257e+02	4.37100e+03	2.68493e-02	4.04250e+02
4379	4.08900e+02	4.37900e+03	2.55310e-02	4.04917e+02
4387	4.09608e+02	4.38700e+03	2.43936e-02	4.05583e+02
4395	4.10337e+02	4.39500e+03	2.32352e-02	4.06250e+02
4403	4.11325e+02	4.40300e+03	2.20419e-02	4.06917e+02
4411	4.11913e+02	4.41100e+03	2.11543e-02	4.07583e+02
4419	4.12628e+02	4.41900e+03	2.03388e-02	4.08250e+02
4427	4.13246e+02	4.42700e+03	1.94938e-02	4.08917e+02
4435	4.14063e+02	4.43500e+03	1.85863e-02	4.09583e+02
4443	4.14732e+02	4.44300e+03	1.77754e-02	4.10250e+02
4451	4.15320e+02	4.45100e+03	1.67922e-02	4.10917e+02
4459	4.15932e+02	4.45900e+03	1.59953e-02	4.11583e+02
4467	4.16523e+02	4.46700e+03	1.51944e-02	4.12250e+02
4475	4.17087e+02	4.47500e+03	1.45082e-02	4.12917e+02
4483	4.17676e+02	4.48300e+03	1.39452e-02	4.13583e+02
4491	4.18293e+02	4.49100e+03	1.32239e-02	4.14250e+02
4499	4.18912e+02	4.49900e+03	1.25845e-02	4.14917e+02
4507	4.19547e+02	4.50700e+03	1.20196e-02	4.15583e+02
4515	4.20190e+02	4.51500e+03	1.15077e-02	4.16250e+02
4523	4.20831e+02	4.52300e+03	1.10934e-02	4.16917e+02
4531	4.21507e+02	4.53100e+03	1.04040e-02	4.17583e+02
4539	4.22265e+02	4.53900e+03	9.81996e-03	4.18250e+02
4547	4.23017e+02	4.54700e+03	9.38595e-03	4.18917e+02
4555	4.23660e+02	4.55500e+03	9.12695e-03	4.19583e+02
4563	4.24224e+02	4.56300e+03	8.77550e-03	4.20250e+02
4571	4.24749e+02	4.57100e+03	8.29896e-03	4.20917e+02
4579	4.25347e+02	4.57900e+03	8.11933e-03	4.21583e+02
4587	4.25914e+02	4.58700e+03	8.03020e-03	4.22250e+02
4595	4.26525e+02	4.59500e+03	7.88038e-03	4.22917e+02
4603	4.27137e+02	4.60300e+03	7.73515e-03	4.23583e+02
4611	4.27728e+02	4.61100e+03	7.57788e-03	4.24250e+02
4619	4.28313e+02	4.61900e+03	7.42813e-03	4.24917e+02
4627	4.28919e+02	4.62700e+03	7.55749e-03	4.25583e+02
4635	4.29534e+02	4.63500e+03	7.44622e-03	4.26250e+02
4643	4.30117e+02	4.64300e+03	7.26992e-03	4.26917e+02
4651	4.30732e+02	4.65100e+03	6.71618e-03	4.27583e+02
4659	4.31357e+02	4.65900e+03	6.80397e-03	4.28250e+02
4667	4.31993e+02	4.66700e+03	7.60127e-03	4.28917e+02
4675	4.32618e+02	4.67500e+03	7.43627e-03	4.29583e+02
4683	4.33219e+02	4.68300e+03	7.09277e-03	4.30250e+02
4691	4.33861e+02	4.69100e+03	7.05621e-03	4.30917e+02
4699	4.34502e+02	4.69900e+03	6.91375e-03	4.31583e+02
4707	4.35124e+02	4.70700e+03	7.02092e-03	4.32250e+02
4715	4.35763e+02	4.71500e+03	7.02191e-03	4.32917e+02
4723	4.36229e+02	4.72300e+03	6.17169e-03	4.33583e+02
4731	4.36635e+02	4.73100e+03	6.64099e-03	4.34250e+02
4739	4.37225e+02	4.73900e+03	7.24765e-03	4.34917e+02
4747	4.37841e+02	4.74700e+03	6.71973e-03	4.35583e+02
4755	4.38456e+02	4.75500e+03	6.54811e-03	4.36250e+02
4763	4.39091e+02	4.76300e+03	6.63382e-03	4.36917e+02
4771	4.39724e+02	4.77100e+03	6.68852e-03	4.37583e+02
4779	4.40367e+02	4.77900e+03	6.83371e-03	4.38250e+02
4787	4.41027e+02	4.78700e+03	6.74035e-03	4.38917e+02
4795	4.41658e+02	4.79500e+03	6.58705e-03	4.39583e+02
4803	4.42309e+02	4.80300e+03	6.46543e-03	4.40250e+02
4811	4.42967e+02	4.81100e+03	6.40695e-03	4.40917e+02
4819	4.43611e+02	4.81900e+03	5.98320e-03	4.41583e+02
4827	4.44262e+02	4.82700e+03	5.88588e-03	4.42250e+02
4835	4.44920e+02	4.83500e+03	6.15603e-03	4.42917e+02
4843	4.45555e+02	4.84300e+03	6.51166e-03	4.43583e+02
4851	4.46216e+02	4.85100e+03	6.81568e-03	4.44250e+02
4859	4.46862e+02	4.85900e+03	6.54905e-03	4.44917e+02
4867	4.47505e+02	4.86700e+03	6.30732e-03	4.45583e+02
4875	4.48153e+02	4.87500e+03	6.29739e-03	4.46250e+02
4883	4.48803e+02	4.88300e+03	6.44120e-03	4.46917e+02
4891	4.49449e+02	4.89100e+03	6.41515e-03	4.47583e+02
4899	4.50104e+02	4.89900e+03	6.24031e-03	4.48250e+02
4907	4.50739e+02	4.90700e+03	6.24886e-03	4.48917e+02
4915	4.51381e+02	4.91500e+03	6.19073e-03	4.49583e+02
4923	4.52033e+02	4.92300e+03	6.15068e-03	4.50250e+02
4931	4.52680e+02	4.93100e+03	6.17101e-03	4.50917e+02
4939	4.53336e+02	4.93900e+03	6.07653e-03	4.51583e+02
4947	4.53989e+02	4.94700e+03	6.14516e-03	4.52250e+02
4955	4.54632e+02	4.95500e+03	6.03526e-03	4.52917e+02
4963	4.55272e+02	4.96300e+03	5.99089e-03	4.53583e+02
4971	4.55914e+02	4.97100e+03	6.10099e-03	4.54250e+02
4979	4.56567e+02	4.97900e+03	6.19346e-03	4.54917e+02
4987	4.57229e+02	4.98700e+03	6.18744e-03	4.55583e+02
4995	4.57865e+02	4.99500e+03	6.10296e-03	4.56250e+02
5003	4.58528e+02	5.00300e+03	5.97644e-03	4.56917e+02
5011	4.59186e+02	5.01100e+03	5.97356e-03	4.57583e+02
5019	4.59836e+02	5.01900e+03	6.01807e-03	4.58250e+02
5027	4.60496e+02	5.02700e+03	6.06613e-03	4.58917e+02
5035	4.61136e+02	5.03500e+03	6.04783e-03	4.59583e+02
5043	4.61796e+02	5.04300e+03	6.11712e-03	4.60250e+02
5051	4.62456e+02	5.05100e+03	6.17115e-03	4.60917e+02
5059	4.63104e+02	5.05900e+03	6.03855e-03	4.61583e+02
5067	4.63769e+02	5.06700e+03	5.99498e-03	4.62250e+02
5075	4.64420e+02	5.07500e+03	6.02078e-03	4.62917e+02
5083	4.65081e+02	5.08300e+03	5.92010e-03	4.63583e+02
5091	4.65724e+02	5.09100e+03	5.85413e-03	4.64250e+02
5099	4.66398e+02	5.09900e+03	5.99788e-03	4.64917e+02
5107	4.67064e+02	5.10700e+03	6.09047e-03	4.65583e+02
5115	4.67719e+02	5.11500e+03	6.02069e-03	4.66250e+02
5123	4.68365e+02	5.12300e+03	5.82872e-03	4.66917e+02
5131	4.69018e+02	5.13100e+03	5.79710e-03	4.67583e+02
5139	4.69678e+02	5.13900e+03	5.86296e-03	4.68250e+02
5147	4.70337e+02	5.14700e+03	5.90761e-03	4.68917e+02
5155	4.70990e+02	5.15500e+03	5.83584e-03	4.69583e+02
5163	4.71637e+02	5.16300e+03	5.60787e-03	4.70250e+02
5171	4.72301e+02	5.17100e+03	5.61936e-03	4.70917e+02
5179	4.72971e+02	5.17900e+03	5.83339e-03	4.71583e+02
5187	4.73633e+02	5.18700e+03	5.72406e-03	4.72250e+02
5195	4.74306e+02	5.19500e+03	5.75767e-03	4.72917e+02
5203	4.74969e+02	5.20300e+03	5.78711e-03	4.73583e+02
5211	4.75634e+02	5.21100e+03	5.73560e-03	4.74250e+02
5219	4.76289e+02	5.21900e+03	5.65693e-03	4.74917e+02
5227	4.76951e+02	5.22700e+03	5.68398e-03	4.75583e+02
5235	4.77611e+02	5.23500e+03	5.80401e-03	4.76250e+02
5243	4.78254e+02	5.24300e+03	5.81952e-03	4.76917e+02
5251	4.78920e+02	5.25100e+03	5.72048e-03	4.77583e+02
5259	4.79579e+02	5.25900e+03	5.58662e-03	4.78250e+02
5267	4.80228e+02	5.26700e+03	5.68305e-03	4.78917e+02
5275	4.80893e+02	5.27500e+03	5.71480e-03	4.79583e+02
5283	4.81545e+02	5.28300e+03	5.61543e-03	4.80250e+02
5291	4.82215e+02	5.29100e+03	5.53164e-03	4.80917e+02
5299	4.82872e+02	5.29900e+03	5.64733e-03	4.81583e+02
5307	4.83541e+02	5.30700e+03	5.81921e-03	4.82250e+02
5315	4.84191e+02	5.31500e+03	5.76955e-03	4.82917e+02
5323	4.84848e+02	5.32300e+03	5.83034e-03	4.83583e+02
5331	4.85514e+02	5.33100e+03	5.74378e-03	4.84250e+02
5339	4.86167e+02	5.33900e+03	5.63354e-03	4.84917e+02
5347	4.86823e+02	5.34700e+03	5.68332e-03	4.85583e+02
5355	4.87500e+02	5.35500e+03	5.72681e-03	4.86250e+02
5363	4.88148e+02	5.36300e+03	5.63338e-03	4.86917e+02
5371	4.88805e+02	5.37100e+03	5.58610e-03	4.87583e+02
5379	4.89462e+02	5.37900e+03	5.56241e-03	4.88250e+02
5387	4.90117e+02	5.38700e+03	5.49779e-03	4.88917e+02
5395	4.90778e+02	5.39500e+03	5.57230e-03	4.89583e+02
5403	4.91447e+02	5.40300e+03	5.51002e-03	4.90250e+02
5411	4.92096e+02	5.41100e+03	5.52107e-03	4.90917e+02
5419	4.92764e+02	5.41900e+03	5.56036e-03	4.91583e+02
5427	4.93423e+02	5.42700e+03	5.64050e-03	4.92250e+02
5435	4.94079e+02	5.43500e+03	5.57611e-03	4.92917e+02
5443	4.94727e+02	5.44300e+03	5.57278e-03	4.93583e+02
5451	4.95380e+02	5.45100e+03	5.53585e-03	4.94250e+02
5459	4.96029e+02	5.45900e+03	5.44399e-03	4.94917e+02
5467	4.96684e+02	5.46700e+03	5.50023e-03	4.95583e+02
5475	4.97329e+02	5.47500e+03	5.44226e-03	4.96250e+02
5483	4.97997e+02	5.48300e+03	5.46929e-03	4.96917e+02
5491	4.98655e+02	5.49100e+03	5.39226e-03	4.97583e+02
5499	4.99316e+02	5.49900e+03	5.39772e-03	4.98250e+02
5507	4.99973e+02	5.50700e+03	5.44893e-03	4.98917e+02
5515	5.00633e+02	5.51500e+03	5.33248e-03	4.99583e+02
5523	5.01289e+02	5.52300e+03	5.27956e-03	5.00250e+02
5531	5.01943e+02	5.53100e+03	5.25180e-03	5.00917e+02
5539	5.02604e+02	5.53900e+03	5.38569e-03	5.01583e+02
5547	5.03262e+02	5.54700e+03	5.40521e-03	5.02250e+02
5555	5.03917e+02	5.55500e+03	5.45061e-03	5.02917e+02
5563	5.04579e+02	5.56300e+03	5.49262e-03	5.03583e+02
5571	5.05232e+02	5.57100e+03	5.40699e-03	5.04250e+02
5579	5.05891e+02	5.57900e+03	5.37457e-03	5.04917e+02
5587	5.06550e+02	5.58700e+03	5.43160e-03	5.05583e+02
5595	5.07214e+02	5.59500e+03	5.33271e-03	5.06250e+02
5603	5.07869e+02	5.60300e+03	5.40434e-03	5.06917e+02
5611	5.08513e+02	5.61100e+03	5.36579e-03	5.07583e+02
5619	5.09177e+02	5.61900e+03	5.41875e-03	5.08250e+02
5627	5.09838e+02	5.62700e+03	5.44396e-03	5.08917e+02
5635	5.10486e+02	5.63500e+03	5.36216e-03	5.09583e+02
5643	5.11138e+02	5.64300e+03	5.40922e-03	5.10250e+02
5651	5.11802e+02	5.65100e+03	5.50389e-03	5.10917e+02
5659	5.12460e+02	5.65900e+03	5.35327e-03	5.11583e+02
5667	5.13119e+02	5.66700e+03	5.30974e-03	5.12250e+02
5675	5.13788e+02	5.67500e+03	5.43627e-03	5.12917e+02
5683	5.14445e+02	5.68300e+03	5.57735e-03	5.13583e+02
5691	5.15094e+02	5.69100e+03	5.55182e-03	5.14250e+02
5699	5.15755e+02	5.69900e+03	5.53213e-03	5.14917e+02
5707	5.16419e+02	5.70700e+03	5.46363e-03	5.15583e+02
5715	5.17072e+02	5.71500e+03	5.52505e-03	5.16250e+02
5723	5.17725e+02	5.72300e+03	5.53380e-03	5.16917e+02
5731	5.18391e+02	5.73100e+03	5.61253e-03	5.17583e+02
5739	5.19057e+02	5.73900e+03	5.60772e-03	5.18250e+02
5747	5.19716e+02	5.74700e+03	5.54079e-03	5.18917e+02
5755	5.20382e+02	5.75500e+03	5.54606e-03	5.19583e+02
5763	5.21041e+02	5.76300e+03	5.53152e-03	5.20250e+02
5771	5.21712e+02	5.77100e+03	5.41962e-03	5.20917e+02
5779	5.22380e+02	5.77900e+03	5.36683e-03	5.21583e+02
5787	5.23053e+02	5.78700e+03	5.48899e-03	5.22250e+02
5795	5.23717e+02	5.79500e+03	5.33854e-03	5.22917e+02
5803	5.24383e+02	5.80300e+03	5.22294e-03	5.23583e+02
5811	5.25036e+02	5.81100e+03	5.33870e-03	5.24250e+02
5819	5.25692e+02	5.81900e+03	5.29603e-03	5.24917e+02
5827	5.26361e+02	5.82700e+03	5.30136e-03	5.25583e+02
5835	5.27034e+02	5.83500e+03	5.38699e-03	5.26250e+02
5843	5.27697e+02	5.84300e+03	5.32103e-03	5.26917e+02
5851	5.28359e+02	5.85100e+03	5.37299e-03	5.27583e+02
5859	5.29032e+02	5.85900e+03	5.42701e-03	5.28250e+02
5867	5.29696e+02	5.86700e+03	5.39394e-03	5.28917e+02
5875	5.30353e+02	5.87500e+03	5.17947e-03	5.29583e+02
5883	5.31028e+02	5.88300e+03	5.23388e-03	5.30250e+02
5891	5.31687e+02	5.89100e+03	5.32548e-03	5.30917e+02
5899	5.32358e+02	5.89900e+03	5.47533e-03	5.31583e+02
5907	5.33013e+02	5.90700e+03	5.41354e-03	5.32250e+02
5915	5.33689e+02	5.91500e+03	5.36252e-03	5.32917e+02
5923	5.34352e+02	5.92300e+03	5.34477e-03	5.33583e+02
5931	5.35013e+02	5.93100e+03	5.30105e-03	5.34250e+02
5939	5.35693e+02	5.93900e+03	5.23266e-03	5.34917e+02
5947	5.36353e+02	5.94700e+03	5.10141e-03	5.35583e+02
5955	5.37007e+02	5.95500e+03	5.14306e-03	5.36250e+02
5963	5.37673e+02	5.96300e+03	5.38887e-03	5.36917e+02
5971	5.38327e+02	5.97100e+03	5.70363e-03	5.37583e+02
5979	5.38991e+02	5.97900e+03	5.52101e-03	5.38250e+02
5987	5.39648e+02	5.98700e+03	5.37242e-03	5.38917e+02
5995	5.40314e+02	5.99500e+03	5.45742e-03	5.39583e+02
6003	5.40969e+02	6.00300e+03	5.42982e-03	5.40250e+02
6011	5.41630e+02	6.01100e+03	5.30336e-03	5.40917e+02
6019	5.42288e+02	6.01900e+03	5.29421e-03	5.41583e+02
6027	5.42958e+02	6.02700e+03	5.31319e-03	5.42250e+02
6035	5.43625e+02	6.03500e+03	5.31222e-03	5.42917e+02
6043	5.44285e+02	6.04300e+03	5.32000e-03	5.43583e+02
6051	5.44963e+02	6.05100e+03	5.25509e-03	5.44250e+02
6059	5.45620e+02	6.05900e+03	5.23405e-03	5.44917e+02
6067	5.46287e+02	6.06700e+03	5.25820e-03	5.45583e+02
6075	5.46947e+02	6.07500e+03	5.31897e-03	5.46250e+02
6083	5.47613e+02	6.08300e+03	5.26310e-03	5.46917e+02
6091	5.48255e+02	6.09100e+03	5.33146e-03	5.47583e+02
6099	5.48900e+02	6.09900e+03	5.20108e-03	5.48250e+02
6107	5.49562e+02	6.10700e+03	5.14980e-03	5.48917e+02
6115	5.50226e+02	6.11500e+03	5.26399e-03	5.49583e+02
6123	5.50868e+02	6.12300e+03	5.28734e-03	5.50250e+02
6131	5.51523e+02	6.13100e+03	5.26179e-03	5.50917e+02
6139	5.52195e+02	6.13900e+03	5.08189e-03	5.51583e+02
6147	5.52838e+02	6.14700e+03	5.10267e-03	5.52250e+02
6155	5.53512e+02	6.15500e+03	5.16242e-03	5.52917e+02
6163	5.54188e+02	6.16300e+03	5.17409e-03	5.53583e+02
6171	5.54847e+02	6.17100e+03	5.11605e-03	5.54250e+02
6179	5.55510e+02	6.17900e+03	5.15547e-03	5.54917e+02
6187	5.56179e+02	6.18700e+03	5.26202e-03	5.55583e+02
6195	5.56845e+02	6.19500e+03	5.30251e-03	5.56250e+02
6203	5.57504e+02	6.20300e+03	5.13656e-03	5.56917e+02
6211	5.58183e+02	6.21100e+03	5.11662e-03	5.57583e+02
6219	5.58865e+02	6.21900e+03	5.28489e-03	5.58250e+02
6227	5.59527e+02	6.22700e+03	5.21017e-03	5.58917e+02
6235	5.60194e+02	6.23500e+03	5.19571e-03	5.59583e+02
6243	5.60861e+02	6.24300e+03	5.05702e-03	5.60250e+02
6251	5.61528e+02	6.25100e+03	5.04803e-03	5.60917e+02
6259	5.62192e+02	6.25900e+03	5.09860e-03	5.61583e+02
6267	5.62865e+02	6.26700e+03	5.05236e-03	5.62250e+02
6275	5.63544e+02	6.27500e+03	5.00340e-03	5.62917e+02
6283	5.64209e+02	6.28300e+03	5.06914e-03	5.63583e+02
6291	5.64884e+02	6.29100e+03	5.11566e-03	5.64250e+02
6299	5.65556e+02	6.29900e+03	5.11708e-03	5.64917e+02
6307	5.66225e+02	6.30700e+03	5.12825e-03	5.65583e+02
6315	5.66888e+02	6.31500e+03	5.00114e-03	5.66250e+02
6323	5.67558e+02	6.32300e+03	5.08086e-03	5.66917e+02
6331	5.68232e+02	6.33100e+03	5.04042e-03	5.67583e+02
6339	5.68895e+02	6.33900e+03	4.95903e-03	5.68250e+02
6347	5.69563e+02	6.34700e+03	5.05302e-03	5.68917e+02
6355	5.70226e+02	6.35500e+03	4.98757e-03	5.69583e+02
6363	5.70897e+02	6.36300e+03	5.09713e-03	5.70250e+02
6371	5.71564e+02	6.37100e+03	5.12297e-03	5.70917e+02
6379	5.72243e+02	6.37900e+03	5.11219e-03	5.71583e+02
6387	5.72924e+02	6.38700e+03	5.09715e-03	5.72250e+02
6395	5.73599e+02	6.39500e+03	5.12138e-03	5.72917e+02
6403	5.74280e+02	6.40300e+03	5.19109e-03	5.73583e+02
6411	5.74959e+02	6.41100e+03	5.11240e-03	5.74250e+02
6419	5.75639e+02	6.41900e+03	5.15634e-03	5.74917e+02
6427	5.76306e+02	6.42700e+03	5.09825e-03	5.75583e+02
6435	5.76981e+02	6.43500e+03	5.10277e-03	5.76250e+02
6443	5.77651e+02	6.44300e+03	5.10849e-03	5.76917e+02
6451	5.78327e+02	6.45100e+03	5.09300e-03	5.77583e+02
6459	5.78993e+02	6.45900e+03	5.10217e-03	5.78250e+02
6467	5.79672e+02	6.46700e+03	5.11150e-03	5.78917e+02
6475	5.80347e+02	6.47500e+03	5.05880e-03	5.79583e+02
6483	5.81014e+02	6.48300e+03	5.02078e-03	5.80250e+02
6491	5.81687e+02	6.49100e+03	5.02847e-03	5.80917e+02
6499	5.82349e+02	6.49900e+03	5.00837e-03	5.81583e+02
6507	5.83007e+02	6.50700e+03	5.04418e-03	5.82250e+02
6515	5.83667e+02	6.51500e+03	5.03659e-03	5.82917e+02
6523	5.84330e+02	6.52300e+03	5.02870e-03	5.83583e+02
6531	5.85002e+02	6.53100e+03	5.09068e-03	5.84250e+02
6539	5.85680e+02	6.53900e+03	5.08119e-03	5.84917e+02
6547	5.86355e+02	6.54700e+03	5.09508e-03	5.85583e+02
6555	5.87036e+02	6.55500e+03	5.17879e-03	5.86250e+02
6563	5.87706e+02	6.56300e+03	5.21302e-03	5.86917e+02
6571	5.88374e+02	6.57100e+03	5.01732e-03	5.87583e+02
6579	5.89030e+02	6.57900e+03	5.09156e-03	5.88250e+02
6587	5.89708e+02	6.58700e+03	5.15096e-03	5.88917e+02
6595	5.90386e+02	6.59500e+03	5.10382e-03	5.89583e+02
6603	5.91055e+02	6.60300e+03	5.17765e-03	5.90250e+02
6611	5.91731e+02	6.61100e+03	5.02276e-03	5.90917e+02
6619	5.92396e+02	6.61900e+03	5.06330e-03	5.91583e+02
6627	5.93054e+02	6.62700e+03	5.15649e-03	5.92250e+02
6635	5.93722e+02	6.63500e+03	5.10470e-03	5.92917e+02
6643	5.94389e+02	6.64300e+03	5.07962e-03	5.93583e+02
6651	5.95047e+02	6.65100e+03	5.15734e-03	5.94250e+02
6659	5.95704e+02	6.65900e+03	5.11709e-03	5.94917e+02
6667	5.96356e+02	6.66700e+03	5.07165e-03	5.95583e+02
6675	5.97012e+02	6.67500e+03	4.96980e-03	5.96250e+02
6683	5.97671e+02	6.68300e+03	5.00060e-03	5.96917e+02
6691	5.98324e+02	6.69100e+03	5.01565e-03	5.97583e+02
6699	5.98976e+02	6.69900e+03	5.14991e-03	5.98250e+02
6707	5.99635e+02	6.70700e+03	5.06043e-03	5.98917e+02
6715	6.00300e+02	6.71500e+03	5.17314e-03	5.99583e+02
6723	6.00955e+02	6.72300e+03	5.10228e-03	6.00250e+02
6731	6.01606e+02	6.73100e+03	5.20071e-03	6.00917e+02
6739	6.02273e+02	6.73900e+03	5.17693e-03	6.01583e+02
6747	6.02939e+02	6.74700e+03	5.10720e-03	6.02250e+02
6755	6.03607e+02	6.75500e+03	4.96738e-03	6.02917e+02
6763	6.04273e+02	6.76300e+03	4.88773e-03	6.03583e+02
6771	6.04938e+02	6.77100e+03	4.85093e-03	6.04250e+02
6779	6.05610e+02	6.77900e+03	5.01608e-03	6.04917e+02
6787	6.06275e+02	6.78700e+03	5.07711e-03	6.05583e+02
6795	6.06941e+02	6.79500e+03	4.87738e-03	6.06250e+02
6803	6.07625e+02	6.80300e+03	4.89464e-03	6.06917e+02
6811	6.08288e+02	6.81100e+03	4.92053e-03	6.07583e+02
6819	6.08937e+02	6.81900e+03	4.98240e-03	6.08250e+02
6827	6.09611e+02	6.82700e+03	4.94640e-03	6.08917e+02
6835	6.10286e+02	6.83500e+03	4.80213e-03	6.09583e+02
6843	6.10948e+02	6.84300e+03	4.91073e-03	6.10250e+02
6851	6.11590e+02	6.85100e+03	4.98503e-03	6.10917e+02
6859	6.12255e+02	6.85900e+03	4.98325e-03	6.11583e+02
6867	6.12923e+02	6.86700e+03	4.95214e-03	6.12250e+02
6875	6.13588e+02	6.87500e+03	5.01658e-03	6.12917e+02
6883	6.14255e+02	6.88300e+03	5.09016e-03	6.13583e+02
6891	6.14909e+02	6.89100e+03	5.05418e-03	6.14250e+02
6899	6.15571e+02	6.89900e+03	4.90914e-03	6.14917e+02
6907	6.16242e+02	6.90700e+03	4.90210e-03	6.15583e+02
6915	6.16906e+02	6.91500e+03	4.75427e-03	6.16250e+02
6923	6.17568e+02	6.92300e+03	4.72669e-03	6.16917e+02
6931	6.18229e+02	6.93100e+03	4.76317e-03	6.17583e+02
6939	6.18896e+02	6.93900e+03	4.81022e-03	6.18250e+02
6947	6.19549e+02	6.94700e+03	4.70076e-03	6.18917e+02
6955	6.20205e+02	6.95500e+03	4.66172e-03	6.19583e+02
6963	6.20870e+02	6.96300e+03	4.80504e-03	6.20250e+02
6971	6.21528e+02	6.97100e+03	4.90608e-03	6.20917e+02
6979	6.22196e+02	6.97900e+03	4.84587e-03	6.21583e+02
6987	6.22861e+02	6.98700e+03	4.82173e-03	6.22250e+02
6995	6.23515e+02	6.99500e+03	4.77932e-03	6.22917e+02
7003	6.24171e+02	7.00300e+03	4.73072e-03	6.23583e+02
7011	6.24838e+02	7.01100e+03	4.74815e-03	6.24250e+02
7019	6.25492e+02	7.01900e+03	4.67954e-03	6.24917e+02
7027	6.26168e+02	7.02700e+03	4.62410e-03	6.25583e+02
7035	6.26822e+02	7.03500e+03	4.55544e-03	6.26250e+02
7043	6.27494e+02	7.04300e+03	4.64572e-03	6.26917e+02
7051	6.28162e+02	7.05100e+03	4.70280e-03	6.27583e+02
7059	6.28838e+02	7.05900e+03	4.68708e-03	6.28250e+02
7067	6.29511e+02	7.06700e+03	4.67746e-03	6.28917e+02
7075	6.30176e+02	7.07500e+03	4.72118e-03	6.29583e+02
7083	6.30853e+02	7.08300e+03	4.66918e-03	6.30250e+02
7091	6.31509e+02	7.09100e+03	4.70408e-03	6.30917e+02
7099	6.32194e+02	7.09900e+03	4.64229e-03	6.31583e+02
7107	6.32853e+02	7.10700e+03	4.65092e-03	6.32250e+02
7115	6.33522e+02	7.11500e+03	4.63356e-03	6.32917e+02
7123	6.34183e+02	7.12300e+03	4.61134e-03	6.33583e+02
7131	6.34856e+02	7.13100e+03	4.58436e-03	6.34250e+02
7139	6.35521e+02	7.13900e+03	4.63269e-03	6.34917e+02
7147	6.36187e+02	7.14700e+03	4.63712e-03	6.35583e+02
7155	6.36849e+02	7.15500e+03	4.47703e-03	6.36250e+02
7163	6.37529e+02	7.16300e+03	4.42091e-03	6.36917e+02
7171	6.38193e+02	7.17100e+03	4.53792e-03	6.37583e+02
7179	6.38866e+02	7.17900e+03	4.54196e-03	6.38250e+02
7187	6.39528e+02	7.18700e+03	4.61108e-03	6.38917e+02
7195	6.40201e+02	7.19500e+03	4.52294e-03	6.39583e+02
7203	6.40863e+02	7.20300e+03	4.41945e-03	6.40250e+02
7211	6.41534e+02	7.21100e+03	4.43477e-03	6.40917e+02
7219	6.42208e+02	7.21900e+03	4.31020e-03	6.41583e+02
7227	6.42871e+02	7.22700e+03	4.28803e-03	6.42250e+02
7235	6.43544e+02	7.23500e+03	4.30143e-03	6.42917e+02
7243	6.44216e+02	7.24300e+03	4.31597e-03	6.43583e+02
7251	6.44878e+02	7.25100e+03	4.27266e-03	6.44250e+02
7259	6.45553e+02	7.25900e+03	4.27769e-03	6.44917e+02
7267	6.46228e+02	7.26700e+03	4.30616e-03	6.45583e+02
7275	6.46896e+02	7.27500e+03	4.37862e-03	6.46250e+02
7283	6.47581e+02	7.28300e+03	4.45575e-03	6.46917e+02
7291	6.48245e+02	7.29100e+03	4.35352e-03	6.47583e+02
7299	6.48919e+02	7.29900e+03	4.42009e-03	6.48250e+02
7307	6.49581e+02	7.30700e+03	4.40954e-03	6.48917e+02
7315	6.50252e+02	7.31500e+03	4.34164e-03	6.49583e+02
7323	6.50902e+02	7.32300e+03	4.30368e-03	6.50250e+02
7331	6.51571e+02	7.33100e+03	4.39553e-03	6.50917e+02
7339	6.52227e+02	7.33900e+03	4.29996e-03	6.51583e+02
7347	6.52897e+02	7.34700e+03	4.35701e-03	6.52250e+02
7355	6.53559e+02	7.35500e+03	4.47207e-03	6.52917e+02
7363	6.54214e+02	7.36300e+03	4.31151e-03	6.53583e+02
7371	6.54884e+02	7.37100e+03	4.27534e-03	6.54250e+02
7379	6.55543e+02	7.37900e+03	4.30665e-03	6.54917e+02
7387	6.56211e+02	7.38700e+03	4.27189e-03	6.55583e+02
7395	6.56882e+02	7.39500e+03	4.20976e-03	6.56250e+02
7403	6.57548e+02	7.40300e+03	4.19494e-03	6.56917e+02
7411	6.58210e+02	7.41100e+03	4.26680e-03	6.57583e+02
7419	6.58870e+02	7.41900e+03	4.30624e-03	6.58250e+02
7427	6.59542e+02	7.42700e+03	4.24609e-03	6.58917e+02
7435	6.60205e+02	7.43500e+03	4.36668e-03	6.59583e+02
7443	6.60890e+02	7.44300e+03	4.23849e-03	6.60250e+02
7451	6.61541e+02	7.45100e+03	4.13829e-03	6.60917e+02
7459	6.62215e+02	7.45900e+03	4.06723e-03	6.61583e+02
7467	6.62896e+02	7.46700e+03	4.10306e-03	6.62250e+02
7475	6.63566e+02	7.47500e+03	4.28001e-03	6.62917e+02
7483	6.64233e+02	7.48300e+03	4.20609e-03	6.63583e+02
7491	6.64903e+02	7.49100e+03	4.25577e-03	6.64250e+02
7499	6.65580e+02	7.49900e+03	4.34394e-03	6.64917e+02
7507	6.66247e+02	7.50700e+03	4.25513e-03	6.65583e+02
7515	6.66907e+02	7.51500e+03	4.52534e-03	6.66250e+02
7523	6.67573e+02	7.52300e+03	4.49948e-03	6.66917e+02
7531	6.68243e+02	7.53100e+03	4.48537e-03	6.67583e+02
7539	6.68916e+02	7.53900e+03	4.40295e-03	6.68250e+02
7547	6.69580e+02	7.54700e+03	4.41585e-03	6.68917e+02
7555	6.70254e+02	7.55500e+03	4.45007e-03	6.69583e+02
7563	6.70925e+02	7.56300e+03	4.43408e-03	6.70250e+02
7571	6.71589e+02	7.57100e+03	4.45761e-03	6.70917e+02
7579	6.72260e+02	7.57900e+03	4.38426e-03	6.71583e+02
7587	6.72938e+02	7.58700e+03	4.37589e-03	6.72250e+02
7595	6.73615e+02	7.59500e+03	4.46097e-03	6.72917e+02
7603	6.74279e+02	7.60300e+03	4.47020e-03	6.73583e+02
7611	6.74947e+02	7.61100e+03	4.42789e-03	6.74250e+02
7619	6.75617e+02	7.61900e+03	4.35955e-03	6.74917e+02
7627	6.76294e+02	7.62700e+03	4.32928e-03	6.75583e+02
7635	6.76972e+02	7.63500e+03	4.30046e-03	6.76250e+02
7643	6.77636e+02	7.64300e+03	4.13935e-03	6.76917e+02
7651	6.78312e+02	7.65100e+03	4.29406e-03	6.77583e+02
7659	6.78978e+02	7.65900e+03	4.21361e-03	6.78250e+02
7667	6.79648e+02	7.66700e+03	4.23892e-03	6.78917e+02
7675	6.80319e+02	7.67500e+03	4.30668e-03	6.79583e+02
7683	6.81005e+02	7.68300e+03	4.27828e-03	6.80250e+02
7691	6.81664e+02	7.69100e+03	4.28165e-03	6.80917e+02
7699	6.82345e+02	7.69900e+03	4.17828e-03	6.81583e+02
7707	6.83013e+02	7.70700e+03	4.15329e-03	6.82250e+02
7715	6.83677e+02	7.71500e+03	4.08337e-03	6.82917e+02
7723	6.84349e+02	7.72300e+03	4.10947e-03	6.83583e+02
7731	6.85000e+02	7.73100e+03	4.07844e-03	6.84250e+02
7739	6.85674e+02	7.73900e+03	4.16754e-03	6.84917e+02
7747	6.86339e+02	7.74700e+03	4.11162e-03	6.85583e+02
7755	6.87012e+02	7.75500e+03	4.15317e-03	6.86250e+02
7763	6.87685e+02	7.76300e+03	4.21068e-03	6.86917e+02
7771	6.88349e+02	7.77100e+03	4.25297e-03	6.87583e+02
7779	6.89010e+02	7.77900e+03	4.16584e-03	6.88250e+02
7787	6.89684e+02	7.78700e+03	4.16822e-03	6.88917e+02
7795	6.90345e+02	7.79500e+03	4.12987e-03	6.89583e+02
7803	6.91029e+02	7.80300e+03	4.18690e-03	6.90250e+02
7811	6.91692e+02	7.81100e+03	4.21777e-03	6.90917e+02
7819	6.92359e+02	7.81900e+03	4.17165e-03	6.91583e+02
7827	6.93034e+02	7.82700e+03	4.14202e-03	6.92250e+02
7835	6.93688e+02	7.83500e+03	4.10560e-03	6.92917e+02
7843	6.94350e+02	7.84300e+03	4.02788e-03	6.93583e+02
7851	6.95013e+02	7.85100e+03	4.03210e-03	6.94250e+02
7859	6.95676e+02	7.85900e+03	3.97915e-03	6.94917e+02
7867	6.96341e+02	7.86700e+03	3.82211e-03	6.95583e+02
7875	6.97007e+02	7.87500e+03	3.90128e-03	6.96250e+02
7883	6.97680e+02	7.88300e+03	4.00378e-03	6.96917e+02
7891	6.98341e+02	7.89100e+03	4.01076e-03	6.97583e+02
7899	6.98854e+02	7.89900e+03	4.07915e-03	6.98250e+02
7907	6.99304e+02	7.90700e+03	3.98795e-03	6.98917e+02
7915	6.99652e+02	7.91500e+03	3.91842e-03	6.99583e+02
7920	6.99826e+02	7.92000e+03	3.95870e-03	7.00000e+02