File: Experiments/TUBS/tga_nonisotherm/tga_dynamic_n2_dyn30_piece_1mg_r2.txt
index	ts	t	weight	tr
[#]	[°C]	[s]	[mg]	[°C]
683	1.31221e+02	6.83000e+02	1.02333e+00	1.31500e+02
685	1.32240e+02	6.85000e+02	1.02327e+00	1.32500e+02
687	1.33244e+02	6.87000e+02	1.02321e+00	1.33500e+02
689	1.34262e+02	6.89000e+02	1.02317e+00	1.34500e+02
691	1.35268e+02	6.91000e+02	1.02312e+00	1.35500e+02
693	1.36268e+02	6.93000e+02	1.02307e+00	1.36500e+02
695	1.37286e+02	6.95000e+02	1.02301e+00	1.37500e+02
697	1.38276e+02	6.97000e+02	1.02294e+00	1.38500e+02
699	1.39281e+02	6.99000e+02	1.02289e+00	1.39500e+02
701	1.40286e+02	7.01000e+02	1.02288e+00	1.40500e+02
703	1.41293e+02	7.03000e+02	1.02286e+00	1.41500e+02
705	1.42297e+02	7.05000e+02	1.02286e+00	1.42500e+02
707	1.43307e+02	7.07000e+02	1.02286e+00	1.43500e+02
709	1.44319e+02	7.09000e+02	1.02285e+00	1.44500e+02
711	1.45322e+02	7.11000e+02	1.02284e+00	1.45500e+02
713	1.46326e+02	7.13000e+02	1.02284e+00	1.46500e+02
715	1.47336e+02	7.15000e+02	1.02284e+00	1.47500e+02
717	1.48341e+02	7.17000e+02	1.02285e+00	1.48500e+02
719	1.49349e+02	7.19000e+02	1.02283e+00	1.49500e+02
721	1.50363e+02	7.21000e+02	1.02280e+00	1.50500e+02
723	1.51371e+02	7.23000e+02	1.02275e+00	1.51500e+02
725	1.52376e+02	7.25000e+02	1.02269e+00	1.52500e+02
727	1.53379e+02	7.27000e+02	1.02263e+00	1.53500e+02
729	1.54378e+02	7.29000e+02	1.02257e+00	1.54500e+02
731	1.55394e+02	7.31000e+02	1.02251e+00	1.55500e+02
733	1.56417e+02	7.33000e+02	1.02245e+00	1.56500e+02
735	1.57413e+02	7.35000e+02	1.02240e+00	1.57500e+02
737	1.58433e+02	7.37000e+02	1.02235e+00	1.58500e+02
739	1.59447e+02	7.39000e+02	1.02232e+00	1.59500e+02
741	1.60452e+02	7.41000e+02	1.02230e+00	1.60500e+02
743	1.61456e+02	7.43000e+02	1.02227e+00	1.61500e+02
745	1.62477e+02	7.45000e+02	1.02225e+00	1.62500e+02
747	1.63482e+02	7.47000e+02	1.02223e+00	1.63500e+02
749	1.64493e+02	7.49000e+02	1.02222e+00	1.64500e+02
751	1.65508e+02	7.51000e+02	1.02220e+00	1.65500e+02
753	1.66525e+02	7.53000e+02	1.02218e+00	1.66500e+02
755	1.67527e+02	7.55000e+02	1.02214e+00	1.67500e+02
757	1.68540e+02	7.57000e+02	1.02209e+00	1.68500e+02
759	1.69550e+02	7.59000e+02	1.02204e+00	1.69500e+02
761	1.70568e+02	7.61000e+02	1.02197e+00	1.70500e+02
763	1.71577e+02	7.63000e+02	1.02188e+00	1.71500e+02
765	1.72594e+02	7.65000e+02	1.02181e+00	1.72500e+02
767	1.73610e+02	7.67000e+02	1.02174e+00	1.73500e+02
769	1.74628e+02	7.69000e+02	1.02170e+00	1.74500e+02
771	1.75645e+02	7.71000e+02	1.02166e+00	1.75500e+02
773	1.76657e+02	7.73000e+02	1.02163e+00	1.76500e+02
775	1.77674e+02	7.75000e+02	1.02160e+00	1.77500e+02
777	1.78693e+02	7.77000e+02	1.02157e+00	1.78500e+02
779	1.79703e+02	7.79000e+02	1.02152e+00	1.79500e+02
781	1.80712e+02	7.81000e+02	1.02141e+00	1.80500e+02
783	1.81745e+02	7.83000e+02	1.02133e+00	1.81500e+02
785	1.82751e+02	7.85000e+02	1.02125e+00	1.82500e+02
787	1.83774e+02	7.87000e+02	1.02119e+00	1.83500e+02
789	1.84777e+02	7.89000e+02	1.02116e+00	1.84500e+02
791	1.85805e+02	7.91000e+02	1.02110e+00	1.85500e+02
793	1.86811e+02	7.93000e+02	1.02102e+00	1.86500e+02
795	1.87828e+02	7.95000e+02	1.02092e+00	1.87500e+02
797	1.88851e+02	7.97000e+02	1.02080e+00	1.88500e+02
799	1.89867e+02	7.99000e+02	1.02067e+00	1.89500e+02
801	1.90886e+02	8.01000e+02	1.02051e+00	1.90500e+02
803	1.91910e+02	8.03000e+02	1.02036e+00	1.91500e+02
805	1.92929e+02	8.05000e+02	1.02019e+00	1.92500e+02
807	1.93952e+02	8.07000e+02	1.02003e+00	1.93500e+02
809	1.94969e+02	8.09000e+02	1.01984e+00	1.94500e+02
811	1.95981e+02	8.11000e+02	1.01966e+00	1.95500e+02
813	1.97018e+02	8.13000e+02	1.01948e+00	1.96500e+02
815	1.98018e+02	8.15000e+02	1.01930e+00	1.97500e+02
817	1.99057e+02	8.17000e+02	1.01913e+00	1.98500e+02
819	2.00064e+02	8.19000e+02	1.01896e+00	1.99500e+02
821	2.01083e+02	8.21000e+02	1.01878e+00	2.00500e+02
823	2.02098e+02	8.23000e+02	1.01859e+00	2.01500e+02
825	2.03122e+02	8.25000e+02	1.01838e+00	2.02500e+02
827	2.04156e+02	8.27000e+02	1.01817e+00	2.03500e+02
829	2.05161e+02	8.29000e+02	1.01793e+00	2.04500e+02
831	2.06182e+02	8.31000e+02	1.01768e+00	2.05500e+02
833	2.07197e+02	8.33000e+02	1.01740e+00	2.06500e+02
835	2.08203e+02	8.35000e+02	1.01711e+00	2.07500e+02
837	2.09227e+02	8.37000e+02	1.01679e+00	2.08500e+02
839	2.10230e+02	8.39000e+02	1.01649e+00	2.09500e+02
841	2.11264e+02	8.41000e+02	1.01617e+00	2.10500e+02
843	2.12275e+02	8.43000e+02	1.01585e+00	2.11500e+02
845	2.13281e+02	8.45000e+02	1.01551e+00	2.12500e+02
847	2.14298e+02	8.47000e+02	1.01517e+00	2.13500e+02
849	2.15306e+02	8.49000e+02	1.01484e+00	2.14500e+02
851	2.16341e+02	8.51000e+02	1.01453e+00	2.15500e+02
853	2.17346e+02	8.53000e+02	1.01426e+00	2.16500e+02
855	2.18362e+02	8.55000e+02	1.01398e+00	2.17500e+02
857	2.19377e+02	8.57000e+02	1.01371e+00	2.18500e+02
859	2.20404e+02	8.59000e+02	1.01342e+00	2.19500e+02
861	2.21430e+02	8.61000e+02	1.01312e+00	2.20500e+02
863	2.22447e+02	8.63000e+02	1.01284e+00	2.21500e+02
865	2.23464e+02	8.65000e+02	1.01257e+00	2.22500e+02
867	2.24467e+02	8.67000e+02	1.01232e+00	2.23500e+02
869	2.25487e+02	8.69000e+02	1.01210e+00	2.24500e+02
871	2.26507e+02	8.71000e+02	1.01185e+00	2.25500e+02
873	2.27527e+02	8.73000e+02	1.01156e+00	2.26500e+02
875	2.28553e+02	8.75000e+02	1.01126e+00	2.27500e+02
877	2.29573e+02	8.77000e+02	1.01091e+00	2.28500e+02
879	2.30600e+02	8.79000e+02	1.01057e+00	2.29500e+02
881	2.31605e+02	8.81000e+02	1.01022e+00	2.30500e+02
883	2.32630e+02	8.83000e+02	1.00986e+00	2.31500e+02
885	2.33650e+02	8.85000e+02	1.00950e+00	2.32500e+02
887	2.34664e+02	8.87000e+02	1.00915e+00	2.33500e+02
889	2.35680e+02	8.89000e+02	1.00878e+00	2.34500e+02
891	2.36707e+02	8.91000e+02	1.00843e+00	2.35500e+02
893	2.37730e+02	8.93000e+02	1.00808e+00	2.36500e+02
895	2.38755e+02	8.95000e+02	1.00775e+00	2.37500e+02
897	2.39773e+02	8.97000e+02	1.00744e+00	2.38500e+02
899	2.40780e+02	8.99000e+02	1.00712e+00	2.39500e+02
901	2.41809e+02	9.01000e+02	1.00680e+00	2.40500e+02
903	2.42834e+02	9.03000e+02	1.00647e+00	2.41500e+02
905	2.43847e+02	9.05000e+02	1.00614e+00	2.42500e+02
907	2.44893e+02	9.07000e+02	1.00580e+00	2.43500e+02
909	2.45901e+02	9.09000e+02	1.00544e+00	2.44500e+02
911	2.46915e+02	9.11000e+02	1.00506e+00	2.45500e+02
913	2.47945e+02	9.13000e+02	1.00466e+00	2.46500e+02
915	2.48980e+02	9.15000e+02	1.00427e+00	2.47500e+02
917	2.49994e+02	9.17000e+02	1.00390e+00	2.48500e+02
919	2.51021e+02	9.19000e+02	1.00354e+00	2.49500e+02
921	2.52053e+02	9.21000e+02	1.00322e+00	2.50500e+02
923	2.53077e+02	9.23000e+02	1.00288e+00	2.51500e+02
925	2.54098e+02	9.25000e+02	1.00252e+00	2.52500e+02
927	2.55124e+02	9.27000e+02	1.00216e+00	2.53500e+02
929	2.56132e+02	9.29000e+02	1.00177e+00	2.54500e+02
931	2.57143e+02	9.31000e+02	1.00138e+00	2.55500e+02
933	2.58157e+02	9.33000e+02	1.00100e+00	2.56500e+02
935	2.59179e+02	9.35000e+02	1.00062e+00	2.57500e+02
937	2.60198e+02	9.37000e+02	1.00025e+00	2.58500e+02
939	2.61222e+02	9.39000e+02	9.99873e-01	2.59500e+02
941	2.62251e+02	9.41000e+02	9.99473e-01	2.60500e+02
943	2.63270e+02	9.43000e+02	9.99067e-01	2.61500e+02
945	2.64284e+02	9.45000e+02	9.98658e-01	2.62500e+02
947	2.65309e+02	9.47000e+02	9.98260e-01	2.63500e+02
949	2.66327e+02	9.49000e+02	9.97891e-01	2.64500e+02
951	2.67351e+02	9.51000e+02	9.97527e-01	2.65500e+02
953	2.68369e+02	9.53000e+02	9.97170e-01	2.66500e+02
955	2.69390e+02	9.55000e+02	9.96792e-01	2.67500e+02
957	2.70413e+02	9.57000e+02	9.96395e-01	2.68500e+02
959	2.71440e+02	9.59000e+02	9.95991e-01	2.69500e+02
961	2.72473e+02	9.61000e+02	9.95579e-01	2.70500e+02
963	2.73495e+02	9.63000e+02	9.95176e-01	2.71500e+02
965	2.74509e+02	9.65000e+02	9.94777e-01	2.72500e+02
967	2.75542e+02	9.67000e+02	9.94378e-01	2.73500e+02
969	2.76572e+02	9.69000e+02	9.93960e-01	2.74500e+02
971	2.77591e+02	9.71000e+02	9.93520e-01	2.75500e+02
973	2.78599e+02	9.73000e+02	9.93045e-01	2.76500e+02
975	2.79625e+02	9.75000e+02	9.92573e-01	2.77500e+02
977	2.80642e+02	9.77000e+02	9.92085e-01	2.78500e+02
979	2.81645e+02	9.79000e+02	9.91598e-01	2.79500e+02
981	2.82664e+02	9.81000e+02	9.91125e-01	2.80500e+02
983	2.83674e+02	9.83000e+02	9.90662e-01	2.81500e+02
985	2.84686e+02	9.85000e+02	9.90213e-01	2.82500e+02
987	2.85692e+02	9.87000e+02	9.89742e-01	2.83500e+02
989	2.86711e+02	9.89000e+02	9.89251e-01	2.84500e+02
991	2.87718e+02	9.91000e+02	9.88752e-01	2.85500e+02
993	2.88727e+02	9.93000e+02	9.88227e-01	2.86500e+02
995	2.89741e+02	9.95000e+02	9.87698e-01	2.87500e+02
997	2.90736e+02	9.97000e+02	9.87150e-01	2.88500e+02
999	2.91740e+02	9.99000e+02	9.86596e-01	2.89500e+02
1001	2.92751e+02	1.00100e+03	9.86012e-01	2.90500e+02
1003	2.93768e+02	1.00300e+03	9.85409e-01	2.91500e+02
1005	2.94796e+02	1.00500e+03	9.84751e-01	2.92500e+02
1007	2.95814e+02	1.00700e+03	9.84072e-01	2.93500e+02
1009	2.96822e+02	1.00900e+03	9.83340e-01	2.94500e+02
1011	2.97838e+02	1.01100e+03	9.82612e-01	2.95500e+02
1013	2.98852e+02	1.01300e+03	9.81860e-01	2.96500e+02
1015	2.99852e+02	1.01500e+03	9.81105e-01	2.97500e+02
1017	3.00879e+02	1.01700e+03	9.80316e-01	2.98500e+02
1019	3.01903e+02	1.01900e+03	9.79511e-01	2.99500e+02
1021	3.02908e+02	1.02100e+03	9.78670e-01	3.00500e+02
1023	3.03891e+02	1.02300e+03	9.77834e-01	3.01500e+02
1025	3.04886e+02	1.02500e+03	9.76990e-01	3.02500e+02
1027	3.05877e+02	1.02700e+03	9.76137e-01	3.03500e+02
1029	3.06864e+02	1.02900e+03	9.75248e-01	3.04500e+02
1031	3.07879e+02	1.03100e+03	9.74323e-01	3.05500e+02
1033	3.08864e+02	1.03300e+03	9.73309e-01	3.06500e+02
1035	3.09849e+02	1.03500e+03	9.72263e-01	3.07500e+02
1037	3.10836e+02	1.03700e+03	9.71109e-01	3.08500e+02
1039	3.11829e+02	1.03900e+03	9.69929e-01	3.09500e+02
1041	3.12810e+02	1.04100e+03	9.68635e-01	3.10500e+02
1043	3.13787e+02	1.04300e+03	9.67304e-01	3.11500e+02
1045	3.14775e+02	1.04500e+03	9.65847e-01	3.12500e+02
1047	3.15756e+02	1.04700e+03	9.64361e-01	3.13500e+02
1049	3.16747e+02	1.04900e+03	9.62758e-01	3.14500e+02
1051	3.17716e+02	1.05100e+03	9.61140e-01	3.15500e+02
1053	3.18699e+02	1.05300e+03	9.59433e-01	3.16500e+02
1055	3.19677e+02	1.05500e+03	9.57719e-01	3.17500e+02
1057	3.20676e+02	1.05700e+03	9.55932e-01	3.18500e+02
1059	3.21660e+02	1.05900e+03	9.54122e-01	3.19500e+02
1061	3.22662e+02	1.06100e+03	9.52251e-01	3.20500e+02
1063	3.23647e+02	1.06300e+03	9.50396e-01	3.21500e+02
1065	3.24636e+02	1.06500e+03	9.48549e-01	3.22500e+02
1067	3.25639e+02	1.06700e+03	9.46739e-01	3.23500e+02
1069	3.26624e+02	1.06900e+03	9.44995e-01	3.24500e+02
1071	3.27620e+02	1.07100e+03	9.43259e-01	3.25500e+02
1073	3.28630e+02	1.07300e+03	9.41576e-01	3.26500e+02
1075	3.29632e+02	1.07500e+03	9.39897e-01	3.27500e+02
1077	3.30629e+02	1.07700e+03	9.38260e-01	3.28500e+02
1079	3.31632e+02	1.07900e+03	9.36627e-01	3.29500e+02
1081	3.32625e+02	1.08100e+03	9.35002e-01	3.30500e+02
1083	3.33624e+02	1.08300e+03	9.33346e-01	3.31500e+02
1085	3.34620e+02	1.08500e+03	9.31639e-01	3.32500e+02
1087	3.35609e+02	1.08700e+03	9.29910e-01	3.33500e+02
1089	3.36588e+02	1.08900e+03	9.28114e-01	3.34500e+02
1091	3.37587e+02	1.09100e+03	9.26301e-01	3.35500e+02
1093	3.38578e+02	1.09300e+03	9.24398e-01	3.36500e+02
1095	3.39579e+02	1.09500e+03	9.22443e-01	3.37500e+02
1097	3.40563e+02	1.09700e+03	9.20339e-01	3.38500e+02
1099	3.41563e+02	1.09900e+03	9.18187e-01	3.39500e+02
1101	3.42556e+02	1.10100e+03	9.15862e-01	3.40500e+02
1103	3.43562e+02	1.10300e+03	9.13484e-01	3.41500e+02
1105	3.44561e+02	1.10500e+03	9.10910e-01	3.42500e+02
1107	3.45544e+02	1.10700e+03	9.08277e-01	3.43500e+02
1109	3.46558e+02	1.10900e+03	9.05409e-01	3.44500e+02
1111	3.47553e+02	1.11100e+03	9.02436e-01	3.45500e+02
1113	3.48568e+02	1.11300e+03	8.99102e-01	3.46500e+02
1115	3.49565e+02	1.11500e+03	8.95606e-01	3.47500e+02
1117	3.50579e+02	1.11700e+03	8.91615e-01	3.48500e+02
1119	3.51587e+02	1.11900e+03	8.87500e-01	3.49500e+02
1121	3.52602e+02	1.12100e+03	8.82890e-01	3.50500e+02
1123	3.53597e+02	1.12300e+03	8.78197e-01	3.51500e+02
1125	3.54586e+02	1.12500e+03	8.73078e-01	3.52500e+02
1127	3.55575e+02	1.12700e+03	8.67865e-01	3.53500e+02
1129	3.56572e+02	1.12900e+03	8.62222e-01	3.54500e+02
1131	3.57541e+02	1.13100e+03	8.56413e-01	3.55500e+02
1133	3.58547e+02	1.13300e+03	8.49951e-01	3.56500e+02
1135	3.59547e+02	1.13500e+03	8.43175e-01	3.57500e+02
1137	3.60533e+02	1.13700e+03	8.35494e-01	3.58500e+02
1139	3.61541e+02	1.13900e+03	8.27614e-01	3.59500e+02
1141	3.62518e+02	1.14100e+03	8.18877e-01	3.60500e+02
1143	3.63528e+02	1.14300e+03	8.10010e-01	3.61500e+02
1145	3.64522e+02	1.14500e+03	8.00370e-01	3.62500e+02
1147	3.65532e+02	1.14700e+03	7.90504e-01	3.63500e+02
1149	3.66510e+02	1.14900e+03	7.79794e-01	3.64500e+02
1151	3.67520e+02	1.15100e+03	7.68877e-01	3.65500e+02
1153	3.68524e+02	1.15300e+03	7.57106e-01	3.66500e+02
1155	3.69514e+02	1.15500e+03	7.45149e-01	3.67500e+02
1157	3.70514e+02	1.15700e+03	7.32342e-01	3.68500e+02
1159	3.71511e+02	1.15900e+03	7.19307e-01	3.69500e+02
1161	3.72482e+02	1.16100e+03	7.05370e-01	3.70500e+02
1163	3.73451e+02	1.16300e+03	6.91230e-01	3.71500e+02
1165	3.74452e+02	1.16500e+03	6.76235e-01	3.72500e+02
1167	3.75432e+02	1.16700e+03	6.61075e-01	3.73500e+02
1169	3.76430e+02	1.16900e+03	6.45088e-01	3.74500e+02
1171	3.77416e+02	1.17100e+03	6.28857e-01	3.75500e+02
1173	3.78384e+02	1.17300e+03	6.11774e-01	3.76500e+02
1175	3.79394e+02	1.17500e+03	5.94567e-01	3.77500e+02
1177	3.80401e+02	1.17700e+03	5.76705e-01	3.78500e+02
1179	3.81404e+02	1.17900e+03	5.58814e-01	3.79500e+02
1181	3.82380e+02	1.18100e+03	5.40518e-01	3.80500e+02
1183	3.83374e+02	1.18300e+03	5.22221e-01	3.81500e+02
1185	3.84362e+02	1.18500e+03	5.03709e-01	3.82500e+02
1187	3.85360e+02	1.18700e+03	4.85196e-01	3.83500e+02
1189	3.86351e+02	1.18900e+03	4.66576e-01	3.84500e+02
1191	3.87360e+02	1.19100e+03	4.47967e-01	3.85500e+02
1193	3.88371e+02	1.19300e+03	4.29377e-01	3.86500e+02
1195	3.89403e+02	1.19500e+03	4.10903e-01	3.87500e+02
1197	3.90462e+02	1.19700e+03	3.92599e-01	3.88500e+02
1199	3.91494e+02	1.19900e+03	3.74310e-01	3.89500e+02
1201	3.92533e+02	1.20100e+03	3.56168e-01	3.90500e+02
1203	3.93563e+02	1.20300e+03	3.38051e-01	3.91500e+02
1205	3.94580e+02	1.20500e+03	3.20001e-01	3.92500e+02
1207	3.95573e+02	1.20700e+03	3.01904e-01	3.93500e+02
1209	3.96573e+02	1.20900e+03	2.83771e-01	3.94500e+02
1211	3.97607e+02	1.21100e+03	2.65659e-01	3.95500e+02
1213	3.98631e+02	1.21300e+03	2.47665e-01	3.96500e+02
1215	3.99648e+02	1.21500e+03	2.29902e-01	3.97500e+02
1217	4.00651e+02	1.21700e+03	2.12700e-01	3.98500e+02
1219	4.01681e+02	1.21900e+03	1.95800e-01	3.99500e+02
1221	4.02691e+02	1.22100e+03	1.79773e-01	4.00500e+02
1223	4.03688e+02	1.22300e+03	1.64024e-01	4.01500e+02
1225	4.04667e+02	1.22500e+03	1.49327e-01	4.02500e+02
1227	4.05634e+02	1.22700e+03	1.34954e-01	4.03500e+02
1229	4.06642e+02	1.22900e+03	1.21790e-01	4.04500e+02
1231	4.07642e+02	1.23100e+03	1.08951e-01	4.05500e+02
1233	4.08683e+02	1.23300e+03	9.74101e-02	4.06500e+02
1235	4.09692e+02	1.23500e+03	8.61997e-02	4.07500e+02
1237	4.10695e+02	1.23700e+03	7.63344e-02	4.08500e+02
1239	4.11700e+02	1.23900e+03	6.67884e-02	4.09500e+02
1241	4.12700e+02	1.24100e+03	5.85601e-02	4.10500e+02
1243	4.13699e+02	1.24300e+03	5.05750e-02	4.11500e+02
1245	4.14671e+02	1.24500e+03	4.37470e-02	4.12500e+02
1247	4.15626e+02	1.24700e+03	3.71033e-02	4.13500e+02
1249	4.16622e+02	1.24900e+03	3.14310e-02	4.14500e+02
1251	4.17608e+02	1.25100e+03	2.59277e-02	4.15500e+02
1253	4.18588e+02	1.25300e+03	2.12843e-02	4.16500e+02
1255	4.19586e+02	1.25500e+03	1.68118e-02	4.17500e+02
1257	4.20587e+02	1.25700e+03	1.31122e-02	4.18500e+02
1259	4.21579e+02	1.25900e+03	9.53086e-03	4.19500e+02
1261	4.22555e+02	1.26100e+03	6.58392e-03	4.20500e+02
1263	4.23533e+02	1.26300e+03	3.71734e-03	4.21500e+02
1265	4.24507e+02	1.26500e+03	1.35461e-03	4.22500e+02
1267	4.25475e+02	1.26700e+03	-9.29948e-04	4.23500e+02
1269	4.26433e+02	1.26900e+03	-2.80504e-03	4.24500e+02
1271	4.27402e+02	1.27100e+03	-4.63108e-03	4.25500e+02
1273	4.28356e+02	1.27300e+03	-6.14291e-03	4.26500e+02
1275	4.29330e+02	1.27500e+03	-7.61956e-03	4.27500e+02
1277	4.30305e+02	1.27700e+03	-8.85919e-03	4.28500e+02
1279	4.31287e+02	1.27900e+03	-1.00639e-02	4.29500e+02
1281	4.32270e+02	1.28100e+03	-1.10724e-02	4.30500e+02
1283	4.33238e+02	1.28300e+03	-1.20500e-02	4.31500e+02
1285	4.34215e+02	1.28500e+03	-1.28654e-02	4.32500e+02
1287	4.35182e+02	1.28700e+03	-1.36597e-02	4.33500e+02
1289	4.36149e+02	1.28900e+03	-1.43338e-02	4.34500e+02
1291	4.37129e+02	1.29100e+03	-1.49973e-02	4.35500e+02
1293	4.38110e+02	1.29300e+03	-1.55748e-02	4.36500e+02
1295	4.39108e+02	1.29500e+03	-1.61355e-02	4.37500e+02
1297	4.40096e+02	1.29700e+03	-1.66302e-02	4.38500e+02
1299	4.41051e+02	1.29900e+03	-1.71257e-02	4.39500e+02
1301	4.42001e+02	1.30100e+03	-1.75773e-02	4.40500e+02
1303	4.42963e+02	1.30300e+03	-1.80161e-02	4.41500e+02
1305	4.43933e+02	1.30500e+03	-1.83968e-02	4.42500e+02
1307	4.44907e+02	1.30700e+03	-1.87540e-02	4.43500e+02
1309	4.45866e+02	1.30900e+03	-1.90394e-02	4.44500e+02
1311	4.46834e+02	1.31100e+03	-1.93142e-02	4.45500e+02
1313	4.47794e+02	1.31300e+03	-1.95400e-02	4.46500e+02
1315	4.48777e+02	1.31500e+03	-1.97659e-02	4.47500e+02
1317	4.49731e+02	1.31700e+03	-1.99630e-02	4.48500e+02
1319	4.50696e+02	1.31900e+03	-2.01552e-02	4.49500e+02
1321	4.51656e+02	1.32100e+03	-2.03161e-02	4.50500e+02
1323	4.52608e+02	1.32300e+03	-2.04672e-02	4.51500e+02
1325	4.53536e+02	1.32500e+03	-2.05869e-02	4.52500e+02
1327	4.54499e+02	1.32700e+03	-2.07074e-02	4.53500e+02
1329	4.55457e+02	1.32900e+03	-2.08171e-02	4.54500e+02
1331	4.56406e+02	1.33100e+03	-2.09323e-02	4.55500e+02
1333	4.57374e+02	1.33300e+03	-2.10390e-02	4.56500e+02
1335	4.58341e+02	1.33500e+03	-2.11344e-02	4.57500e+02
1337	4.59304e+02	1.33700e+03	-2.11928e-02	4.58500e+02
1339	4.60267e+02	1.33900e+03	-2.12292e-02	4.59500e+02
1341	4.61236e+02	1.34100e+03	-2.12084e-02	4.60500e+02
1343	4.62198e+02	1.34300e+03	-2.11993e-02	4.61500e+02
1345	4.63170e+02	1.34500e+03	-2.12019e-02	4.62500e+02
1347	4.64139e+02	1.34700e+03	-2.12436e-02	4.63500e+02
1349	4.65109e+02	1.34900e+03	-2.13391e-02	4.64500e+02
1351	4.66085e+02	1.35100e+03	-2.14230e-02	4.65500e+02
1353	4.67042e+02	1.35300e+03	-2.15093e-02	4.66500e+02
1355	4.68024e+02	1.35500e+03	-2.15775e-02	4.67500e+02
1357	4.68985e+02	1.35700e+03	-2.16175e-02	4.68500e+02
1359	4.69949e+02	1.35900e+03	-2.16573e-02	4.69500e+02
1361	4.70933e+02	1.36100e+03	-2.16785e-02	4.70500e+02
1363	4.71906e+02	1.36300e+03	-2.17062e-02	4.71500e+02
1365	4.72883e+02	1.36500e+03	-2.17349e-02	4.72500e+02
1367	4.73851e+02	1.36700e+03	-2.17699e-02	4.73500e+02
1369	4.74836e+02	1.36900e+03	-2.18151e-02	4.74500e+02
1371	4.75798e+02	1.37100e+03	-2.18595e-02	4.75500e+02
1373	4.76771e+02	1.37300e+03	-2.19048e-02	4.76500e+02
1375	4.77736e+02	1.37500e+03	-2.19426e-02	4.77500e+02
1377	4.78698e+02	1.37700e+03	-2.19778e-02	4.78500e+02
1379	4.79671e+02	1.37900e+03	-2.20194e-02	4.79500e+02
1381	4.80639e+02	1.38100e+03	-2.20659e-02	4.80500e+02
1383	4.81621e+02	1.38300e+03	-2.21196e-02	4.81500e+02
1385	4.82584e+02	1.38500e+03	-2.21920e-02	4.82500e+02
1387	4.83567e+02	1.38700e+03	-2.22769e-02	4.83500e+02
1389	4.84531e+02	1.38900e+03	-2.23877e-02	4.84500e+02
1391	4.85509e+02	1.39100e+03	-2.24820e-02	4.85500e+02
1393	4.86488e+02	1.39300e+03	-2.25429e-02	4.86500e+02
1395	4.87476e+02	1.39500e+03	-2.25756e-02	4.87500e+02
1397	4.88442e+02	1.39700e+03	-2.25663e-02	4.88500e+02
1399	4.89418e+02	1.39900e+03	-2.25792e-02	4.89500e+02
1401	4.90406e+02	1.40100e+03	-2.26137e-02	4.90500e+02
1403	4.91385e+02	1.40300e+03	-2.26621e-02	4.91500e+02
1405	4.92387e+02	1.40500e+03	-2.27484e-02	4.92500e+02
1407	4.93397e+02	1.40700e+03	-2.28298e-02	4.93500e+02
1409	4.94390e+02	1.40900e+03	-2.29186e-02	4.94500e+02
1411	4.95381e+02	1.41100e+03	-2.29919e-02	4.95500e+02
1413	4.96356e+02	1.41300e+03	-2.30418e-02	4.96500e+02
1415	4.97340e+02	1.41500e+03	-2.30875e-02	4.97500e+02
1417	4.98317e+02	1.41700e+03	-2.31143e-02	4.98500e+02
1419	4.99298e+02	1.41900e+03	-2.31391e-02	4.99500e+02
1421	5.00268e+02	1.42100e+03	-2.31547e-02	5.00500e+02
1423	5.01239e+02	1.42300e+03	-2.31792e-02	5.01500e+02
1425	5.02219e+02	1.42500e+03	-2.32190e-02	5.02500e+02
1427	5.03191e+02	1.42700e+03	-2.32732e-02	5.03500e+02
1429	5.04163e+02	1.42900e+03	-2.33385e-02	5.04500e+02
1431	5.05147e+02	1.43100e+03	-2.33825e-02	5.05500e+02
1433	5.06121e+02	1.43300e+03	-2.33899e-02	5.06500e+02
1435	5.07093e+02	1.43500e+03	-2.33870e-02	5.07500e+02
1437	5.08084e+02	1.43700e+03	-2.33703e-02	5.08500e+02
1439	5.09057e+02	1.43900e+03	-2.33845e-02	5.09500e+02
1441	5.10042e+02	1.44100e+03	-2.34377e-02	5.10500e+02
1443	5.11021e+02	1.44300e+03	-2.34871e-02	5.11500e+02
1445	5.12008e+02	1.44500e+03	-2.35593e-02	5.12500e+02
1447	5.12985e+02	1.44700e+03	-2.36414e-02	5.13500e+02
1449	5.13955e+02	1.44900e+03	-2.37687e-02	5.14500e+02
1451	5.14945e+02	1.45100e+03	-2.38847e-02	5.15500e+02
1453	5.15924e+02	1.45300e+03	-2.39461e-02	5.16500e+02
1455	5.16899e+02	1.45500e+03	-2.39243e-02	5.17500e+02
1457	5.17883e+02	1.45700e+03	-2.37648e-02	5.18500e+02
1459	5.18876e+02	1.45900e+03	-2.36506e-02	5.19500e+02
1461	5.19844e+02	1.46100e+03	-2.35676e-02	5.20500e+02
1463	5.20826e+02	1.46300e+03	-2.35325e-02	5.21500e+02
1465	5.21812e+02	1.46500e+03	-2.35761e-02	5.22500e+02
1467	5.22802e+02	1.46700e+03	-2.36008e-02	5.23500e+02
1469	5.23783e+02	1.46900e+03	-2.36463e-02	5.24500e+02
1471	5.24764e+02	1.47100e+03	-2.36974e-02	5.25500e+02
1473	5.25739e+02	1.47300e+03	-2.37581e-02	5.26500e+02
1475	5.26716e+02	1.47500e+03	-2.38078e-02	5.27500e+02
1477	5.27701e+02	1.47700e+03	-2.38317e-02	5.28500e+02
1479	5.28673e+02	1.47900e+03	-2.38413e-02	5.29500e+02
1481	5.29652e+02	1.48100e+03	-2.38265e-02	5.30500e+02
1483	5.30623e+02	1.48300e+03	-2.38349e-02	5.31500e+02
1485	5.31607e+02	1.48500e+03	-2.38738e-02	5.32500e+02
1487	5.32583e+02	1.48700e+03	-2.39236e-02	5.33500e+02
1489	5.33567e+02	1.48900e+03	-2.39894e-02	5.34500e+02
1491	5.34547e+02	1.49100e+03	-2.40350e-02	5.35500e+02
1493	5.35533e+02	1.49300e+03	-2.40645e-02	5.36500e+02
1495	5.36531e+02	1.49500e+03	-2.40987e-02	5.37500e+02
1497	5.37529e+02	1.49700e+03	-2.41303e-02	5.38500e+02
1499	5.38506e+02	1.49900e+03	-2.41564e-02	5.39500e+02
1501	5.39499e+02	1.50100e+03	-2.41697e-02	5.40500e+02
1503	5.40486e+02	1.50300e+03	-2.41760e-02	5.41500e+02
1505	5.41479e+02	1.50500e+03	-2.41685e-02	5.42500e+02
1507	5.42469e+02	1.50700e+03	-2.41618e-02	5.43500e+02
1509	5.43456e+02	1.50900e+03	-2.41437e-02	5.44500e+02
1511	5.44453e+02	1.51100e+03	-2.41164e-02	5.45500e+02
1513	5.45433e+02	1.51300e+03	-2.40847e-02	5.46500e+02
1515	5.46428e+02	1.51500e+03	-2.40684e-02	5.47500e+02
1517	5.47418e+02	1.51700e+03	-2.40796e-02	5.48500e+02
1519	5.48411e+02	1.51900e+03	-2.41068e-02	5.49500e+02
1521	5.49404e+02	1.52100e+03	-2.41549e-02	5.50500e+02
1523	5.50401e+02	1.52300e+03	-2.41854e-02	5.51500e+02
1525	5.51388e+02	1.52500e+03	-2.42045e-02	5.52500e+02
1527	5.52379e+02	1.52700e+03	-2.42351e-02	5.53500e+02
1529	5.53368e+02	1.52900e+03	-2.42966e-02	5.54500e+02
1531	5.54354e+02	1.53100e+03	-2.43813e-02	5.55500e+02
1533	5.55347e+02	1.53300e+03	-2.44835e-02	5.56500e+02
1535	5.56334e+02	1.53500e+03	-2.45245e-02	5.57500e+02
1537	5.57327e+02	1.53700e+03	-2.44527e-02	5.58500e+02
1539	5.58312e+02	1.53900e+03	-2.43504e-02	5.59500e+02
1541	5.59307e+02	1.54100e+03	-2.41849e-02	5.60500e+02
1543	5.60296e+02	1.54300e+03	-2.40810e-02	5.61500e+02
1545	5.61285e+02	1.54500e+03	-2.40574e-02	5.62500e+02
1547	5.62282e+02	1.54700e+03	-2.40567e-02	5.63500e+02
1549	5.63280e+02	1.54900e+03	-2.41128e-02	5.64500e+02
1551	5.64274e+02	1.55100e+03	-2.41412e-02	5.65500e+02
1553	5.65266e+02	1.55300e+03	-2.41480e-02	5.66500e+02
1555	5.66260e+02	1.55500e+03	-2.41470e-02	5.67500e+02
1557	5.67264e+02	1.55700e+03	-2.41300e-02	5.68500e+02
1559	5.68253e+02	1.55900e+03	-2.41378e-02	5.69500e+02
1561	5.69256e+02	1.56100e+03	-2.41799e-02	5.70500e+02
1563	5.70256e+02	1.56300e+03	-2.42257e-02	5.71500e+02
1565	5.71248e+02	1.56500e+03	-2.42807e-02	5.72500e+02
1567	5.72254e+02	1.56700e+03	-2.43052e-02	5.73500e+02
1569	5.73246e+02	1.56900e+03	-2.42825e-02	5.74500e+02
1571	5.74248e+02	1.57100e+03	-2.42475e-02	5.75500e+02
1573	5.75261e+02	1.57300e+03	-2.41921e-02	5.76500e+02
1575	5.76288e+02	1.57500e+03	-2.41665e-02	5.77500e+02
1577	5.77298e+02	1.57700e+03	-2.41621e-02	5.78500e+02
1579	5.78339e+02	1.57900e+03	-2.41551e-02	5.79500e+02
1581	5.79377e+02	1.58100e+03	-2.41505e-02	5.80500e+02
1583	5.83564e+02	1.58300e+03	-2.41353e-02	5.81500e+02
1585	5.83992e+02	1.58500e+03	-2.41193e-02	5.82500e+02
1587	5.84820e+02	1.58700e+03	-2.41223e-02	5.83500e+02
1589	5.85708e+02	1.58900e+03	-2.41485e-02	5.84500e+02
1591	5.86610e+02	1.59100e+03	-2.41759e-02	5.85500e+02
1593	5.87514e+02	1.59300e+03	-2.42082e-02	5.86500e+02
1595	5.88451e+02	1.59500e+03	-2.42232e-02	5.87500e+02
1597	5.89391e+02	1.59700e+03	-2.42269e-02	5.88500e+02
1599	5.90349e+02	1.59900e+03	-2.42411e-02	5.89500e+02
1601	5.91304e+02	1.60100e+03	-2.42733e-02	5.90500e+02
1603	5.92274e+02	1.60300e+03	-2.43156e-02	5.91500e+02
1605	5.93245e+02	1.60500e+03	-2.43817e-02	5.92500e+02
1607	5.94212e+02	1.60700e+03	-2.44352e-02	5.93500e+02
1609	5.95164e+02	1.60900e+03	-2.44683e-02	5.94500e+02
1611	5.96139e+02	1.61100e+03	-2.44830e-02	5.95500e+02
1613	5.97098e+02	1.61300e+03	-2.44650e-02	5.96500e+02
1615	5.98067e+02	1.61500e+03	-2.44491e-02	5.97500e+02
1617	5.99038e+02	1.61700e+03	-2.44194e-02	5.98500e+02
1619	5.99998e+02	1.61900e+03	-2.44000e-02	5.99500e+02
1621	6.00958e+02	1.62100e+03	-2.43950e-02	6.00500e+02
1623	6.01928e+02	1.62300e+03	-2.44007e-02	6.01500e+02
1625	6.02898e+02	1.62500e+03	-2.44216e-02	6.02500e+02
1627	6.03862e+02	1.62700e+03	-2.44306e-02	6.03500e+02
1629	6.04836e+02	1.62900e+03	-2.44330e-02	6.04500e+02
1631	6.05801e+02	1.63100e+03	-2.44401e-02	6.05500e+02
1633	6.06771e+02	1.63300e+03	-2.44564e-02	6.06500e+02
1635	6.07734e+02	1.63500e+03	-2.44763e-02	6.07500e+02
1637	6.08712e+02	1.63700e+03	-2.45083e-02	6.08500e+02
1639	6.09684e+02	1.63900e+03	-2.45287e-02	6.09500e+02
1641	6.10648e+02	1.64100e+03	-2.45363e-02	6.10500e+02
1643	6.11625e+02	1.64300e+03	-2.45419e-02	6.11500e+02
1645	6.12605e+02	1.64500e+03	-2.45437e-02	6.12500e+02
1647	6.13579e+02	1.64700e+03	-2.45524e-02	6.13500e+02
1649	6.14547e+02	1.64900e+03	-2.45661e-02	6.14500e+02
1651	6.15535e+02	1.65100e+03	-2.45693e-02	6.15500e+02
1653	6.16509e+02	1.65300e+03	-2.45529e-02	6.16500e+02
1655	6.17474e+02	1.65500e+03	-2.45318e-02	6.17500e+02
1657	6.18438e+02	1.65700e+03	-2.45076e-02	6.18500e+02
1659	6.19419e+02	1.65900e+03	-2.45034e-02	6.19500e+02
1661	6.20395e+02	1.66100e+03	-2.45299e-02	6.20500e+02
1663	6.21361e+02	1.66300e+03	-2.45619e-02	6.21500e+02
1665	6.22333e+02	1.66500e+03	-2.46069e-02	6.22500e+02
1667	6.23315e+02	1.66700e+03	-2.46348e-02	6.23500e+02
1669	6.24281e+02	1.66900e+03	-2.46300e-02	6.24500e+02
1671	6.25256e+02	1.67100e+03	-2.46166e-02	6.25500e+02
1673	6.26225e+02	1.67300e+03	-2.45826e-02	6.26500e+02
1675	6.27214e+02	1.67500e+03	-2.45725e-02	6.27500e+02
1677	6.28198e+02	1.67700e+03	-2.45914e-02	6.28500e+02
1679	6.29176e+02	1.67900e+03	-2.46237e-02	6.29500e+02
1681	6.30160e+02	1.68100e+03	-2.46823e-02	6.30500e+02
1683	6.31133e+02	1.68300e+03	-2.47294e-02	6.31500e+02
1685	6.32112e+02	1.68500e+03	-2.47645e-02	6.32500e+02
1687	6.33093e+02	1.68700e+03	-2.47898e-02	6.33500e+02
1689	6.34092e+02	1.68900e+03	-2.48036e-02	6.34500e+02
1691	6.35074e+02	1.69100e+03	-2.48207e-02	6.35500e+02
1693	6.36045e+02	1.69300e+03	-2.48282e-02	6.36500e+02
1695	6.37031e+02	1.69500e+03	-2.48241e-02	6.37500e+02
1697	6.38017e+02	1.69700e+03	-2.48047e-02	6.38500e+02
1699	6.38995e+02	1.69900e+03	-2.47914e-02	6.39500e+02
1701	6.39979e+02	1.70100e+03	-2.47818e-02	6.40500e+02
1703	6.40956e+02	1.70300e+03	-2.47748e-02	6.41500e+02
1705	6.41940e+02	1.70500e+03	-2.47737e-02	6.42500e+02
1707	6.42917e+02	1.70700e+03	-2.47766e-02	6.43500e+02
1709	6.43893e+02	1.70900e+03	-2.47896e-02	6.44500e+02
1711	6.44872e+02	1.71100e+03	-2.48054e-02	6.45500e+02
1713	6.45855e+02	1.71300e+03	-2.48225e-02	6.46500e+02
1715	6.46840e+02	1.71500e+03	-2.48347e-02	6.47500e+02
1717	6.47815e+02	1.71700e+03	-2.48631e-02	6.48500e+02
1719	6.48791e+02	1.71900e+03	-2.49308e-02	6.49500e+02
1721	6.49783e+02	1.72100e+03	-2.50605e-02	6.50500e+02
1723	6.50748e+02	1.72300e+03	-2.51657e-02	6.51500e+02
1725	6.51729e+02	1.72500e+03	-2.52050e-02	6.52500e+02
1727	6.52712e+02	1.72700e+03	-2.51591e-02	6.53500e+02
1729	6.53702e+02	1.72900e+03	-2.49646e-02	6.54500e+02
1731	6.54681e+02	1.73100e+03	-2.48023e-02	6.55500e+02
1733	6.55665e+02	1.73300e+03	-2.46465e-02	6.56500e+02
1735	6.56655e+02	1.73500e+03	-2.45540e-02	6.57500e+02
1737	6.57636e+02	1.73700e+03	-2.45845e-02	6.58500e+02
1739	6.58625e+02	1.73900e+03	-2.46336e-02	6.59500e+02
1741	6.59608e+02	1.74100e+03	-2.47674e-02	6.60500e+02
1743	6.60585e+02	1.74300e+03	-2.48674e-02	6.61500e+02
1745	6.61581e+02	1.74500e+03	-2.49480e-02	6.62500e+02
1747	6.62574e+02	1.74700e+03	-2.50103e-02	6.63500e+02
1749	6.63554e+02	1.74900e+03	-2.50272e-02	6.64500e+02
1751	6.64550e+02	1.75100e+03	-2.50407e-02	6.65500e+02
1753	6.65536e+02	1.75300e+03	-2.50134e-02	6.66500e+02
1755	6.66519e+02	1.75500e+03	-2.49767e-02	6.67500e+02
1757	6.67514e+02	1.75700e+03	-2.49125e-02	6.68500e+02
1759	6.68484e+02	1.75900e+03	-2.48725e-02	6.69500e+02
1761	6.69465e+02	1.76100e+03	-2.48643e-02	6.70500e+02
1763	6.70453e+02	1.76300e+03	-2.48640e-02	6.71500e+02
1765	6.71443e+02	1.76500e+03	-2.48955e-02	6.72500e+02
1767	6.72427e+02	1.76700e+03	-2.49156e-02	6.73500e+02
1769	6.73409e+02	1.76900e+03	-2.49235e-02	6.74500e+02
1771	6.74396e+02	1.77100e+03	-2.49236e-02	6.75500e+02
1773	6.75384e+02	1.77300e+03	-2.49131e-02	6.76500e+02
1775	6.76381e+02	1.77500e+03	-2.49136e-02	6.77500e+02
1777	6.77362e+02	1.77700e+03	-2.49193e-02	6.78500e+02
1779	6.78349e+02	1.77900e+03	-2.49267e-02	6.79500e+02
1781	6.79344e+02	1.78100e+03	-2.49400e-02	6.80500e+02
1783	6.80316e+02	1.78300e+03	-2.49737e-02	6.81500e+02
1785	6.81319e+02	1.78500e+03	-2.50830e-02	6.82500e+02
1787	6.82295e+02	1.78700e+03	-2.52166e-02	6.83500e+02
1789	6.83292e+02	1.78900e+03	-2.53738e-02	6.84500e+02
1791	6.84282e+02	1.79100e+03	-2.54338e-02	6.85500e+02
1793	6.85275e+02	1.79300e+03	-2.53314e-02	6.86500e+02
1795	6.85905e+02	1.79500e+03	-2.51977e-02	6.87500e+02
1797	6.86345e+02	1.79700e+03	-2.49631e-02	6.88500e+02
1799	6.87089e+02	1.79900e+03	-2.48015e-02	6.89500e+02
1801	6.87792e+02	1.80100e+03	-2.46936e-02	6.90500e+02
1803	6.88459e+02	1.80300e+03	-2.46341e-02	6.91500e+02
1805	6.89059e+02	1.80500e+03	-2.46746e-02	6.92500e+02
1807	6.89645e+02	1.80700e+03	-2.47423e-02	6.93500e+02
1809	6.90197e+02	1.80900e+03	-2.48773e-02	6.94500e+02
1811	6.90710e+02	1.81100e+03	-2.49704e-02	6.95500e+02
1813	6.91196e+02	1.81300e+03	-2.50227e-02	6.96500e+02
1815	6.91657e+02	1.81500e+03	-2.50391e-02	6.97500e+02
1817	6.92085e+02	1.81700e+03	-2.49893e-02	6.98500e+02
1819	6.92478e+02	1.81900e+03	-2.49475e-02	6.99500e+02
1820	6.92678e+02	1.82000e+03	-2.49153e-02	7.00000e+02