File: Experiments/TUBS/tga_nonisotherm/tga_dynamic_n2_dyn30_piece_6mg_r2.txt
index	ts	t	weight	tr
[#]	[°C]	[s]	[mg]	[°C]
683	1.31289e+02	6.83000e+02	6.03516e+00	1.31500e+02
685	1.32288e+02	6.85000e+02	6.03494e+00	1.32500e+02
687	1.33284e+02	6.87000e+02	6.03475e+00	1.33500e+02
689	1.34297e+02	6.89000e+02	6.03454e+00	1.34500e+02
691	1.35303e+02	6.91000e+02	6.03434e+00	1.35500e+02
693	1.36313e+02	6.93000e+02	6.03414e+00	1.36500e+02
695	1.37328e+02	6.95000e+02	6.03391e+00	1.37500e+02
697	1.38322e+02	6.97000e+02	6.03365e+00	1.38500e+02
699	1.39337e+02	6.99000e+02	6.03340e+00	1.39500e+02
701	1.40344e+02	7.01000e+02	6.03312e+00	1.40500e+02
703	1.41353e+02	7.03000e+02	6.03284e+00	1.41500e+02
705	1.42351e+02	7.05000e+02	6.03260e+00	1.42500e+02
707	1.43360e+02	7.07000e+02	6.03240e+00	1.43500e+02
709	1.44360e+02	7.09000e+02	6.03227e+00	1.44500e+02
711	1.45373e+02	7.11000e+02	6.03215e+00	1.45500e+02
713	1.46376e+02	7.13000e+02	6.03207e+00	1.46500e+02
715	1.47383e+02	7.15000e+02	6.03198e+00	1.47500e+02
717	1.48400e+02	7.17000e+02	6.03186e+00	1.48500e+02
719	1.49398e+02	7.19000e+02	6.03169e+00	1.49500e+02
721	1.50431e+02	7.21000e+02	6.03140e+00	1.50500e+02
723	1.51426e+02	7.23000e+02	6.03113e+00	1.51500e+02
725	1.52423e+02	7.25000e+02	6.03086e+00	1.52500e+02
727	1.53442e+02	7.27000e+02	6.03065e+00	1.53500e+02
729	1.54459e+02	7.29000e+02	6.03052e+00	1.54500e+02
731	1.55469e+02	7.31000e+02	6.03038e+00	1.55500e+02
733	1.56474e+02	7.33000e+02	6.03019e+00	1.56500e+02
735	1.57475e+02	7.35000e+02	6.02993e+00	1.57500e+02
737	1.58495e+02	7.37000e+02	6.02960e+00	1.58500e+02
739	1.59508e+02	7.39000e+02	6.02934e+00	1.59500e+02
741	1.60508e+02	7.41000e+02	6.02916e+00	1.60500e+02
743	1.61532e+02	7.43000e+02	6.02898e+00	1.61500e+02
745	1.62539e+02	7.45000e+02	6.02885e+00	1.62500e+02
747	1.63546e+02	7.47000e+02	6.02868e+00	1.63500e+02
749	1.64554e+02	7.49000e+02	6.02847e+00	1.64500e+02
751	1.65564e+02	7.51000e+02	6.02827e+00	1.65500e+02
753	1.66592e+02	7.53000e+02	6.02805e+00	1.66500e+02
755	1.67587e+02	7.55000e+02	6.02783e+00	1.67500e+02
757	1.68623e+02	7.57000e+02	6.02764e+00	1.68500e+02
759	1.69637e+02	7.59000e+02	6.02746e+00	1.69500e+02
761	1.70639e+02	7.61000e+02	6.02725e+00	1.70500e+02
763	1.71659e+02	7.63000e+02	6.02698e+00	1.71500e+02
765	1.72680e+02	7.65000e+02	6.02664e+00	1.72500e+02
767	1.73693e+02	7.67000e+02	6.02635e+00	1.73500e+02
769	1.74712e+02	7.69000e+02	6.02607e+00	1.74500e+02
771	1.75713e+02	7.71000e+02	6.02578e+00	1.75500e+02
773	1.76739e+02	7.73000e+02	6.02552e+00	1.76500e+02
775	1.77754e+02	7.75000e+02	6.02525e+00	1.77500e+02
777	1.78770e+02	7.77000e+02	6.02496e+00	1.78500e+02
779	1.79791e+02	7.79000e+02	6.02462e+00	1.79500e+02
781	1.80809e+02	7.81000e+02	6.02420e+00	1.80500e+02
783	1.81811e+02	7.83000e+02	6.02379e+00	1.81500e+02
785	1.82824e+02	7.85000e+02	6.02337e+00	1.82500e+02
787	1.83858e+02	7.87000e+02	6.02297e+00	1.83500e+02
789	1.84870e+02	7.89000e+02	6.02259e+00	1.84500e+02
791	1.85867e+02	7.91000e+02	6.02218e+00	1.85500e+02
793	1.86882e+02	7.93000e+02	6.02169e+00	1.86500e+02
795	1.87900e+02	7.95000e+02	6.02113e+00	1.87500e+02
797	1.88903e+02	7.97000e+02	6.02044e+00	1.88500e+02
799	1.89923e+02	7.99000e+02	6.01977e+00	1.89500e+02
801	1.90939e+02	8.01000e+02	6.01904e+00	1.90500e+02
803	1.91963e+02	8.03000e+02	6.01836e+00	1.91500e+02
805	1.92983e+02	8.05000e+02	6.01775e+00	1.92500e+02
807	1.93991e+02	8.07000e+02	6.01722e+00	1.93500e+02
809	1.94994e+02	8.09000e+02	6.01680e+00	1.94500e+02
811	1.96022e+02	8.11000e+02	6.01630e+00	1.95500e+02
813	1.97033e+02	8.13000e+02	6.01574e+00	1.96500e+02
815	1.98046e+02	8.15000e+02	6.01512e+00	1.97500e+02
817	1.99068e+02	8.17000e+02	6.01436e+00	1.98500e+02
819	2.00080e+02	8.19000e+02	6.01358e+00	1.99500e+02
821	2.01092e+02	8.21000e+02	6.01270e+00	2.00500e+02
823	2.02112e+02	8.23000e+02	6.01182e+00	2.01500e+02
825	2.03124e+02	8.25000e+02	6.01087e+00	2.02500e+02
827	2.04141e+02	8.27000e+02	6.00991e+00	2.03500e+02
829	2.05161e+02	8.29000e+02	6.00889e+00	2.04500e+02
831	2.06177e+02	8.31000e+02	6.00784e+00	2.05500e+02
833	2.07181e+02	8.33000e+02	6.00670e+00	2.06500e+02
835	2.08197e+02	8.35000e+02	6.00552e+00	2.07500e+02
837	2.09218e+02	8.37000e+02	6.00424e+00	2.08500e+02
839	2.10208e+02	8.39000e+02	6.00295e+00	2.09500e+02
841	2.11223e+02	8.41000e+02	6.00162e+00	2.10500e+02
843	2.12228e+02	8.43000e+02	6.00033e+00	2.11500e+02
845	2.13225e+02	8.45000e+02	5.99905e+00	2.12500e+02
847	2.14231e+02	8.47000e+02	5.99777e+00	2.13500e+02
849	2.15241e+02	8.49000e+02	5.99652e+00	2.14500e+02
851	2.16259e+02	8.51000e+02	5.99527e+00	2.15500e+02
853	2.17274e+02	8.53000e+02	5.99404e+00	2.16500e+02
855	2.18288e+02	8.55000e+02	5.99278e+00	2.17500e+02
857	2.19307e+02	8.57000e+02	5.99150e+00	2.18500e+02
859	2.20313e+02	8.59000e+02	5.99021e+00	2.19500e+02
861	2.21331e+02	8.61000e+02	5.98891e+00	2.20500e+02
863	2.22352e+02	8.63000e+02	5.98762e+00	2.21500e+02
865	2.23381e+02	8.65000e+02	5.98636e+00	2.22500e+02
867	2.24400e+02	8.67000e+02	5.98512e+00	2.23500e+02
869	2.25423e+02	8.69000e+02	5.98391e+00	2.24500e+02
871	2.26439e+02	8.71000e+02	5.98265e+00	2.25500e+02
873	2.27467e+02	8.73000e+02	5.98134e+00	2.26500e+02
875	2.28470e+02	8.75000e+02	5.98004e+00	2.27500e+02
877	2.29500e+02	8.77000e+02	5.97870e+00	2.28500e+02
879	2.30512e+02	8.79000e+02	5.97734e+00	2.29500e+02
881	2.31551e+02	8.81000e+02	5.97597e+00	2.30500e+02
883	2.32565e+02	8.83000e+02	5.97462e+00	2.31500e+02
885	2.33593e+02	8.85000e+02	5.97326e+00	2.32500e+02
887	2.34603e+02	8.87000e+02	5.97189e+00	2.33500e+02
889	2.35631e+02	8.89000e+02	5.97049e+00	2.34500e+02
891	2.36646e+02	8.91000e+02	5.96912e+00	2.35500e+02
893	2.37672e+02	8.93000e+02	5.96776e+00	2.36500e+02
895	2.38676e+02	8.95000e+02	5.96638e+00	2.37500e+02
897	2.39705e+02	8.97000e+02	5.96499e+00	2.38500e+02
899	2.40711e+02	8.99000e+02	5.96358e+00	2.39500e+02
901	2.41725e+02	9.01000e+02	5.96214e+00	2.40500e+02
903	2.42743e+02	9.03000e+02	5.96070e+00	2.41500e+02
905	2.43752e+02	9.05000e+02	5.95924e+00	2.42500e+02
907	2.44784e+02	9.07000e+02	5.95776e+00	2.43500e+02
909	2.45799e+02	9.09000e+02	5.95625e+00	2.44500e+02
911	2.46809e+02	9.11000e+02	5.95473e+00	2.45500e+02
913	2.47843e+02	9.13000e+02	5.95318e+00	2.46500e+02
915	2.48859e+02	9.15000e+02	5.95165e+00	2.47500e+02
917	2.49867e+02	9.17000e+02	5.95013e+00	2.48500e+02
919	2.50871e+02	9.19000e+02	5.94861e+00	2.49500e+02
921	2.51883e+02	9.21000e+02	5.94709e+00	2.50500e+02
923	2.52877e+02	9.23000e+02	5.94554e+00	2.51500e+02
925	2.53877e+02	9.25000e+02	5.94397e+00	2.52500e+02
927	2.54910e+02	9.27000e+02	5.94239e+00	2.53500e+02
929	2.55900e+02	9.29000e+02	5.94077e+00	2.54500e+02
931	2.56910e+02	9.31000e+02	5.93914e+00	2.55500e+02
933	2.57928e+02	9.33000e+02	5.93747e+00	2.56500e+02
935	2.58932e+02	9.35000e+02	5.93581e+00	2.57500e+02
937	2.59937e+02	9.37000e+02	5.93413e+00	2.58500e+02
939	2.60947e+02	9.39000e+02	5.93244e+00	2.59500e+02
941	2.61951e+02	9.41000e+02	5.93073e+00	2.60500e+02
943	2.62955e+02	9.43000e+02	5.92904e+00	2.61500e+02
945	2.63988e+02	9.45000e+02	5.92736e+00	2.62500e+02
947	2.65005e+02	9.47000e+02	5.92567e+00	2.63500e+02
949	2.66025e+02	9.49000e+02	5.92398e+00	2.64500e+02
951	2.67043e+02	9.51000e+02	5.92228e+00	2.65500e+02
953	2.68027e+02	9.53000e+02	5.92054e+00	2.66500e+02
955	2.69034e+02	9.55000e+02	5.91877e+00	2.67500e+02
957	2.70032e+02	9.57000e+02	5.91694e+00	2.68500e+02
959	2.71025e+02	9.59000e+02	5.91514e+00	2.69500e+02
961	2.72002e+02	9.61000e+02	5.91331e+00	2.70500e+02
963	2.73003e+02	9.63000e+02	5.91146e+00	2.71500e+02
965	2.73973e+02	9.65000e+02	5.90958e+00	2.72500e+02
967	2.74972e+02	9.67000e+02	5.90767e+00	2.73500e+02
969	2.75958e+02	9.69000e+02	5.90572e+00	2.74500e+02
971	2.76941e+02	9.71000e+02	5.90373e+00	2.75500e+02
973	2.77947e+02	9.73000e+02	5.90154e+00	2.76500e+02
975	2.78933e+02	9.75000e+02	5.89914e+00	2.77500e+02
977	2.79929e+02	9.77000e+02	5.89631e+00	2.78500e+02
979	2.80913e+02	9.79000e+02	5.89342e+00	2.79500e+02
981	2.81913e+02	9.81000e+02	5.89034e+00	2.80500e+02
983	2.82908e+02	9.83000e+02	5.88742e+00	2.81500e+02
985	2.83892e+02	9.85000e+02	5.88463e+00	2.82500e+02
987	2.84907e+02	9.87000e+02	5.88184e+00	2.83500e+02
989	2.85915e+02	9.89000e+02	5.87914e+00	2.84500e+02
991	2.86926e+02	9.91000e+02	5.87644e+00	2.85500e+02
993	2.87925e+02	9.93000e+02	5.87378e+00	2.86500e+02
995	2.88941e+02	9.95000e+02	5.87110e+00	2.87500e+02
997	2.89955e+02	9.97000e+02	5.86845e+00	2.88500e+02
999	2.90954e+02	9.99000e+02	5.86577e+00	2.89500e+02
1001	2.91969e+02	1.00100e+03	5.86292e+00	2.90500e+02
1003	2.92981e+02	1.00300e+03	5.85992e+00	2.91500e+02
1005	2.93980e+02	1.00500e+03	5.85665e+00	2.92500e+02
1007	2.94996e+02	1.00700e+03	5.85344e+00	2.93500e+02
1009	2.95991e+02	1.00900e+03	5.85020e+00	2.94500e+02
1011	2.97013e+02	1.01100e+03	5.84700e+00	2.95500e+02
1013	2.98024e+02	1.01300e+03	5.84378e+00	2.96500e+02
1015	2.99039e+02	1.01500e+03	5.84049e+00	2.97500e+02
1017	3.00064e+02	1.01700e+03	5.83704e+00	2.98500e+02
1019	3.01085e+02	1.01900e+03	5.83352e+00	2.99500e+02
1021	3.02105e+02	1.02100e+03	5.82977e+00	3.00500e+02
1023	3.03108e+02	1.02300e+03	5.82596e+00	3.01500e+02
1025	3.04116e+02	1.02500e+03	5.82192e+00	3.02500e+02
1027	3.05134e+02	1.02700e+03	5.81786e+00	3.03500e+02
1029	3.06150e+02	1.02900e+03	5.81360e+00	3.04500e+02
1031	3.07168e+02	1.03100e+03	5.80930e+00	3.05500e+02
1033	3.08181e+02	1.03300e+03	5.80480e+00	3.06500e+02
1035	3.09179e+02	1.03500e+03	5.80023e+00	3.07500e+02
1037	3.10181e+02	1.03700e+03	5.79537e+00	3.08500e+02
1039	3.11192e+02	1.03900e+03	5.79034e+00	3.09500e+02
1041	3.12196e+02	1.04100e+03	5.78491e+00	3.10500e+02
1043	3.13208e+02	1.04300e+03	5.77945e+00	3.11500e+02
1045	3.14228e+02	1.04500e+03	5.77371e+00	3.12500e+02
1047	3.15240e+02	1.04700e+03	5.76801e+00	3.13500e+02
1049	3.16264e+02	1.04900e+03	5.76221e+00	3.14500e+02
1051	3.17292e+02	1.05100e+03	5.75642e+00	3.15500e+02
1053	3.18303e+02	1.05300e+03	5.75056e+00	3.16500e+02
1055	3.19319e+02	1.05500e+03	5.74466e+00	3.17500e+02
1057	3.20331e+02	1.05700e+03	5.73867e+00	3.18500e+02
1059	3.21327e+02	1.05900e+03	5.73266e+00	3.19500e+02
1061	3.22348e+02	1.06100e+03	5.72657e+00	3.20500e+02
1063	3.23356e+02	1.06300e+03	5.72042e+00	3.21500e+02
1065	3.24378e+02	1.06500e+03	5.71415e+00	3.22500e+02
1067	3.25400e+02	1.06700e+03	5.70785e+00	3.23500e+02
1069	3.26414e+02	1.06900e+03	5.70140e+00	3.24500e+02
1071	3.27418e+02	1.07100e+03	5.69489e+00	3.25500e+02
1073	3.28423e+02	1.07300e+03	5.68820e+00	3.26500e+02
1075	3.29433e+02	1.07500e+03	5.68144e+00	3.27500e+02
1077	3.30436e+02	1.07700e+03	5.67443e+00	3.28500e+02
1079	3.31427e+02	1.07900e+03	5.66732e+00	3.29500e+02
1081	3.32445e+02	1.08100e+03	5.65985e+00	3.30500e+02
1083	3.33429e+02	1.08300e+03	5.65226e+00	3.31500e+02
1085	3.34454e+02	1.08500e+03	5.64423e+00	3.32500e+02
1087	3.35445e+02	1.08700e+03	5.63605e+00	3.33500e+02
1089	3.36440e+02	1.08900e+03	5.62737e+00	3.34500e+02
1091	3.37441e+02	1.09100e+03	5.61851e+00	3.35500e+02
1093	3.38454e+02	1.09300e+03	5.60903e+00	3.36500e+02
1095	3.39490e+02	1.09500e+03	5.59931e+00	3.37500e+02
1097	3.40495e+02	1.09700e+03	5.58875e+00	3.38500e+02
1099	3.41479e+02	1.09900e+03	5.57789e+00	3.39500e+02
1101	3.42480e+02	1.10100e+03	5.56596e+00	3.40500e+02
1103	3.43469e+02	1.10300e+03	5.55366e+00	3.41500e+02
1105	3.44483e+02	1.10500e+03	5.54006e+00	3.42500e+02
1107	3.45575e+02	1.10700e+03	5.52604e+00	3.43500e+02
1109	3.46626e+02	1.10900e+03	5.51043e+00	3.44500e+02
1111	3.47758e+02	1.11100e+03	5.49432e+00	3.45500e+02
1113	3.48828e+02	1.11300e+03	5.47639e+00	3.46500e+02
1115	3.49914e+02	1.11500e+03	5.45800e+00	3.47500e+02
1117	3.50894e+02	1.11700e+03	5.43754e+00	3.48500e+02
1119	3.51877e+02	1.11900e+03	5.41625e+00	3.49500e+02
1121	3.52898e+02	1.12100e+03	5.39209e+00	3.50500e+02
1123	3.53936e+02	1.12300e+03	5.36699e+00	3.51500e+02
1125	3.54957e+02	1.12500e+03	5.33881e+00	3.52500e+02
1127	3.55957e+02	1.12700e+03	5.31023e+00	3.53500e+02
1129	3.56939e+02	1.12900e+03	5.27911e+00	3.54500e+02
1131	3.57949e+02	1.13100e+03	5.24736e+00	3.55500e+02
1133	3.58919e+02	1.13300e+03	5.21294e+00	3.56500e+02
1135	3.59897e+02	1.13500e+03	5.17770e+00	3.57500e+02
1137	3.60867e+02	1.13700e+03	5.13927e+00	3.58500e+02
1139	3.61841e+02	1.13900e+03	5.09975e+00	3.59500e+02
1141	3.62817e+02	1.14100e+03	5.05638e+00	3.60500e+02
1143	3.63775e+02	1.14300e+03	5.01184e+00	3.61500e+02
1145	3.64744e+02	1.14500e+03	4.96317e+00	3.62500e+02
1147	3.65701e+02	1.14700e+03	4.91257e+00	3.63500e+02
1149	3.66672e+02	1.14900e+03	4.85779e+00	3.64500e+02
1151	3.67638e+02	1.15100e+03	4.80204e+00	3.65500e+02
1153	3.68595e+02	1.15300e+03	4.74245e+00	3.66500e+02
1155	3.69575e+02	1.15500e+03	4.68214e+00	3.67500e+02
1157	3.70545e+02	1.15700e+03	4.61828e+00	3.68500e+02
1159	3.71488e+02	1.15900e+03	4.55348e+00	3.69500e+02
1161	3.72459e+02	1.16100e+03	4.48497e+00	3.70500e+02
1163	3.73431e+02	1.16300e+03	4.41555e+00	3.71500e+02
1165	3.74397e+02	1.16500e+03	4.34241e+00	3.72500e+02
1167	3.75366e+02	1.16700e+03	4.26847e+00	3.73500e+02
1169	3.76333e+02	1.16900e+03	4.19096e+00	3.74500e+02
1171	3.77307e+02	1.17100e+03	4.11269e+00	3.75500e+02
1173	3.78297e+02	1.17300e+03	4.03088e+00	3.76500e+02
1175	3.79283e+02	1.17500e+03	3.94817e+00	3.77500e+02
1177	3.80268e+02	1.17700e+03	3.86191e+00	3.78500e+02
1179	3.81252e+02	1.17900e+03	3.77493e+00	3.79500e+02
1181	3.82213e+02	1.18100e+03	3.68469e+00	3.80500e+02
1183	3.83200e+02	1.18300e+03	3.59389e+00	3.81500e+02
1185	3.84161e+02	1.18500e+03	3.50036e+00	3.82500e+02
1187	3.85138e+02	1.18700e+03	3.40643e+00	3.83500e+02
1189	3.86110e+02	1.18900e+03	3.31010e+00	3.84500e+02
1191	3.87065e+02	1.19100e+03	3.21318e+00	3.85500e+02
1193	3.88084e+02	1.19300e+03	3.11383e+00	3.86500e+02
1195	3.89157e+02	1.19500e+03	3.01386e+00	3.87500e+02
1197	3.90229e+02	1.19700e+03	2.91136e+00	3.88500e+02
1199	3.91326e+02	1.19900e+03	2.80834e+00	3.89500e+02
1201	3.92350e+02	1.20100e+03	2.70347e+00	3.90500e+02
1203	3.93388e+02	1.20300e+03	2.59895e+00	3.91500e+02
1205	3.94431e+02	1.20500e+03	2.49410e+00	3.92500e+02
1207	3.95464e+02	1.20700e+03	2.38959e+00	3.93500e+02
1209	3.96503e+02	1.20900e+03	2.28533e+00	3.94500e+02
1211	3.97500e+02	1.21100e+03	2.18095e+00	3.95500e+02
1213	3.98512e+02	1.21300e+03	2.07636e+00	3.96500e+02
1215	3.99539e+02	1.21500e+03	1.97156e+00	3.97500e+02
1217	4.00581e+02	1.21700e+03	1.86659e+00	3.98500e+02
1219	4.01573e+02	1.21900e+03	1.76217e+00	3.99500e+02
1221	4.02623e+02	1.22100e+03	1.65878e+00	4.00500e+02
1223	4.03581e+02	1.22300e+03	1.55623e+00	4.01500e+02
1225	4.04574e+02	1.22500e+03	1.45575e+00	4.02500e+02
1227	4.05588e+02	1.22700e+03	1.35584e+00	4.03500e+02
1229	4.06574e+02	1.22900e+03	1.25819e+00	4.04500e+02
1231	4.07635e+02	1.23100e+03	1.16115e+00	4.05500e+02
1233	4.08694e+02	1.23300e+03	1.06679e+00	4.06500e+02
1235	4.09763e+02	1.23500e+03	9.73752e-01	4.07500e+02
1237	4.11018e+02	1.23700e+03	8.84021e-01	4.08500e+02
1239	4.12243e+02	1.23900e+03	7.97207e-01	4.09500e+02
1241	4.13677e+02	1.24100e+03	7.16411e-01	4.10500e+02
1243	4.14867e+02	1.24300e+03	6.41594e-01	4.11500e+02
1245	4.15943e+02	1.24500e+03	5.71916e-01	4.12500e+02
1247	4.16967e+02	1.24700e+03	5.08523e-01	4.13500e+02
1249	4.18101e+02	1.24900e+03	4.50404e-01	4.14500e+02
1251	4.19198e+02	1.25100e+03	3.98553e-01	4.15500e+02
1253	4.20239e+02	1.25300e+03	3.52980e-01	4.16500e+02
1255	4.21218e+02	1.25500e+03	3.10361e-01	4.17500e+02
1257	4.22259e+02	1.25700e+03	2.74405e-01	4.18500e+02
1259	4.23228e+02	1.25900e+03	2.40598e-01	4.19500e+02
1261	4.24201e+02	1.26100e+03	2.12378e-01	4.20500e+02
1263	4.25122e+02	1.26300e+03	1.87086e-01	4.21500e+02
1265	4.26146e+02	1.26500e+03	1.65126e-01	4.22500e+02
1267	4.27142e+02	1.26700e+03	1.44447e-01	4.23500e+02
1269	4.28109e+02	1.26900e+03	1.27707e-01	4.24500e+02
1271	4.29114e+02	1.27100e+03	1.11687e-01	4.25500e+02
1273	4.30171e+02	1.27300e+03	9.90518e-02	4.26500e+02
1275	4.31246e+02	1.27500e+03	8.68515e-02	4.27500e+02
1277	4.32288e+02	1.27700e+03	7.72959e-02	4.28500e+02
1279	4.33247e+02	1.27900e+03	6.80859e-02	4.29500e+02
1281	4.34297e+02	1.28100e+03	6.09303e-02	4.30500e+02
1283	4.35342e+02	1.28300e+03	5.40307e-02	4.31500e+02
1285	4.36339e+02	1.28500e+03	4.87299e-02	4.32500e+02
1287	4.37361e+02	1.28700e+03	4.36228e-02	4.33500e+02
1289	4.38365e+02	1.28900e+03	3.96966e-02	4.34500e+02
1291	4.39412e+02	1.29100e+03	3.58587e-02	4.35500e+02
1293	4.40468e+02	1.29300e+03	3.28567e-02	4.36500e+02
1295	4.41446e+02	1.29500e+03	2.99638e-02	4.37500e+02
1297	4.42384e+02	1.29700e+03	2.77031e-02	4.38500e+02
1299	4.43353e+02	1.29900e+03	2.55072e-02	4.39500e+02
1301	4.44322e+02	1.30100e+03	2.37828e-02	4.40500e+02
1303	4.45337e+02	1.30300e+03	2.21133e-02	4.41500e+02
1305	4.46300e+02	1.30500e+03	2.07892e-02	4.42500e+02
1307	4.47325e+02	1.30700e+03	1.95067e-02	4.43500e+02
1309	4.48278e+02	1.30900e+03	1.85135e-02	4.44500e+02
1311	4.49326e+02	1.31100e+03	1.75800e-02	4.45500e+02
1313	4.50268e+02	1.31300e+03	1.68887e-02	4.46500e+02
1315	4.51315e+02	1.31500e+03	1.62058e-02	4.47500e+02
1317	4.52150e+02	1.31700e+03	1.56710e-02	4.48500e+02
1319	4.53029e+02	1.31900e+03	1.51446e-02	4.49500e+02
1321	4.53904e+02	1.32100e+03	1.47138e-02	4.50500e+02
1323	4.54837e+02	1.32300e+03	1.42852e-02	4.51500e+02
1325	4.55721e+02	1.32500e+03	1.39092e-02	4.52500e+02
1327	4.56638e+02	1.32700e+03	1.35309e-02	4.53500e+02
1329	4.57559e+02	1.32900e+03	1.31972e-02	4.54500e+02
1331	4.58432e+02	1.33100e+03	1.28838e-02	4.55500e+02
1333	4.59296e+02	1.33300e+03	1.26333e-02	4.56500e+02
1335	4.60183e+02	1.33500e+03	1.24054e-02	4.57500e+02
1337	4.61087e+02	1.33700e+03	1.22580e-02	4.58500e+02
1339	4.62031e+02	1.33900e+03	1.21260e-02	4.59500e+02
1341	4.62952e+02	1.34100e+03	1.20596e-02	4.60500e+02
1343	4.63888e+02	1.34300e+03	1.19976e-02	4.61500e+02
1345	4.64832e+02	1.34500e+03	1.19667e-02	4.62500e+02
1347	4.65791e+02	1.34700e+03	1.19302e-02	4.63500e+02
1349	4.66746e+02	1.34900e+03	1.18849e-02	4.64500e+02
1351	4.67704e+02	1.35100e+03	1.18227e-02	4.65500e+02
1353	4.68658e+02	1.35300e+03	1.17426e-02	4.66500e+02
1355	4.69562e+02	1.35500e+03	1.16767e-02	4.67500e+02
1357	4.70499e+02	1.35700e+03	1.16105e-02	4.68500e+02
1359	4.71450e+02	1.35900e+03	1.15389e-02	4.69500e+02
1361	4.72408e+02	1.36100e+03	1.14776e-02	4.70500e+02
1363	4.73386e+02	1.36300e+03	1.14380e-02	4.71500e+02
1365	4.74360e+02	1.36500e+03	1.14223e-02	4.72500e+02
1367	4.75339e+02	1.36700e+03	1.14041e-02	4.73500e+02
1369	4.76311e+02	1.36900e+03	1.14035e-02	4.74500e+02
1371	4.77302e+02	1.37100e+03	1.14089e-02	4.75500e+02
1373	4.78289e+02	1.37300e+03	1.14138e-02	4.76500e+02
1375	4.79272e+02	1.37500e+03	1.13924e-02	4.77500e+02
1377	4.80248e+02	1.37700e+03	1.13459e-02	4.78500e+02
1379	4.81237e+02	1.37900e+03	1.13069e-02	4.79500e+02
1381	4.82204e+02	1.38100e+03	1.12552e-02	4.80500e+02
1383	4.83197e+02	1.38300e+03	1.11947e-02	4.81500e+02
1385	4.84175e+02	1.38500e+03	1.11284e-02	4.82500e+02
1387	4.85163e+02	1.38700e+03	1.10693e-02	4.83500e+02
1389	4.86150e+02	1.38900e+03	1.10120e-02	4.84500e+02
1391	4.87142e+02	1.39100e+03	1.09528e-02	4.85500e+02
1393	4.88107e+02	1.39300e+03	1.09084e-02	4.86500e+02
1395	4.89102e+02	1.39500e+03	1.08779e-02	4.87500e+02
1397	4.90088e+02	1.39700e+03	1.08679e-02	4.88500e+02
1399	4.91067e+02	1.39900e+03	1.08470e-02	4.89500e+02
1401	4.92060e+02	1.40100e+03	1.08207e-02	4.90500e+02
1403	4.93042e+02	1.40300e+03	1.07877e-02	4.91500e+02
1405	4.94024e+02	1.40500e+03	1.07269e-02	4.92500e+02
1407	4.95008e+02	1.40700e+03	1.06531e-02	4.93500e+02
1409	4.95996e+02	1.40900e+03	1.05667e-02	4.94500e+02
1411	4.96978e+02	1.41100e+03	1.05070e-02	4.95500e+02
1413	4.97981e+02	1.41300e+03	1.04839e-02	4.96500e+02
1415	4.98973e+02	1.41500e+03	1.04626e-02	4.97500e+02
1417	4.99962e+02	1.41700e+03	1.04523e-02	4.98500e+02
1419	5.00948e+02	1.41900e+03	1.04233e-02	4.99500e+02
1421	5.01934e+02	1.42100e+03	1.03797e-02	5.00500e+02
1423	5.02913e+02	1.42300e+03	1.03346e-02	5.01500e+02
1425	5.03909e+02	1.42500e+03	1.02799e-02	5.02500e+02
1427	5.04887e+02	1.42700e+03	1.02352e-02	5.03500e+02
1429	5.05874e+02	1.42900e+03	1.02111e-02	5.04500e+02
1431	5.06875e+02	1.43100e+03	1.01814e-02	5.05500e+02
1433	5.07859e+02	1.43300e+03	1.01649e-02	5.06500e+02
1435	5.08854e+02	1.43500e+03	1.01653e-02	5.07500e+02
1437	5.09836e+02	1.43700e+03	1.02019e-02	5.08500e+02
1439	5.10824e+02	1.43900e+03	1.02526e-02	5.09500e+02
1441	5.11807e+02	1.44100e+03	1.03063e-02	5.10500e+02
1443	5.12815e+02	1.44300e+03	1.03033e-02	5.11500e+02
1445	5.13798e+02	1.44500e+03	1.02224e-02	5.12500e+02
1447	5.14806e+02	1.44700e+03	1.01383e-02	5.13500e+02
1449	5.15799e+02	1.44900e+03	1.00058e-02	5.14500e+02
1451	5.16795e+02	1.45100e+03	9.90210e-03	5.15500e+02
1453	5.17787e+02	1.45300e+03	9.87683e-03	5.16500e+02
1455	5.18772e+02	1.45500e+03	9.92331e-03	5.17500e+02
1457	5.19758e+02	1.45700e+03	1.00842e-02	5.18500e+02
1459	5.20738e+02	1.45900e+03	1.01893e-02	5.19500e+02
1461	5.21711e+02	1.46100e+03	1.02545e-02	5.20500e+02
1463	5.22701e+02	1.46300e+03	1.02883e-02	5.21500e+02
1465	5.23687e+02	1.46500e+03	1.02488e-02	5.22500e+02
1467	5.24681e+02	1.46700e+03	1.02245e-02	5.23500e+02
1469	5.25667e+02	1.46900e+03	1.02109e-02	5.24500e+02
1471	5.26662e+02	1.47100e+03	1.02123e-02	5.25500e+02
1473	5.27647e+02	1.47300e+03	1.02020e-02	5.26500e+02
1475	5.28619e+02	1.47500e+03	1.01412e-02	5.27500e+02
1477	5.29602e+02	1.47700e+03	1.00456e-02	5.28500e+02
1479	5.30595e+02	1.47900e+03	9.99327e-03	5.29500e+02
1481	5.31565e+02	1.48100e+03	9.98510e-03	5.30500e+02
1483	5.32549e+02	1.48300e+03	1.00120e-02	5.31500e+02
1485	5.33560e+02	1.48500e+03	1.01368e-02	5.32500e+02
1487	5.34532e+02	1.48700e+03	1.02296e-02	5.33500e+02
1489	5.35535e+02	1.48900e+03	1.02448e-02	5.34500e+02
1491	5.36513e+02	1.49100e+03	1.01372e-02	5.35500e+02
1493	5.37494e+02	1.49300e+03	9.88370e-03	5.36500e+02
1495	5.38472e+02	1.49500e+03	9.73618e-03	5.37500e+02
1497	5.39465e+02	1.49700e+03	9.65537e-03	5.38500e+02
1499	5.40470e+02	1.49900e+03	9.59218e-03	5.39500e+02
1501	5.41469e+02	1.50100e+03	9.60876e-03	5.40500e+02
1503	5.42456e+02	1.50300e+03	9.62242e-03	5.41500e+02
1505	5.43457e+02	1.50500e+03	9.65574e-03	5.42500e+02
1507	5.44430e+02	1.50700e+03	9.66602e-03	5.43500e+02
1509	5.45413e+02	1.50900e+03	9.66490e-03	5.44500e+02
1511	5.46372e+02	1.51100e+03	9.67078e-03	5.45500e+02
1513	5.47329e+02	1.51300e+03	9.68722e-03	5.46500e+02
1515	5.48309e+02	1.51500e+03	9.71153e-03	5.47500e+02
1517	5.49284e+02	1.51700e+03	9.73838e-03	5.48500e+02
1519	5.50261e+02	1.51900e+03	9.74058e-03	5.49500e+02
1521	5.51213e+02	1.52100e+03	9.70722e-03	5.50500e+02
1523	5.52165e+02	1.52300e+03	9.66008e-03	5.51500e+02
1525	5.53156e+02	1.52500e+03	9.57144e-03	5.52500e+02
1527	5.54121e+02	1.52700e+03	9.49908e-03	5.53500e+02
1529	5.55094e+02	1.52900e+03	9.41892e-03	5.54500e+02
1531	5.56070e+02	1.53100e+03	9.34825e-03	5.55500e+02
1533	5.57060e+02	1.53300e+03	9.29555e-03	5.56500e+02
1535	5.58031e+02	1.53500e+03	9.26620e-03	5.57500e+02
1537	5.59015e+02	1.53700e+03	9.33558e-03	5.58500e+02
1539	5.59991e+02	1.53900e+03	9.44822e-03	5.59500e+02
1541	5.60987e+02	1.54100e+03	9.60752e-03	5.60500e+02
1543	5.61964e+02	1.54300e+03	9.66901e-03	5.61500e+02
1545	5.62947e+02	1.54500e+03	9.62517e-03	5.62500e+02
1547	5.63936e+02	1.54700e+03	9.59793e-03	5.63500e+02
1549	5.64924e+02	1.54900e+03	9.54525e-03	5.64500e+02
1551	5.65903e+02	1.55100e+03	9.52567e-03	5.65500e+02
1553	5.66907e+02	1.55300e+03	9.55096e-03	5.66500e+02
1555	5.67895e+02	1.55500e+03	9.57619e-03	5.67500e+02
1557	5.68878e+02	1.55700e+03	9.59536e-03	5.68500e+02
1559	5.69879e+02	1.55900e+03	9.57888e-03	5.69500e+02
1561	5.70875e+02	1.56100e+03	9.52456e-03	5.70500e+02
1563	5.71871e+02	1.56300e+03	9.49360e-03	5.71500e+02
1565	5.72875e+02	1.56500e+03	9.47223e-03	5.72500e+02
1567	5.73852e+02	1.56700e+03	9.44489e-03	5.73500e+02
1569	5.74868e+02	1.56900e+03	9.41985e-03	5.74500e+02
1571	5.75857e+02	1.57100e+03	9.39322e-03	5.75500e+02
1573	5.76853e+02	1.57300e+03	9.36347e-03	5.76500e+02
1575	5.77848e+02	1.57500e+03	9.34263e-03	5.77500e+02
1577	5.78850e+02	1.57700e+03	9.34437e-03	5.78500e+02
1579	5.79867e+02	1.57900e+03	9.36224e-03	5.79500e+02
1581	5.80893e+02	1.58100e+03	9.40152e-03	5.80500e+02
1583	5.81883e+02	1.58300e+03	9.41846e-03	5.81500e+02
1585	5.82932e+02	1.58500e+03	9.40145e-03	5.82500e+02
1587	5.83969e+02	1.58700e+03	9.38330e-03	5.83500e+02
1589	5.84964e+02	1.58900e+03	9.35730e-03	5.84500e+02
1591	5.85960e+02	1.59100e+03	9.35941e-03	5.85500e+02
1593	5.86981e+02	1.59300e+03	9.38900e-03	5.86500e+02
1595	5.87975e+02	1.59500e+03	9.40424e-03	5.87500e+02
1597	5.88983e+02	1.59700e+03	9.41081e-03	5.88500e+02
1599	5.89944e+02	1.59900e+03	9.40881e-03	5.89500e+02
1601	5.90920e+02	1.60100e+03	9.37483e-03	5.90500e+02
1603	5.91905e+02	1.60300e+03	9.33184e-03	5.91500e+02
1605	5.92894e+02	1.60500e+03	9.28460e-03	5.92500e+02
1607	5.93874e+02	1.60700e+03	9.26643e-03	5.93500e+02
1609	5.94868e+02	1.60900e+03	9.27039e-03	5.94500e+02
1611	5.95875e+02	1.61100e+03	9.25907e-03	5.95500e+02
1613	5.96867e+02	1.61300e+03	9.25307e-03	5.96500e+02
1615	5.97844e+02	1.61500e+03	9.25796e-03	5.97500e+02
1617	5.98838e+02	1.61700e+03	9.26339e-03	5.98500e+02
1619	5.99814e+02	1.61900e+03	9.25431e-03	5.99500e+02
1621	6.00794e+02	1.62100e+03	9.23100e-03	6.00500e+02
1623	6.01784e+02	1.62300e+03	9.21113e-03	6.01500e+02
1625	6.02767e+02	1.62500e+03	9.16988e-03	6.02500e+02
1627	6.03779e+02	1.62700e+03	9.11759e-03	6.03500e+02
1629	6.04756e+02	1.62900e+03	9.07202e-03	6.04500e+02
1631	6.05735e+02	1.63100e+03	9.05265e-03	6.05500e+02
1633	6.06682e+02	1.63300e+03	9.04436e-03	6.06500e+02
1635	6.07656e+02	1.63500e+03	9.00252e-03	6.07500e+02
1637	6.08651e+02	1.63700e+03	8.94655e-03	6.08500e+02
1639	6.09624e+02	1.63900e+03	8.91639e-03	6.09500e+02
1641	6.10618e+02	1.64100e+03	8.90831e-03	6.10500e+02
1643	6.11599e+02	1.64300e+03	8.89890e-03	6.11500e+02
1645	6.12576e+02	1.64500e+03	8.90231e-03	6.12500e+02
1647	6.13570e+02	1.64700e+03	8.89677e-03	6.13500e+02
1649	6.14578e+02	1.64900e+03	8.88499e-03	6.14500e+02
1651	6.15565e+02	1.65100e+03	8.87807e-03	6.15500e+02
1653	6.16549e+02	1.65300e+03	8.88614e-03	6.16500e+02
1655	6.17532e+02	1.65500e+03	8.90199e-03	6.17500e+02
1657	6.18514e+02	1.65700e+03	8.92453e-03	6.18500e+02
1659	6.19503e+02	1.65900e+03	8.92613e-03	6.19500e+02
1661	6.20498e+02	1.66100e+03	8.90788e-03	6.20500e+02
1663	6.21484e+02	1.66300e+03	8.89101e-03	6.21500e+02
1665	6.22484e+02	1.66500e+03	8.87298e-03	6.22500e+02
1667	6.23481e+02	1.66700e+03	8.86020e-03	6.23500e+02
1669	6.24494e+02	1.66900e+03	8.86028e-03	6.24500e+02
1671	6.25493e+02	1.67100e+03	8.85919e-03	6.25500e+02
1673	6.26488e+02	1.67300e+03	8.85650e-03	6.26500e+02
1675	6.27474e+02	1.67500e+03	8.84107e-03	6.27500e+02
1677	6.28475e+02	1.67700e+03	8.80790e-03	6.28500e+02
1679	6.29464e+02	1.67900e+03	8.77469e-03	6.29500e+02
1681	6.30482e+02	1.68100e+03	8.73461e-03	6.30500e+02
1683	6.31469e+02	1.68300e+03	8.69947e-03	6.31500e+02
1685	6.32472e+02	1.68500e+03	8.65825e-03	6.32500e+02
1687	6.33480e+02	1.68700e+03	8.61197e-03	6.33500e+02
1689	6.34473e+02	1.68900e+03	8.56883e-03	6.34500e+02
1691	6.35473e+02	1.69100e+03	8.54138e-03	6.35500e+02
1693	6.36510e+02	1.69300e+03	8.54060e-03	6.36500e+02
1695	6.37533e+02	1.69500e+03	8.54694e-03	6.37500e+02
1697	6.38550e+02	1.69700e+03	8.58528e-03	6.38500e+02
1699	6.39563e+02	1.69900e+03	8.62672e-03	6.39500e+02
1701	6.40577e+02	1.70100e+03	8.66452e-03	6.40500e+02
1703	6.41588e+02	1.70300e+03	8.67241e-03	6.41500e+02
1705	6.42608e+02	1.70500e+03	8.64504e-03	6.42500e+02
1707	6.43618e+02	1.70700e+03	8.62825e-03	6.43500e+02
1709	6.44625e+02	1.70900e+03	8.60114e-03	6.44500e+02
1711	6.45641e+02	1.71100e+03	8.57202e-03	6.45500e+02
1713	6.46632e+02	1.71300e+03	8.54523e-03	6.46500e+02
1715	6.47669e+02	1.71500e+03	8.52303e-03	6.47500e+02
1717	6.48673e+02	1.71700e+03	8.47404e-03	6.48500e+02
1719	6.49674e+02	1.71900e+03	8.37971e-03	6.49500e+02
1721	6.50661e+02	1.72100e+03	8.23164e-03	6.50500e+02
1723	6.51655e+02	1.72300e+03	8.12788e-03	6.51500e+02
1725	6.52650e+02	1.72500e+03	8.10578e-03	6.52500e+02
1727	6.53648e+02	1.72700e+03	8.15315e-03	6.53500e+02
1729	6.54634e+02	1.72900e+03	8.34601e-03	6.54500e+02
1731	6.55620e+02	1.73100e+03	8.51258e-03	6.55500e+02
1733	6.56610e+02	1.73300e+03	8.65587e-03	6.56500e+02
1735	6.57602e+02	1.73500e+03	8.72117e-03	6.57500e+02
1737	6.58594e+02	1.73700e+03	8.65781e-03	6.58500e+02
1739	6.59584e+02	1.73900e+03	8.60328e-03	6.59500e+02
1741	6.60566e+02	1.74100e+03	8.49786e-03	6.60500e+02
1743	6.61546e+02	1.74300e+03	8.41917e-03	6.61500e+02
1745	6.62556e+02	1.74500e+03	8.35508e-03	6.62500e+02
1747	6.63545e+02	1.74700e+03	8.28450e-03	6.63500e+02
1749	6.64545e+02	1.74900e+03	8.21698e-03	6.64500e+02
1751	6.65548e+02	1.75100e+03	8.16561e-03	6.65500e+02
1753	6.66552e+02	1.75300e+03	8.15720e-03	6.66500e+02
1755	6.67537e+02	1.75500e+03	8.17084e-03	6.67500e+02
1757	6.68526e+02	1.75700e+03	8.22457e-03	6.68500e+02
1759	6.69523e+02	1.75900e+03	8.24522e-03	6.69500e+02
1761	6.70513e+02	1.76100e+03	8.21121e-03	6.70500e+02
1763	6.71511e+02	1.76300e+03	8.16208e-03	6.71500e+02
1765	6.72493e+02	1.76500e+03	8.08662e-03	6.72500e+02
1767	6.73479e+02	1.76700e+03	8.05135e-03	6.73500e+02
1769	6.74457e+02	1.76900e+03	8.05225e-03	6.74500e+02
1771	6.75450e+02	1.77100e+03	8.03850e-03	6.75500e+02
1773	6.76434e+02	1.77300e+03	8.03512e-03	6.76500e+02
1775	6.77425e+02	1.77500e+03	8.02960e-03	6.77500e+02
1777	6.78409e+02	1.77700e+03	8.01149e-03	6.78500e+02
1779	6.79382e+02	1.77900e+03	7.97834e-03	6.79500e+02
1781	6.80365e+02	1.78100e+03	7.93296e-03	6.80500e+02
1783	6.81352e+02	1.78300e+03	7.89038e-03	6.81500e+02
1785	6.82344e+02	1.78500e+03	7.81146e-03	6.82500e+02
1787	6.83321e+02	1.78700e+03	7.69907e-03	6.83500e+02
1789	6.84323e+02	1.78900e+03	7.56649e-03	6.84500e+02
1791	6.85297e+02	1.79100e+03	7.51484e-03	6.85500e+02
1793	6.86281e+02	1.79300e+03	7.60598e-03	6.86500e+02
1795	6.86949e+02	1.79500e+03	7.73405e-03	6.87500e+02
1797	6.87417e+02	1.79700e+03	7.95705e-03	6.88500e+02
1799	6.88129e+02	1.79900e+03	8.09998e-03	6.89500e+02
1801	6.88826e+02	1.80100e+03	8.17410e-03	6.90500e+02
1803	6.89489e+02	1.80300e+03	8.20741e-03	6.91500e+02
1805	6.90092e+02	1.80500e+03	8.16583e-03	6.92500e+02
1807	6.90664e+02	1.80700e+03	8.12088e-03	6.93500e+02
1809	6.91190e+02	1.80900e+03	8.04844e-03	6.94500e+02
1811	6.91713e+02	1.81100e+03	7.99623e-03	6.95500e+02
1813	6.92180e+02	1.81300e+03	7.95284e-03	6.96500e+02
1815	6.92631e+02	1.81500e+03	7.91298e-03	6.97500e+02
1817	6.93045e+02	1.81700e+03	7.89599e-03	6.98500e+02
1819	6.93437e+02	1.81900e+03	7.88738e-03	6.99500e+02
1820	6.93634e+02	1.82000e+03	7.89417e-03	7.00000e+02