File: Experiments/TUBS/tga_nonisotherm/tga_dynamic_n2_dyn5_piece_1mg_r1.txt
index	ts	t	weight	tr
[#]	[°C]	[s]	[mg]	[°C]
1083	1.30258e+02	1.08300e+03	9.77411e-01	1.30250e+02
1091	1.30947e+02	1.09100e+03	9.77459e-01	1.30917e+02
1099	1.31597e+02	1.09900e+03	9.77407e-01	1.31583e+02
1107	1.32265e+02	1.10700e+03	9.77367e-01	1.32250e+02
1115	1.32927e+02	1.11500e+03	9.77291e-01	1.32917e+02
1123	1.33606e+02	1.12300e+03	9.77333e-01	1.33583e+02
1131	1.34272e+02	1.13100e+03	9.77330e-01	1.34250e+02
1139	1.34925e+02	1.13900e+03	9.77520e-01	1.34917e+02
1147	1.35596e+02	1.14700e+03	9.77452e-01	1.35583e+02
1155	1.36272e+02	1.15500e+03	9.77327e-01	1.36250e+02
1163	1.36933e+02	1.16300e+03	9.77252e-01	1.36917e+02
1171	1.37606e+02	1.17100e+03	9.77318e-01	1.37583e+02
1179	1.38273e+02	1.17900e+03	9.77412e-01	1.38250e+02
1187	1.38940e+02	1.18700e+03	9.77377e-01	1.38917e+02
1195	1.39596e+02	1.19500e+03	9.77352e-01	1.39583e+02
1203	1.40271e+02	1.20300e+03	9.77293e-01	1.40250e+02
1211	1.40936e+02	1.21100e+03	9.77341e-01	1.40917e+02
1219	1.41597e+02	1.21900e+03	9.77217e-01	1.41583e+02
1227	1.42270e+02	1.22700e+03	9.77135e-01	1.42250e+02
1235	1.42951e+02	1.23500e+03	9.76967e-01	1.42917e+02
1243	1.43620e+02	1.24300e+03	9.77167e-01	1.43583e+02
1251	1.44271e+02	1.25100e+03	9.77272e-01	1.44250e+02
1259	1.44959e+02	1.25900e+03	9.77350e-01	1.44917e+02
1267	1.45607e+02	1.26700e+03	9.77306e-01	1.45583e+02
1275	1.46277e+02	1.27500e+03	9.77266e-01	1.46250e+02
1283	1.46936e+02	1.28300e+03	9.77173e-01	1.46917e+02
1291	1.47624e+02	1.29100e+03	9.77131e-01	1.47583e+02
1299	1.48292e+02	1.29900e+03	9.77073e-01	1.48250e+02
1307	1.48963e+02	1.30700e+03	9.77123e-01	1.48917e+02
1315	1.49623e+02	1.31500e+03	9.77178e-01	1.49583e+02
1323	1.50297e+02	1.32300e+03	9.77063e-01	1.50250e+02
1331	1.50951e+02	1.33100e+03	9.77091e-01	1.50917e+02
1339	1.51628e+02	1.33900e+03	9.77172e-01	1.51583e+02
1347	1.52307e+02	1.34700e+03	9.77178e-01	1.52250e+02
1355	1.52981e+02	1.35500e+03	9.77150e-01	1.52917e+02
1363	1.53646e+02	1.36300e+03	9.77121e-01	1.53583e+02
1371	1.54327e+02	1.37100e+03	9.77059e-01	1.54250e+02
1379	1.54991e+02	1.37900e+03	9.77210e-01	1.54917e+02
1387	1.55657e+02	1.38700e+03	9.77094e-01	1.55583e+02
1395	1.56313e+02	1.39500e+03	9.77047e-01	1.56250e+02
1403	1.56987e+02	1.40300e+03	9.77053e-01	1.56917e+02
1411	1.57664e+02	1.41100e+03	9.77221e-01	1.57583e+02
1419	1.58338e+02	1.41900e+03	9.77191e-01	1.58250e+02
1427	1.59002e+02	1.42700e+03	9.77163e-01	1.58917e+02
1435	1.59662e+02	1.43500e+03	9.77138e-01	1.59583e+02
1443	1.60342e+02	1.44300e+03	9.77104e-01	1.60250e+02
1451	1.61007e+02	1.45100e+03	9.77059e-01	1.60917e+02
1459	1.61667e+02	1.45900e+03	9.76955e-01	1.61583e+02
1467	1.62344e+02	1.46700e+03	9.76828e-01	1.62250e+02
1475	1.63012e+02	1.47500e+03	9.76791e-01	1.62917e+02
1483	1.63692e+02	1.48300e+03	9.76768e-01	1.63583e+02
1491	1.64338e+02	1.49100e+03	9.76672e-01	1.64250e+02
1499	1.65008e+02	1.49900e+03	9.76468e-01	1.64917e+02
1507	1.65682e+02	1.50700e+03	9.76351e-01	1.65583e+02
1515	1.66342e+02	1.51500e+03	9.76153e-01	1.66250e+02
1523	1.67000e+02	1.52300e+03	9.76263e-01	1.66917e+02
1531	1.67691e+02	1.53100e+03	9.76232e-01	1.67583e+02
1539	1.68353e+02	1.53900e+03	9.76086e-01	1.68250e+02
1547	1.69022e+02	1.54700e+03	9.75916e-01	1.68917e+02
1555	1.69693e+02	1.55500e+03	9.75763e-01	1.69583e+02
1563	1.70348e+02	1.56300e+03	9.75638e-01	1.70250e+02
1571	1.71023e+02	1.57100e+03	9.75416e-01	1.70917e+02
1579	1.71682e+02	1.57900e+03	9.75323e-01	1.71583e+02
1587	1.72359e+02	1.58700e+03	9.75035e-01	1.72250e+02
1595	1.73022e+02	1.59500e+03	9.74854e-01	1.72917e+02
1603	1.73690e+02	1.60300e+03	9.74778e-01	1.73583e+02
1611	1.74365e+02	1.61100e+03	9.74445e-01	1.74250e+02
1619	1.75033e+02	1.61900e+03	9.74174e-01	1.74917e+02
1627	1.75691e+02	1.62700e+03	9.74089e-01	1.75583e+02
1635	1.76367e+02	1.63500e+03	9.73908e-01	1.76250e+02
1643	1.77038e+02	1.64300e+03	9.73780e-01	1.76917e+02
1651	1.77713e+02	1.65100e+03	9.73546e-01	1.77583e+02
1659	1.78371e+02	1.65900e+03	9.73331e-01	1.78250e+02
1667	1.79048e+02	1.66700e+03	9.72980e-01	1.78917e+02
1675	1.79712e+02	1.67500e+03	9.72639e-01	1.79583e+02
1683	1.80372e+02	1.68300e+03	9.72481e-01	1.80250e+02
1691	1.81058e+02	1.69100e+03	9.72287e-01	1.80917e+02
1699	1.81736e+02	1.69900e+03	9.71903e-01	1.81583e+02
1707	1.82394e+02	1.70700e+03	9.71698e-01	1.82250e+02
1715	1.83061e+02	1.71500e+03	9.71405e-01	1.82917e+02
1723	1.83725e+02	1.72300e+03	9.71087e-01	1.83583e+02
1731	1.84392e+02	1.73100e+03	9.70868e-01	1.84250e+02
1739	1.85056e+02	1.73900e+03	9.70503e-01	1.84917e+02
1747	1.85731e+02	1.74700e+03	9.70218e-01	1.85583e+02
1755	1.86398e+02	1.75500e+03	9.69955e-01	1.86250e+02
1763	1.87063e+02	1.76300e+03	9.69681e-01	1.86917e+02
1771	1.87723e+02	1.77100e+03	9.69318e-01	1.87583e+02
1779	1.88400e+02	1.77900e+03	9.68983e-01	1.88250e+02
1787	1.89057e+02	1.78700e+03	9.68652e-01	1.88917e+02
1795	1.89736e+02	1.79500e+03	9.68379e-01	1.89583e+02
1803	1.90402e+02	1.80300e+03	9.68207e-01	1.90250e+02
1811	1.91077e+02	1.81100e+03	9.67821e-01	1.90917e+02
1819	1.91738e+02	1.81900e+03	9.67544e-01	1.91583e+02
1827	1.92413e+02	1.82700e+03	9.67185e-01	1.92250e+02
1835	1.93077e+02	1.83500e+03	9.66903e-01	1.92917e+02
1843	1.93743e+02	1.84300e+03	9.66624e-01	1.93583e+02
1851	1.94420e+02	1.85100e+03	9.66281e-01	1.94250e+02
1859	1.95078e+02	1.85900e+03	9.65956e-01	1.94917e+02
1867	1.95757e+02	1.86700e+03	9.65656e-01	1.95583e+02
1875	1.96415e+02	1.87500e+03	9.65190e-01	1.96250e+02
1883	1.97092e+02	1.88300e+03	9.64813e-01	1.96917e+02
1891	1.97765e+02	1.89100e+03	9.64503e-01	1.97583e+02
1899	1.98424e+02	1.89900e+03	9.64163e-01	1.98250e+02
1907	1.99083e+02	1.90700e+03	9.63756e-01	1.98917e+02
1915	1.99755e+02	1.91500e+03	9.63469e-01	1.99583e+02
1923	2.00439e+02	1.92300e+03	9.63241e-01	2.00250e+02
1931	2.01087e+02	1.93100e+03	9.62955e-01	2.00917e+02
1939	2.01774e+02	1.93900e+03	9.62470e-01	2.01583e+02
1947	2.02427e+02	1.94700e+03	9.62095e-01	2.02250e+02
1955	2.03107e+02	1.95500e+03	9.61894e-01	2.02917e+02
1963	2.03766e+02	1.96300e+03	9.61585e-01	2.03583e+02
1971	2.04438e+02	1.97100e+03	9.61091e-01	2.04250e+02
1979	2.05103e+02	1.97900e+03	9.60760e-01	2.04917e+02
1987	2.05771e+02	1.98700e+03	9.60345e-01	2.05583e+02
1995	2.06432e+02	1.99500e+03	9.60120e-01	2.06250e+02
2003	2.07106e+02	2.00300e+03	9.59750e-01	2.06917e+02
2011	2.07772e+02	2.01100e+03	9.59375e-01	2.07583e+02
2019	2.08444e+02	2.01900e+03	9.59044e-01	2.08250e+02
2027	2.09113e+02	2.02700e+03	9.58883e-01	2.08917e+02
2035	2.09774e+02	2.03500e+03	9.58471e-01	2.09583e+02
2043	2.10448e+02	2.04300e+03	9.58120e-01	2.10250e+02
2051	2.11111e+02	2.05100e+03	9.57741e-01	2.10917e+02
2059	2.11788e+02	2.05900e+03	9.57387e-01	2.11583e+02
2067	2.12453e+02	2.06700e+03	9.57163e-01	2.12250e+02
2075	2.13112e+02	2.07500e+03	9.56882e-01	2.12917e+02
2083	2.13790e+02	2.08300e+03	9.56488e-01	2.13583e+02
2091	2.14465e+02	2.09100e+03	9.56057e-01	2.14250e+02
2099	2.15130e+02	2.09900e+03	9.55718e-01	2.14917e+02
2107	2.15800e+02	2.10700e+03	9.55353e-01	2.15583e+02
2115	2.16453e+02	2.11500e+03	9.55046e-01	2.16250e+02
2123	2.17124e+02	2.12300e+03	9.54699e-01	2.16917e+02
2131	2.17786e+02	2.13100e+03	9.54293e-01	2.17583e+02
2139	2.18459e+02	2.13900e+03	9.53859e-01	2.18250e+02
2147	2.19128e+02	2.14700e+03	9.53529e-01	2.18917e+02
2155	2.19808e+02	2.15500e+03	9.53274e-01	2.19583e+02
2163	2.20460e+02	2.16300e+03	9.52860e-01	2.20250e+02
2171	2.21123e+02	2.17100e+03	9.52405e-01	2.20917e+02
2179	2.21792e+02	2.17900e+03	9.51958e-01	2.21583e+02
2187	2.22464e+02	2.18700e+03	9.51704e-01	2.22250e+02
2195	2.23131e+02	2.19500e+03	9.51410e-01	2.22917e+02
2203	2.23802e+02	2.20300e+03	9.51039e-01	2.23583e+02
2211	2.24464e+02	2.21100e+03	9.50740e-01	2.24250e+02
2219	2.25133e+02	2.21900e+03	9.50333e-01	2.24917e+02
2227	2.25797e+02	2.22700e+03	9.50001e-01	2.25583e+02
2235	2.26463e+02	2.23500e+03	9.49572e-01	2.26250e+02
2243	2.27140e+02	2.24300e+03	9.49146e-01	2.26917e+02
2251	2.27795e+02	2.25100e+03	9.48855e-01	2.27583e+02
2259	2.28465e+02	2.25900e+03	9.48503e-01	2.28250e+02
2267	2.29135e+02	2.26700e+03	9.48179e-01	2.28917e+02
2275	2.29808e+02	2.27500e+03	9.47819e-01	2.29583e+02
2283	2.30471e+02	2.28300e+03	9.47490e-01	2.30250e+02
2291	2.31136e+02	2.29100e+03	9.47130e-01	2.30917e+02
2299	2.31804e+02	2.29900e+03	9.46707e-01	2.31583e+02
2307	2.32475e+02	2.30700e+03	9.46308e-01	2.32250e+02
2315	2.33138e+02	2.31500e+03	9.46001e-01	2.32917e+02
2323	2.33805e+02	2.32300e+03	9.45691e-01	2.33583e+02
2331	2.34472e+02	2.33100e+03	9.45412e-01	2.34250e+02
2339	2.35137e+02	2.33900e+03	9.45048e-01	2.34917e+02
2347	2.35805e+02	2.34700e+03	9.44631e-01	2.35583e+02
2355	2.36476e+02	2.35500e+03	9.44377e-01	2.36250e+02
2363	2.37141e+02	2.36300e+03	9.44081e-01	2.36917e+02
2371	2.37812e+02	2.37100e+03	9.43850e-01	2.37583e+02
2379	2.38475e+02	2.37900e+03	9.43537e-01	2.38250e+02
2387	2.39132e+02	2.38700e+03	9.43169e-01	2.38917e+02
2395	2.39808e+02	2.39500e+03	9.42897e-01	2.39583e+02
2403	2.40473e+02	2.40300e+03	9.42579e-01	2.40250e+02
2411	2.41134e+02	2.41100e+03	9.42295e-01	2.40917e+02
2419	2.41801e+02	2.41900e+03	9.42107e-01	2.41583e+02
2427	2.42474e+02	2.42700e+03	9.41831e-01	2.42250e+02
2435	2.43145e+02	2.43500e+03	9.41392e-01	2.42917e+02
2443	2.43799e+02	2.44300e+03	9.41140e-01	2.43583e+02
2451	2.44481e+02	2.45100e+03	9.40850e-01	2.44250e+02
2459	2.45145e+02	2.45900e+03	9.40583e-01	2.44917e+02
2467	2.45808e+02	2.46700e+03	9.40200e-01	2.45583e+02
2475	2.46478e+02	2.47500e+03	9.39853e-01	2.46250e+02
2483	2.47138e+02	2.48300e+03	9.39639e-01	2.46917e+02
2491	2.47821e+02	2.49100e+03	9.39289e-01	2.47583e+02
2499	2.48483e+02	2.49900e+03	9.39103e-01	2.48250e+02
2507	2.49145e+02	2.50700e+03	9.38858e-01	2.48917e+02
2515	2.49815e+02	2.51500e+03	9.38571e-01	2.49583e+02
2523	2.50494e+02	2.52300e+03	9.38271e-01	2.50250e+02
2531	2.51160e+02	2.53100e+03	9.37935e-01	2.50917e+02
2539	2.51820e+02	2.53900e+03	9.37730e-01	2.51583e+02
2547	2.52477e+02	2.54700e+03	9.37478e-01	2.52250e+02
2555	2.53154e+02	2.55500e+03	9.37246e-01	2.52917e+02
2563	2.53812e+02	2.56300e+03	9.36931e-01	2.53583e+02
2571	2.54487e+02	2.57100e+03	9.36638e-01	2.54250e+02
2579	2.55153e+02	2.57900e+03	9.36285e-01	2.54917e+02
2587	2.55818e+02	2.58700e+03	9.36127e-01	2.55583e+02
2595	2.56472e+02	2.59500e+03	9.35800e-01	2.56250e+02
2603	2.57148e+02	2.60300e+03	9.35594e-01	2.56917e+02
2611	2.57817e+02	2.61100e+03	9.35343e-01	2.57583e+02
2619	2.58477e+02	2.61900e+03	9.34976e-01	2.58250e+02
2627	2.59143e+02	2.62700e+03	9.34671e-01	2.58917e+02
2635	2.59808e+02	2.63500e+03	9.34508e-01	2.59583e+02
2643	2.60481e+02	2.64300e+03	9.34317e-01	2.60250e+02
2651	2.61148e+02	2.65100e+03	9.34034e-01	2.60917e+02
2659	2.61808e+02	2.65900e+03	9.33678e-01	2.61583e+02
2667	2.62472e+02	2.66700e+03	9.33420e-01	2.62250e+02
2675	2.63138e+02	2.67500e+03	9.33126e-01	2.62917e+02
2683	2.63816e+02	2.68300e+03	9.32931e-01	2.63583e+02
2691	2.64480e+02	2.69100e+03	9.32695e-01	2.64250e+02
2699	2.65147e+02	2.69900e+03	9.32390e-01	2.64917e+02
2707	2.65814e+02	2.70700e+03	9.32045e-01	2.65583e+02
2715	2.66477e+02	2.71500e+03	9.31727e-01	2.66250e+02
2723	2.67142e+02	2.72300e+03	9.31373e-01	2.66917e+02
2731	2.67815e+02	2.73100e+03	9.30873e-01	2.67583e+02
2739	2.68476e+02	2.73900e+03	9.30617e-01	2.68250e+02
2747	2.69143e+02	2.74700e+03	9.30389e-01	2.68917e+02
2755	2.69806e+02	2.75500e+03	9.30175e-01	2.69583e+02
2763	2.70469e+02	2.76300e+03	9.29830e-01	2.70250e+02
2771	2.71146e+02	2.77100e+03	9.29397e-01	2.70917e+02
2779	2.71806e+02	2.77900e+03	9.29066e-01	2.71583e+02
2787	2.72471e+02	2.78700e+03	9.28713e-01	2.72250e+02
2795	2.73134e+02	2.79500e+03	9.28381e-01	2.72917e+02
2803	2.73803e+02	2.80300e+03	9.28000e-01	2.73583e+02
2811	2.74468e+02	2.81100e+03	9.27595e-01	2.74250e+02
2819	2.75130e+02	2.81900e+03	9.27250e-01	2.74917e+02
2827	2.75805e+02	2.82700e+03	9.26849e-01	2.75583e+02
2835	2.76469e+02	2.83500e+03	9.26397e-01	2.76250e+02
2843	2.77133e+02	2.84300e+03	9.25939e-01	2.76917e+02
2851	2.77810e+02	2.85100e+03	9.25386e-01	2.77583e+02
2859	2.78476e+02	2.85900e+03	9.24795e-01	2.78250e+02
2867	2.79131e+02	2.86700e+03	9.24330e-01	2.78917e+02
2875	2.79796e+02	2.87500e+03	9.23756e-01	2.79583e+02
2883	2.80468e+02	2.88300e+03	9.23190e-01	2.80250e+02
2891	2.81141e+02	2.89100e+03	9.22534e-01	2.80917e+02
2899	2.81804e+02	2.89900e+03	9.22006e-01	2.81583e+02
2907	2.82461e+02	2.90700e+03	9.21404e-01	2.82250e+02
2915	2.83123e+02	2.91500e+03	9.20803e-01	2.82917e+02
2923	2.83791e+02	2.92300e+03	9.20307e-01	2.83583e+02
2931	2.84480e+02	2.93100e+03	9.19580e-01	2.84250e+02
2939	2.85132e+02	2.93900e+03	9.18808e-01	2.84917e+02
2947	2.85804e+02	2.94700e+03	9.18103e-01	2.85583e+02
2955	2.86465e+02	2.95500e+03	9.17486e-01	2.86250e+02
2963	2.87138e+02	2.96300e+03	9.16724e-01	2.86917e+02
2971	2.87809e+02	2.97100e+03	9.15884e-01	2.87583e+02
2979	2.88469e+02	2.97900e+03	9.15212e-01	2.88250e+02
2987	2.89118e+02	2.98700e+03	9.14424e-01	2.88917e+02
2995	2.89793e+02	2.99500e+03	9.13651e-01	2.89583e+02
3003	2.90468e+02	3.00300e+03	9.12906e-01	2.90250e+02
3011	2.91121e+02	3.01100e+03	9.12105e-01	2.90917e+02
3019	2.91787e+02	3.01900e+03	9.11237e-01	2.91583e+02
3027	2.92461e+02	3.02700e+03	9.10292e-01	2.92250e+02
3035	2.93120e+02	3.03500e+03	9.09454e-01	2.92917e+02
3043	2.93784e+02	3.04300e+03	9.08682e-01	2.93583e+02
3051	2.94457e+02	3.05100e+03	9.07874e-01	2.94250e+02
3059	2.95116e+02	3.05900e+03	9.07038e-01	2.94917e+02
3067	2.95786e+02	3.06700e+03	9.06161e-01	2.95583e+02
3075	2.96453e+02	3.07500e+03	9.05393e-01	2.96250e+02
3083	2.97110e+02	3.08300e+03	9.04557e-01	2.96917e+02
3091	2.97775e+02	3.09100e+03	9.03581e-01	2.97583e+02
3099	2.98445e+02	3.09900e+03	9.02702e-01	2.98250e+02
3107	2.99111e+02	3.10700e+03	9.01843e-01	2.98917e+02
3115	2.99776e+02	3.11500e+03	9.01026e-01	2.99583e+02
3123	3.00438e+02	3.12300e+03	9.00095e-01	3.00250e+02
3131	3.01107e+02	3.13100e+03	8.99191e-01	3.00917e+02
3139	3.01762e+02	3.13900e+03	8.98310e-01	3.01583e+02
3147	3.02433e+02	3.14700e+03	8.97449e-01	3.02250e+02
3155	3.03099e+02	3.15500e+03	8.96568e-01	3.02917e+02
3163	3.03758e+02	3.16300e+03	8.95682e-01	3.03583e+02
3171	3.04432e+02	3.17100e+03	8.94664e-01	3.04250e+02
3179	3.05096e+02	3.17900e+03	8.93724e-01	3.04917e+02
3187	3.05761e+02	3.18700e+03	8.92696e-01	3.05583e+02
3195	3.06422e+02	3.19500e+03	8.91784e-01	3.06250e+02
3203	3.07083e+02	3.20300e+03	8.90742e-01	3.06917e+02
3211	3.07753e+02	3.21100e+03	8.89733e-01	3.07583e+02
3219	3.08421e+02	3.21900e+03	8.88627e-01	3.08250e+02
3227	3.09084e+02	3.22700e+03	8.87561e-01	3.08917e+02
3235	3.09754e+02	3.23500e+03	8.86427e-01	3.09583e+02
3243	3.10411e+02	3.24300e+03	8.85253e-01	3.10250e+02
3251	3.11078e+02	3.25100e+03	8.84116e-01	3.10917e+02
3259	3.11738e+02	3.25900e+03	8.82909e-01	3.11583e+02
3267	3.12401e+02	3.26700e+03	8.81662e-01	3.12250e+02
3275	3.13078e+02	3.27500e+03	8.80331e-01	3.12917e+02
3283	3.13728e+02	3.28300e+03	8.78930e-01	3.13583e+02
3291	3.14397e+02	3.29100e+03	8.77496e-01	3.14250e+02
3299	3.15069e+02	3.29900e+03	8.76072e-01	3.14917e+02
3307	3.15725e+02	3.30700e+03	8.74640e-01	3.15583e+02
3315	3.16392e+02	3.31500e+03	8.72962e-01	3.16250e+02
3323	3.17060e+02	3.32300e+03	8.71248e-01	3.16917e+02
3331	3.17730e+02	3.33100e+03	8.69377e-01	3.17583e+02
3339	3.18391e+02	3.33900e+03	8.67510e-01	3.18250e+02
3347	3.19049e+02	3.34700e+03	8.65641e-01	3.18917e+02
3355	3.19713e+02	3.35500e+03	8.63758e-01	3.19583e+02
3363	3.20379e+02	3.36300e+03	8.61741e-01	3.20250e+02
3371	3.21039e+02	3.37100e+03	8.59504e-01	3.20917e+02
3379	3.21715e+02	3.37900e+03	8.57165e-01	3.21583e+02
3387	3.22369e+02	3.38700e+03	8.54797e-01	3.22250e+02
3395	3.23048e+02	3.39500e+03	8.52377e-01	3.22917e+02
3403	3.23703e+02	3.40300e+03	8.49786e-01	3.23583e+02
3411	3.24371e+02	3.41100e+03	8.47017e-01	3.24250e+02
3419	3.25031e+02	3.41900e+03	8.44138e-01	3.24917e+02
3427	3.25702e+02	3.42700e+03	8.41168e-01	3.25583e+02
3435	3.26362e+02	3.43500e+03	8.37964e-01	3.26250e+02
3443	3.27028e+02	3.44300e+03	8.34631e-01	3.26917e+02
3451	3.27689e+02	3.45100e+03	8.31169e-01	3.27583e+02
3459	3.28346e+02	3.45900e+03	8.27540e-01	3.28250e+02
3467	3.29015e+02	3.46700e+03	8.23776e-01	3.28917e+02
3475	3.29682e+02	3.47500e+03	8.19811e-01	3.29583e+02
3483	3.30345e+02	3.48300e+03	8.15532e-01	3.30250e+02
3491	3.31014e+02	3.49100e+03	8.11262e-01	3.30917e+02
3499	3.31678e+02	3.49900e+03	8.06864e-01	3.31583e+02
3507	3.32340e+02	3.50700e+03	8.02085e-01	3.32250e+02
3515	3.33004e+02	3.51500e+03	7.96921e-01	3.32917e+02
3523	3.33669e+02	3.52300e+03	7.91785e-01	3.33583e+02
3531	3.34326e+02	3.53100e+03	7.86484e-01	3.34250e+02
3539	3.35002e+02	3.53900e+03	7.80967e-01	3.34917e+02
3547	3.35662e+02	3.54700e+03	7.75224e-01	3.35583e+02
3555	3.36328e+02	3.55500e+03	7.69140e-01	3.36250e+02
3563	3.36993e+02	3.56300e+03	7.62743e-01	3.36917e+02
3571	3.37646e+02	3.57100e+03	7.56254e-01	3.37583e+02
3579	3.38317e+02	3.57900e+03	7.49418e-01	3.38250e+02
3587	3.38975e+02	3.58700e+03	7.42290e-01	3.38917e+02
3595	3.39637e+02	3.59500e+03	7.34975e-01	3.39583e+02
3603	3.40301e+02	3.60300e+03	7.27318e-01	3.40250e+02
3611	3.40964e+02	3.61100e+03	7.19399e-01	3.40917e+02
3619	3.41621e+02	3.61900e+03	7.11243e-01	3.41583e+02
3627	3.42288e+02	3.62700e+03	7.02744e-01	3.42250e+02
3635	3.42957e+02	3.63500e+03	6.93977e-01	3.42917e+02
3643	3.43628e+02	3.64300e+03	6.85035e-01	3.43583e+02
3651	3.44285e+02	3.65100e+03	6.75804e-01	3.44250e+02
3659	3.44950e+02	3.65900e+03	6.66237e-01	3.44917e+02
3667	3.45609e+02	3.66700e+03	6.56378e-01	3.45583e+02
3675	3.46274e+02	3.67500e+03	6.46136e-01	3.46250e+02
3683	3.46929e+02	3.68300e+03	6.35256e-01	3.46917e+02
3691	3.47590e+02	3.69100e+03	6.24090e-01	3.47583e+02
3699	3.48266e+02	3.69900e+03	6.12793e-01	3.48250e+02
3707	3.48913e+02	3.70700e+03	6.01321e-01	3.48917e+02
3715	3.49582e+02	3.71500e+03	5.89736e-01	3.49583e+02
3723	3.50246e+02	3.72300e+03	5.77928e-01	3.50250e+02
3731	3.50912e+02	3.73100e+03	5.65953e-01	3.50917e+02
3739	3.51582e+02	3.73900e+03	5.53857e-01	3.51583e+02
3747	3.52238e+02	3.74700e+03	5.41546e-01	3.52250e+02
3755	3.52907e+02	3.75500e+03	5.28976e-01	3.52917e+02
3763	3.53572e+02	3.76300e+03	5.16400e-01	3.53583e+02
3771	3.54239e+02	3.77100e+03	5.03785e-01	3.54250e+02
3779	3.54897e+02	3.77900e+03	4.90949e-01	3.54917e+02
3787	3.55561e+02	3.78700e+03	4.78008e-01	3.55583e+02
3795	3.56226e+02	3.79500e+03	4.64946e-01	3.56250e+02
3803	3.56886e+02	3.80300e+03	4.52088e-01	3.56917e+02
3811	3.57552e+02	3.81100e+03	4.39632e-01	3.57583e+02
3819	3.58215e+02	3.81900e+03	4.27029e-01	3.58250e+02
3827	3.58888e+02	3.82700e+03	4.14177e-01	3.58917e+02
3835	3.59547e+02	3.83500e+03	4.01616e-01	3.59583e+02
3843	3.60214e+02	3.84300e+03	3.88904e-01	3.60250e+02
3851	3.60873e+02	3.85100e+03	3.75811e-01	3.60917e+02
3859	3.61544e+02	3.85900e+03	3.62349e-01	3.61583e+02
3867	3.62194e+02	3.86700e+03	3.48848e-01	3.62250e+02
3875	3.62867e+02	3.87500e+03	3.35328e-01	3.62917e+02
3883	3.63531e+02	3.88300e+03	3.22090e-01	3.63583e+02
3891	3.64212e+02	3.89100e+03	3.09209e-01	3.64250e+02
3899	3.64870e+02	3.89900e+03	2.96466e-01	3.64917e+02
3907	3.65522e+02	3.90700e+03	2.83716e-01	3.65583e+02
3915	3.66191e+02	3.91500e+03	2.71106e-01	3.66250e+02
3923	3.66849e+02	3.92300e+03	2.58809e-01	3.66917e+02
3931	3.67519e+02	3.93100e+03	2.46721e-01	3.67583e+02
3939	3.68184e+02	3.93900e+03	2.34829e-01	3.68250e+02
3947	3.68848e+02	3.94700e+03	2.23285e-01	3.68917e+02
3955	3.69517e+02	3.95500e+03	2.12020e-01	3.69583e+02
3963	3.70184e+02	3.96300e+03	2.01242e-01	3.70250e+02
3971	3.70861e+02	3.97100e+03	1.90736e-01	3.70917e+02
3979	3.71526e+02	3.97900e+03	1.80278e-01	3.71583e+02
3987	3.72190e+02	3.98700e+03	1.70203e-01	3.72250e+02
3995	3.72851e+02	3.99500e+03	1.60746e-01	3.72917e+02
4003	3.73522e+02	4.00300e+03	1.51586e-01	3.73583e+02
4011	3.74186e+02	4.01100e+03	1.42723e-01	3.74250e+02
4019	3.74858e+02	4.01900e+03	1.34081e-01	3.74917e+02
4027	3.75532e+02	4.02700e+03	1.25760e-01	3.75583e+02
4035	3.76203e+02	4.03500e+03	1.18042e-01	3.76250e+02
4043	3.76859e+02	4.04300e+03	1.10617e-01	3.76917e+02
4051	3.77519e+02	4.05100e+03	1.03677e-01	3.77583e+02
4059	3.78188e+02	4.05900e+03	9.70064e-02	3.78250e+02
4067	3.78859e+02	4.06700e+03	9.05865e-02	3.78917e+02
4075	3.79521e+02	4.07500e+03	8.46689e-02	3.79583e+02
4083	3.80202e+02	4.08300e+03	7.90523e-02	3.80250e+02
4091	3.80859e+02	4.09100e+03	7.37072e-02	3.80917e+02
4099	3.81516e+02	4.09900e+03	6.85319e-02	3.81583e+02
4107	3.82186e+02	4.10700e+03	6.37404e-02	3.82250e+02
4115	3.82855e+02	4.11500e+03	5.92727e-02	3.82917e+02
4123	3.83516e+02	4.12300e+03	5.50618e-02	3.83583e+02
4131	3.84178e+02	4.13100e+03	5.09775e-02	3.84250e+02
4139	3.84840e+02	4.13900e+03	4.71700e-02	3.84917e+02
4147	3.85511e+02	4.14700e+03	4.37542e-02	3.85583e+02
4155	3.86176e+02	4.15500e+03	4.04995e-02	3.86250e+02
4163	3.86842e+02	4.16300e+03	3.75026e-02	3.86917e+02
4171	3.87496e+02	4.17100e+03	3.47347e-02	3.87583e+02
4179	3.88175e+02	4.17900e+03	3.21804e-02	3.88250e+02
4187	3.88840e+02	4.18700e+03	2.97952e-02	3.88917e+02
4195	3.89502e+02	4.19500e+03	2.75427e-02	3.89583e+02
4203	3.90170e+02	4.20300e+03	2.54412e-02	3.90250e+02
4211	3.90838e+02	4.21100e+03	2.33260e-02	3.90917e+02
4219	3.91495e+02	4.21900e+03	2.13732e-02	3.91583e+02
4227	3.92163e+02	4.22700e+03	1.95311e-02	3.92250e+02
4235	3.92832e+02	4.23500e+03	1.80735e-02	3.92917e+02
4243	3.93500e+02	4.24300e+03	1.67755e-02	3.93583e+02
4251	3.94167e+02	4.25100e+03	1.54754e-02	3.94250e+02
4259	3.94830e+02	4.25900e+03	1.41944e-02	3.94917e+02
4267	3.95492e+02	4.26700e+03	1.29949e-02	3.95583e+02
4275	3.96151e+02	4.27500e+03	1.18513e-02	3.96250e+02
4283	3.96825e+02	4.28300e+03	1.08446e-02	3.96917e+02
4291	3.97488e+02	4.29100e+03	9.87286e-03	3.97583e+02
4299	3.98151e+02	4.29900e+03	8.98096e-03	3.98250e+02
4307	3.98814e+02	4.30700e+03	8.14752e-03	3.98917e+02
4315	3.99476e+02	4.31500e+03	7.36543e-03	3.99583e+02
4323	4.00138e+02	4.32300e+03	6.63941e-03	4.00250e+02
4331	4.00809e+02	4.33100e+03	5.87035e-03	4.00917e+02
4339	4.01474e+02	4.33900e+03	4.96284e-03	4.01583e+02
4347	4.02131e+02	4.34700e+03	4.41772e-03	4.02250e+02
4355	4.02797e+02	4.35500e+03	3.91156e-03	4.02917e+02
4363	4.03461e+02	4.36300e+03	3.39806e-03	4.03583e+02
4371	4.04115e+02	4.37100e+03	2.80701e-03	4.04250e+02
4379	4.04782e+02	4.37900e+03	2.30173e-03	4.04917e+02
4387	4.05446e+02	4.38700e+03	1.92716e-03	4.05583e+02
4395	4.06121e+02	4.39500e+03	1.53913e-03	4.06250e+02
4403	4.06781e+02	4.40300e+03	1.06550e-03	4.06917e+02
4411	4.07449e+02	4.41100e+03	6.05749e-04	4.07583e+02
4419	4.08109e+02	4.41900e+03	2.79205e-04	4.08250e+02
4427	4.08773e+02	4.42700e+03	2.35291e-05	4.08917e+02
4435	4.09432e+02	4.43500e+03	-3.10628e-04	4.09583e+02
4443	4.10091e+02	4.44300e+03	-6.05889e-04	4.10250e+02
4451	4.10771e+02	4.45100e+03	-9.99546e-04	4.10917e+02
4459	4.11436e+02	4.45900e+03	-1.40100e-03	4.11583e+02
4467	4.12096e+02	4.46700e+03	-1.49663e-03	4.12250e+02
4475	4.12757e+02	4.47500e+03	-1.68549e-03	4.12917e+02
4483	4.13418e+02	4.48300e+03	-1.95218e-03	4.13583e+02
4491	4.14090e+02	4.49100e+03	-2.24381e-03	4.14250e+02
4499	4.14745e+02	4.49900e+03	-2.44439e-03	4.14917e+02
4507	4.15411e+02	4.50700e+03	-2.55745e-03	4.15583e+02
4515	4.16072e+02	4.51500e+03	-2.69161e-03	4.16250e+02
4523	4.16741e+02	4.52300e+03	-2.88099e-03	4.16917e+02
4531	4.17413e+02	4.53100e+03	-2.95996e-03	4.17583e+02
4539	4.18067e+02	4.53900e+03	-3.19688e-03	4.18250e+02
4547	4.18738e+02	4.54700e+03	-3.30980e-03	4.18917e+02
4555	4.19388e+02	4.55500e+03	-3.49094e-03	4.19583e+02
4563	4.20058e+02	4.56300e+03	-3.61595e-03	4.20250e+02
4571	4.20719e+02	4.57100e+03	-3.76119e-03	4.20917e+02
4579	4.21385e+02	4.57900e+03	-3.80789e-03	4.21583e+02
4587	4.22044e+02	4.58700e+03	-3.95439e-03	4.22250e+02
4595	4.22711e+02	4.59500e+03	-4.05825e-03	4.22917e+02
4603	4.23367e+02	4.60300e+03	-3.97502e-03	4.23583e+02
4611	4.24031e+02	4.61100e+03	-4.09910e-03	4.24250e+02
4619	4.24688e+02	4.61900e+03	-4.20399e-03	4.24917e+02
4627	4.25353e+02	4.62700e+03	-4.19389e-03	4.25583e+02
4635	4.26016e+02	4.63500e+03	-4.20206e-03	4.26250e+02
4643	4.26692e+02	4.64300e+03	-4.22346e-03	4.26917e+02
4651	4.27353e+02	4.65100e+03	-4.73107e-03	4.27583e+02
4659	4.28007e+02	4.65900e+03	-4.57716e-03	4.28250e+02
4667	4.28677e+02	4.66700e+03	-3.63830e-03	4.28917e+02
4675	4.29345e+02	4.67500e+03	-3.93304e-03	4.29583e+02
4683	4.30007e+02	4.68300e+03	-4.20938e-03	4.30250e+02
4691	4.30678e+02	4.69100e+03	-4.17758e-03	4.30917e+02
4699	4.31340e+02	4.69900e+03	-4.43703e-03	4.31583e+02
4707	4.31990e+02	4.70700e+03	-4.30538e-03	4.32250e+02
4715	4.32657e+02	4.71500e+03	-4.45550e-03	4.32917e+02
4723	4.33330e+02	4.72300e+03	-4.97439e-03	4.33583e+02
4731	4.33992e+02	4.73100e+03	-4.50050e-03	4.34250e+02
4739	4.34652e+02	4.73900e+03	-3.99255e-03	4.34917e+02
4747	4.35322e+02	4.74700e+03	-4.40286e-03	4.35583e+02
4755	4.35983e+02	4.75500e+03	-4.67785e-03	4.36250e+02
4763	4.36644e+02	4.76300e+03	-4.63817e-03	4.36917e+02
4771	4.37309e+02	4.77100e+03	-4.57842e-03	4.37583e+02
4779	4.37965e+02	4.77900e+03	-4.45736e-03	4.38250e+02
4787	4.38628e+02	4.78700e+03	-4.57546e-03	4.38917e+02
4795	4.39283e+02	4.79500e+03	-4.60043e-03	4.39583e+02
4803	4.39945e+02	4.80300e+03	-4.64718e-03	4.40250e+02
4811	4.40611e+02	4.81100e+03	-4.69524e-03	4.40917e+02
4819	4.41275e+02	4.81900e+03	-5.19084e-03	4.41583e+02
4827	4.41939e+02	4.82700e+03	-5.26725e-03	4.42250e+02
4835	4.42604e+02	4.83500e+03	-4.92340e-03	4.42917e+02
4843	4.43267e+02	4.84300e+03	-4.53351e-03	4.43583e+02
4851	4.43931e+02	4.85100e+03	-4.37401e-03	4.44250e+02
4859	4.44586e+02	4.85900e+03	-4.68848e-03	4.44917e+02
4867	4.45251e+02	4.86700e+03	-4.71512e-03	4.45583e+02
4875	4.45909e+02	4.87500e+03	-4.76529e-03	4.46250e+02
4883	4.46575e+02	4.88300e+03	-4.77704e-03	4.46917e+02
4891	4.47234e+02	4.89100e+03	-4.76520e-03	4.47583e+02
4899	4.47911e+02	4.89900e+03	-4.77277e-03	4.48250e+02
4907	4.48568e+02	4.90700e+03	-4.91630e-03	4.48917e+02
4915	4.49228e+02	4.91500e+03	-4.83112e-03	4.49583e+02
4923	4.49899e+02	4.92300e+03	-4.82891e-03	4.50250e+02
4931	4.50562e+02	4.93100e+03	-4.88577e-03	4.50917e+02
4939	4.51218e+02	4.93900e+03	-4.86250e-03	4.51583e+02
4947	4.51882e+02	4.94700e+03	-4.86902e-03	4.52250e+02
4955	4.52543e+02	4.95500e+03	-4.98127e-03	4.52917e+02
4963	4.53198e+02	4.96300e+03	-5.01715e-03	4.53583e+02
4971	4.53861e+02	4.97100e+03	-4.77459e-03	4.54250e+02
4979	4.54527e+02	4.97900e+03	-4.89753e-03	4.54917e+02
4987	4.55194e+02	4.98700e+03	-5.04967e-03	4.55583e+02
4995	4.55851e+02	4.99500e+03	-5.00836e-03	4.56250e+02
5003	4.56514e+02	5.00300e+03	-5.09617e-03	4.56917e+02
5011	4.57168e+02	5.01100e+03	-5.03343e-03	4.57583e+02
5019	4.57833e+02	5.01900e+03	-5.04454e-03	4.58250e+02
5027	4.58494e+02	5.02700e+03	-5.04507e-03	4.58917e+02
5035	4.59150e+02	5.03500e+03	-5.04434e-03	4.59583e+02
5043	4.59811e+02	5.04300e+03	-4.92173e-03	4.60250e+02
5051	4.60476e+02	5.05100e+03	-4.91204e-03	4.60917e+02
5059	4.61137e+02	5.05900e+03	-4.93543e-03	4.61583e+02
5067	4.61789e+02	5.06700e+03	-4.97062e-03	4.62250e+02
5075	4.62459e+02	5.07500e+03	-5.06867e-03	4.62917e+02
5083	4.63122e+02	5.08300e+03	-5.12953e-03	4.63583e+02
5091	4.63775e+02	5.09100e+03	-5.19265e-03	4.64250e+02
5099	4.64440e+02	5.09900e+03	-5.20782e-03	4.64917e+02
5107	4.65100e+02	5.10700e+03	-5.06034e-03	4.65583e+02
5115	4.65758e+02	5.11500e+03	-4.97389e-03	4.66250e+02
5123	4.66428e+02	5.12300e+03	-5.07991e-03	4.66917e+02
5131	4.67088e+02	5.13100e+03	-5.02534e-03	4.67583e+02
5139	4.67742e+02	5.13900e+03	-4.97947e-03	4.68250e+02
5147	4.68413e+02	5.14700e+03	-5.03229e-03	4.68917e+02
5155	4.69074e+02	5.15500e+03	-5.06008e-03	4.69583e+02
5163	4.69725e+02	5.16300e+03	-5.16645e-03	4.70250e+02
5171	4.70392e+02	5.17100e+03	-5.23465e-03	4.70917e+02
5179	4.71062e+02	5.17900e+03	-5.14912e-03	4.71583e+02
5187	4.71721e+02	5.18700e+03	-5.26751e-03	4.72250e+02
5195	4.72373e+02	5.19500e+03	-5.21024e-03	4.72917e+02
5203	4.73032e+02	5.20300e+03	-5.03830e-03	4.73583e+02
5211	4.73698e+02	5.21100e+03	-5.08212e-03	4.74250e+02
5219	4.74359e+02	5.21900e+03	-5.13983e-03	4.74917e+02
5227	4.75023e+02	5.22700e+03	-5.18319e-03	4.75583e+02
5235	4.75694e+02	5.23500e+03	-5.10811e-03	4.76250e+02
5243	4.76341e+02	5.24300e+03	-5.01360e-03	4.76917e+02
5251	4.76996e+02	5.25100e+03	-5.06283e-03	4.77583e+02
5259	4.77670e+02	5.25900e+03	-5.16663e-03	4.78250e+02
5267	4.78338e+02	5.26700e+03	-5.21841e-03	4.78917e+02
5275	4.78994e+02	5.27500e+03	-5.25535e-03	4.79583e+02
5283	4.79657e+02	5.28300e+03	-5.28420e-03	4.80250e+02
5291	4.80317e+02	5.29100e+03	-5.26120e-03	4.80917e+02
5299	4.80983e+02	5.29900e+03	-5.27177e-03	4.81583e+02
5307	4.81638e+02	5.30700e+03	-5.19744e-03	4.82250e+02
5315	4.82295e+02	5.31500e+03	-5.10410e-03	4.82917e+02
5323	4.82955e+02	5.32300e+03	-5.04495e-03	4.83583e+02
5331	4.83622e+02	5.33100e+03	-5.14432e-03	4.84250e+02
5339	4.84283e+02	5.33900e+03	-5.06033e-03	4.84917e+02
5347	4.84936e+02	5.34700e+03	-5.10000e-03	4.85583e+02
5355	4.85610e+02	5.35500e+03	-5.04903e-03	4.86250e+02
5363	4.86267e+02	5.36300e+03	-5.18502e-03	4.86917e+02
5371	4.86935e+02	5.37100e+03	-5.24345e-03	4.87583e+02
5379	4.87591e+02	5.37900e+03	-5.14838e-03	4.88250e+02
5387	4.88257e+02	5.38700e+03	-5.25740e-03	4.88917e+02
5395	4.88924e+02	5.39500e+03	-5.15109e-03	4.89583e+02
5403	4.89588e+02	5.40300e+03	-5.12496e-03	4.90250e+02
5411	4.90247e+02	5.41100e+03	-5.10875e-03	4.90917e+02
5419	4.90917e+02	5.41900e+03	-5.24087e-03	4.91583e+02
5427	4.91583e+02	5.42700e+03	-5.17105e-03	4.92250e+02
5435	4.92236e+02	5.43500e+03	-5.16174e-03	4.92917e+02
5443	4.92910e+02	5.44300e+03	-5.09724e-03	4.93583e+02
5451	4.93554e+02	5.45100e+03	-5.04327e-03	4.94250e+02
5459	4.94225e+02	5.45900e+03	-5.13049e-03	4.94917e+02
5467	4.94889e+02	5.46700e+03	-5.24253e-03	4.95583e+02
5475	4.95554e+02	5.47500e+03	-5.14783e-03	4.96250e+02
5483	4.96216e+02	5.48300e+03	-5.21021e-03	4.96917e+02
5491	4.96877e+02	5.49100e+03	-5.23243e-03	4.97583e+02
5499	4.97532e+02	5.49900e+03	-5.11549e-03	4.98250e+02
5507	4.98205e+02	5.50700e+03	-5.10766e-03	4.98917e+02
5515	4.98864e+02	5.51500e+03	-5.14659e-03	4.99583e+02
5523	4.99538e+02	5.52300e+03	-5.23122e-03	5.00250e+02
5531	5.00192e+02	5.53100e+03	-5.13691e-03	5.00917e+02
5539	5.00863e+02	5.53900e+03	-5.10380e-03	5.01583e+02
5547	5.01523e+02	5.54700e+03	-5.21540e-03	5.02250e+02
5555	5.02186e+02	5.55500e+03	-5.17421e-03	5.02917e+02
5563	5.02855e+02	5.56300e+03	-5.26342e-03	5.03583e+02
5571	5.03503e+02	5.57100e+03	-5.17148e-03	5.04250e+02
5579	5.04172e+02	5.57900e+03	-5.16021e-03	5.04917e+02
5587	5.04841e+02	5.58700e+03	-5.20382e-03	5.05583e+02
5595	5.05489e+02	5.59500e+03	-5.30978e-03	5.06250e+02
5603	5.06157e+02	5.60300e+03	-5.41829e-03	5.06917e+02
5611	5.06821e+02	5.61100e+03	-5.34399e-03	5.07583e+02
5619	5.07491e+02	5.61900e+03	-5.24828e-03	5.08250e+02
5627	5.08154e+02	5.62700e+03	-5.18952e-03	5.08917e+02
5635	5.08816e+02	5.63500e+03	-5.21850e-03	5.09583e+02
5643	5.09491e+02	5.64300e+03	-5.21541e-03	5.10250e+02
5651	5.10158e+02	5.65100e+03	-5.23443e-03	5.10917e+02
5659	5.10818e+02	5.65900e+03	-5.22208e-03	5.11583e+02
5667	5.11478e+02	5.66700e+03	-5.15199e-03	5.12250e+02
5675	5.12157e+02	5.67500e+03	-5.12794e-03	5.12917e+02
5683	5.12812e+02	5.68300e+03	-5.12250e-03	5.13583e+02
5691	5.13476e+02	5.69100e+03	-5.09028e-03	5.14250e+02
5699	5.14132e+02	5.69900e+03	-5.10622e-03	5.14917e+02
5707	5.14803e+02	5.70700e+03	-5.09350e-03	5.15583e+02
5715	5.15461e+02	5.71500e+03	-5.07126e-03	5.16250e+02
5723	5.16139e+02	5.72300e+03	-5.12547e-03	5.16917e+02
5731	5.16795e+02	5.73100e+03	-5.08067e-03	5.17583e+02
5739	5.17452e+02	5.73900e+03	-5.05552e-03	5.18250e+02
5747	5.18129e+02	5.74700e+03	-5.14079e-03	5.18917e+02
5755	5.18787e+02	5.75500e+03	-5.11136e-03	5.19583e+02
5763	5.19447e+02	5.76300e+03	-5.05993e-03	5.20250e+02
5771	5.20114e+02	5.77100e+03	-5.05947e-03	5.20917e+02
5779	5.20780e+02	5.77900e+03	-5.07710e-03	5.21583e+02
5787	5.21445e+02	5.78700e+03	-5.07020e-03	5.22250e+02
5795	5.22108e+02	5.79500e+03	-5.19028e-03	5.22917e+02
5803	5.22782e+02	5.80300e+03	-5.19285e-03	5.23583e+02
5811	5.23442e+02	5.81100e+03	-5.09655e-03	5.24250e+02
5819	5.24114e+02	5.81900e+03	-5.13519e-03	5.24917e+02
5827	5.24772e+02	5.82700e+03	-5.08162e-03	5.25583e+02
5835	5.25448e+02	5.83500e+03	-5.29181e-03	5.26250e+02
5843	5.26103e+02	5.84300e+03	-5.20852e-03	5.26917e+02
5851	5.26772e+02	5.85100e+03	-5.16114e-03	5.27583e+02
5859	5.27432e+02	5.85900e+03	-5.15698e-03	5.28250e+02
5867	5.28110e+02	5.86700e+03	-5.13819e-03	5.28917e+02
5875	5.28770e+02	5.87500e+03	-5.14956e-03	5.29583e+02
5883	5.29434e+02	5.88300e+03	-5.19086e-03	5.30250e+02
5891	5.30103e+02	5.89100e+03	-5.20748e-03	5.30917e+02
5899	5.30759e+02	5.89900e+03	-5.16852e-03	5.31583e+02
5907	5.31428e+02	5.90700e+03	-5.04755e-03	5.32250e+02
5915	5.32089e+02	5.91500e+03	-5.13051e-03	5.32917e+02
5923	5.32758e+02	5.92300e+03	-5.26485e-03	5.33583e+02
5931	5.33419e+02	5.93100e+03	-5.23105e-03	5.34250e+02
5939	5.34090e+02	5.93900e+03	-5.23317e-03	5.34917e+02
5947	5.34755e+02	5.94700e+03	-5.25105e-03	5.35583e+02
5955	5.35417e+02	5.95500e+03	-5.29362e-03	5.36250e+02
5963	5.36083e+02	5.96300e+03	-5.19324e-03	5.36917e+02
5971	5.36750e+02	5.97100e+03	-5.12899e-03	5.37583e+02
5979	5.37412e+02	5.97900e+03	-5.13784e-03	5.38250e+02
5987	5.38077e+02	5.98700e+03	-5.23269e-03	5.38917e+02
5995	5.38743e+02	5.99500e+03	-5.25721e-03	5.39583e+02
6003	5.39412e+02	6.00300e+03	-5.23652e-03	5.40250e+02
6011	5.40071e+02	6.01100e+03	-5.17634e-03	5.40917e+02
6019	5.40737e+02	6.01900e+03	-5.17929e-03	5.41583e+02
6027	5.41413e+02	6.02700e+03	-5.19864e-03	5.42250e+02
6035	5.42069e+02	6.03500e+03	-5.08563e-03	5.42917e+02
6043	5.42740e+02	6.04300e+03	-5.17478e-03	5.43583e+02
6051	5.43408e+02	6.05100e+03	-5.18891e-03	5.44250e+02
6059	5.44071e+02	6.05900e+03	-5.17543e-03	5.44917e+02
6067	5.44741e+02	6.06700e+03	-5.15290e-03	5.45583e+02
6075	5.45401e+02	6.07500e+03	-5.15346e-03	5.46250e+02
6083	5.46070e+02	6.08300e+03	-5.10315e-03	5.46917e+02
6091	5.46735e+02	6.09100e+03	-5.04991e-03	5.47583e+02
6099	5.47401e+02	6.09900e+03	-5.16825e-03	5.48250e+02
6107	5.48059e+02	6.10700e+03	-5.15235e-03	5.48917e+02
6115	5.48735e+02	6.11500e+03	-5.10646e-03	5.49583e+02
6123	5.49402e+02	6.12300e+03	-5.06551e-03	5.50250e+02
6131	5.50060e+02	6.13100e+03	-5.08960e-03	5.50917e+02
6139	5.50729e+02	6.13900e+03	-5.14954e-03	5.51583e+02
6147	5.51394e+02	6.14700e+03	-5.21433e-03	5.52250e+02
6155	5.52064e+02	6.15500e+03	-5.20414e-03	5.52917e+02
6163	5.52725e+02	6.16300e+03	-5.13493e-03	5.53583e+02
6171	5.53401e+02	6.17100e+03	-5.12618e-03	5.54250e+02
6179	5.54058e+02	6.17900e+03	-5.14870e-03	5.54917e+02
6187	5.54729e+02	6.18700e+03	-5.11333e-03	5.55583e+02
6195	5.55389e+02	6.19500e+03	-5.20051e-03	5.56250e+02
6203	5.56062e+02	6.20300e+03	-5.18595e-03	5.56917e+02
6211	5.56727e+02	6.21100e+03	-5.21532e-03	5.57583e+02
6219	5.57385e+02	6.21900e+03	-5.19654e-03	5.58250e+02
6227	5.58051e+02	6.22700e+03	-5.22755e-03	5.58917e+02
6235	5.58732e+02	6.23500e+03	-5.14655e-03	5.59583e+02
6243	5.59392e+02	6.24300e+03	-5.20728e-03	5.60250e+02
6251	5.60059e+02	6.25100e+03	-5.26819e-03	5.60917e+02
6259	5.60724e+02	6.25900e+03	-5.29961e-03	5.61583e+02
6267	5.61388e+02	6.26700e+03	-5.25224e-03	5.62250e+02
6275	5.62049e+02	6.27500e+03	-5.18585e-03	5.62917e+02
6283	5.62726e+02	6.28300e+03	-5.23183e-03	5.63583e+02
6291	5.63397e+02	6.29100e+03	-5.25551e-03	5.64250e+02
6299	5.64061e+02	6.29900e+03	-5.24868e-03	5.64917e+02
6307	5.64729e+02	6.30700e+03	-5.35916e-03	5.65583e+02
6315	5.65403e+02	6.31500e+03	-5.41865e-03	5.66250e+02
6323	5.66066e+02	6.32300e+03	-5.38593e-03	5.66917e+02
6331	5.66723e+02	6.33100e+03	-5.35452e-03	5.67583e+02
6339	5.67401e+02	6.33900e+03	-5.31986e-03	5.68250e+02
6347	5.68076e+02	6.34700e+03	-5.26591e-03	5.68917e+02
6355	5.68735e+02	6.35500e+03	-5.27012e-03	5.69583e+02
6363	5.69400e+02	6.36300e+03	-5.25969e-03	5.70250e+02
6371	5.70069e+02	6.37100e+03	-5.15205e-03	5.70917e+02
6379	5.70732e+02	6.37900e+03	-5.18435e-03	5.71583e+02
6387	5.71402e+02	6.38700e+03	-5.20465e-03	5.72250e+02
6395	5.72070e+02	6.39500e+03	-5.22821e-03	5.72917e+02
6403	5.72736e+02	6.40300e+03	-5.18925e-03	5.73583e+02
6411	5.73397e+02	6.41100e+03	-5.15304e-03	5.74250e+02
6419	5.74074e+02	6.41900e+03	-5.11101e-03	5.74917e+02
6427	5.74747e+02	6.42700e+03	-5.16516e-03	5.75583e+02
6435	5.75398e+02	6.43500e+03	-5.26511e-03	5.76250e+02
6443	5.76064e+02	6.44300e+03	-5.24918e-03	5.76917e+02
6451	5.76738e+02	6.45100e+03	-5.30023e-03	5.77583e+02
6459	5.77405e+02	6.45900e+03	-5.20052e-03	5.78250e+02
6467	5.78076e+02	6.46700e+03	-5.19810e-03	5.78917e+02
6475	5.78751e+02	6.47500e+03	-5.30075e-03	5.79583e+02
6483	5.79407e+02	6.48300e+03	-5.12378e-03	5.80250e+02
6491	5.80080e+02	6.49100e+03	-5.10590e-03	5.80917e+02
6499	5.80738e+02	6.49900e+03	-5.18594e-03	5.81583e+02
6507	5.81405e+02	6.50700e+03	-5.05691e-03	5.82250e+02
6515	5.82070e+02	6.51500e+03	-5.17730e-03	5.82917e+02
6523	5.82736e+02	6.52300e+03	-5.21609e-03	5.83583e+02
6531	5.83404e+02	6.53100e+03	-5.07950e-03	5.84250e+02
6539	5.84068e+02	6.53900e+03	-5.14115e-03	5.84917e+02
6547	5.84745e+02	6.54700e+03	-5.12397e-03	5.85583e+02
6555	5.85408e+02	6.55500e+03	-5.08211e-03	5.86250e+02
6563	5.86075e+02	6.56300e+03	-5.03514e-03	5.86917e+02
6571	5.86743e+02	6.57100e+03	-5.10630e-03	5.87583e+02
6579	5.87407e+02	6.57900e+03	-5.15719e-03	5.88250e+02
6587	5.88073e+02	6.58700e+03	-5.18654e-03	5.88917e+02
6595	5.88740e+02	6.59500e+03	-5.15491e-03	5.89583e+02
6603	5.89407e+02	6.60300e+03	-5.15610e-03	5.90250e+02
6611	5.90085e+02	6.61100e+03	-5.23932e-03	5.90917e+02
6619	5.90741e+02	6.61900e+03	-5.23950e-03	5.91583e+02
6627	5.91412e+02	6.62700e+03	-5.23143e-03	5.92250e+02
6635	5.92079e+02	6.63500e+03	-5.25045e-03	5.92917e+02
6643	5.92744e+02	6.64300e+03	-5.29465e-03	5.93583e+02
6651	5.93408e+02	6.65100e+03	-5.17370e-03	5.94250e+02
6659	5.94076e+02	6.65900e+03	-5.04360e-03	5.94917e+02
6667	5.94745e+02	6.66700e+03	-5.08397e-03	5.95583e+02
6675	5.95416e+02	6.67500e+03	-5.21453e-03	5.96250e+02
6683	5.96076e+02	6.68300e+03	-5.22866e-03	5.96917e+02
6691	5.96748e+02	6.69100e+03	-5.29267e-03	5.97583e+02
6699	5.97404e+02	6.69900e+03	-5.30661e-03	5.98250e+02
6707	5.98079e+02	6.70700e+03	-5.19847e-03	5.98917e+02
6715	5.98749e+02	6.71500e+03	-5.22019e-03	5.99583e+02
6723	5.99406e+02	6.72300e+03	-5.22461e-03	6.00250e+02
6731	6.00081e+02	6.73100e+03	-5.16387e-03	6.00917e+02
6739	6.00737e+02	6.73900e+03	-5.21083e-03	6.01583e+02
6747	6.01408e+02	6.74700e+03	-5.25344e-03	6.02250e+02
6755	6.02082e+02	6.75500e+03	-5.24070e-03	6.02917e+02
6763	6.02744e+02	6.76300e+03	-5.20638e-03	6.03583e+02
6771	6.03418e+02	6.77100e+03	-5.30979e-03	6.04250e+02
6779	6.04071e+02	6.77900e+03	-5.27023e-03	6.04917e+02
6787	6.04741e+02	6.78700e+03	-5.30776e-03	6.05583e+02
6795	6.05412e+02	6.79500e+03	-5.24458e-03	6.06250e+02
6803	6.06071e+02	6.80300e+03	-5.24328e-03	6.06917e+02
6811	6.06734e+02	6.81100e+03	-5.28951e-03	6.07583e+02
6819	6.07409e+02	6.81900e+03	-5.14358e-03	6.08250e+02
6827	6.08082e+02	6.82700e+03	-5.11121e-03	6.08917e+02
6835	6.08750e+02	6.83500e+03	-5.34660e-03	6.09583e+02
6843	6.09417e+02	6.84300e+03	-5.33962e-03	6.10250e+02
6851	6.10078e+02	6.85100e+03	-5.22331e-03	6.10917e+02
6859	6.10748e+02	6.85900e+03	-5.12876e-03	6.11583e+02
6867	6.11415e+02	6.86700e+03	-5.19442e-03	6.12250e+02
6875	6.12089e+02	6.87500e+03	-5.18263e-03	6.12917e+02
6883	6.12757e+02	6.88300e+03	-5.28853e-03	6.13583e+02
6891	6.13419e+02	6.89100e+03	-5.32951e-03	6.14250e+02
6899	6.14087e+02	6.89900e+03	-5.35140e-03	6.14917e+02
6907	6.14755e+02	6.90700e+03	-5.25228e-03	6.15583e+02
6915	6.15425e+02	6.91500e+03	-5.32894e-03	6.16250e+02
6923	6.16096e+02	6.92300e+03	-5.42729e-03	6.16917e+02
6931	6.16757e+02	6.93100e+03	-5.43799e-03	6.17583e+02
6939	6.17423e+02	6.93900e+03	-5.38381e-03	6.18250e+02
6947	6.18085e+02	6.94700e+03	-5.42417e-03	6.18917e+02
6955	6.18741e+02	6.95500e+03	-5.46204e-03	6.19583e+02
6963	6.19422e+02	6.96300e+03	-5.38593e-03	6.20250e+02
6971	6.20099e+02	6.97100e+03	-5.28257e-03	6.20917e+02
6979	6.20751e+02	6.97900e+03	-5.24688e-03	6.21583e+02
6987	6.21423e+02	6.98700e+03	-5.26491e-03	6.22250e+02
6995	6.22086e+02	6.99500e+03	-5.37537e-03	6.22917e+02
7003	6.22755e+02	7.00300e+03	-5.42865e-03	6.23583e+02
7011	6.23417e+02	7.01100e+03	-5.44022e-03	6.24250e+02
7019	6.24103e+02	7.01900e+03	-5.36514e-03	6.24917e+02
7027	6.24763e+02	7.02700e+03	-5.35497e-03	6.25583e+02
7035	6.25450e+02	7.03500e+03	-5.45628e-03	6.26250e+02
7043	6.26112e+02	7.04300e+03	-5.41510e-03	6.26917e+02
7051	6.26788e+02	7.05100e+03	-5.37473e-03	6.27583e+02
7059	6.27461e+02	7.05900e+03	-5.30567e-03	6.28250e+02
7067	6.28122e+02	7.06700e+03	-5.28048e-03	6.28917e+02
7075	6.28797e+02	7.07500e+03	-5.19292e-03	6.29583e+02
7083	6.29453e+02	7.08300e+03	-5.12308e-03	6.30250e+02
7091	6.30114e+02	7.09100e+03	-5.22792e-03	6.30917e+02
7099	6.30792e+02	7.09900e+03	-5.37890e-03	6.31583e+02
7107	6.31467e+02	7.10700e+03	-5.31977e-03	6.32250e+02
7115	6.32117e+02	7.11500e+03	-5.32295e-03	6.32917e+02
7123	6.32794e+02	7.12300e+03	-5.35583e-03	6.33583e+02
7131	6.33459e+02	7.13100e+03	-5.26362e-03	6.34250e+02
7139	6.34129e+02	7.13900e+03	-5.22660e-03	6.34917e+02
7147	6.34794e+02	7.14700e+03	-5.22335e-03	6.35583e+02
7155	6.35477e+02	7.15500e+03	-5.47555e-03	6.36250e+02
7163	6.36141e+02	7.16300e+03	-5.50597e-03	6.36917e+02
7171	6.36799e+02	7.17100e+03	-5.34562e-03	6.37583e+02
7179	6.37478e+02	7.17900e+03	-5.36759e-03	6.38250e+02
7187	6.38141e+02	7.18700e+03	-5.26088e-03	6.38917e+02
7195	6.38812e+02	7.19500e+03	-5.24296e-03	6.39583e+02
7203	6.39486e+02	7.20300e+03	-5.39105e-03	6.40250e+02
7211	6.40160e+02	7.21100e+03	-5.41874e-03	6.40917e+02
7219	6.40820e+02	7.21900e+03	-5.35717e-03	6.41583e+02
7227	6.41483e+02	7.22700e+03	-5.40847e-03	6.42250e+02
7235	6.42159e+02	7.23500e+03	-5.38278e-03	6.42917e+02
7243	6.42831e+02	7.24300e+03	-5.45056e-03	6.43583e+02
7251	6.43503e+02	7.25100e+03	-5.43550e-03	6.44250e+02
7259	6.44169e+02	7.25900e+03	-5.45116e-03	6.44917e+02
7267	6.44848e+02	7.26700e+03	-5.54054e-03	6.45583e+02
7275	6.45518e+02	7.27500e+03	-5.37306e-03	6.46250e+02
7283	6.46183e+02	7.28300e+03	-5.21321e-03	6.46917e+02
7291	6.46850e+02	7.29100e+03	-5.29572e-03	6.47583e+02
7299	6.47526e+02	7.29900e+03	-5.32218e-03	6.48250e+02
7307	6.48191e+02	7.30700e+03	-5.31301e-03	6.48917e+02
7315	6.48855e+02	7.31500e+03	-5.20313e-03	6.49583e+02
7323	6.49525e+02	7.32300e+03	-5.22719e-03	6.50250e+02
7331	6.50192e+02	7.33100e+03	-5.26293e-03	6.50917e+02
7339	6.50868e+02	7.33900e+03	-5.35538e-03	6.51583e+02
7347	6.51540e+02	7.34700e+03	-5.25966e-03	6.52250e+02
7355	6.52207e+02	7.35500e+03	-5.17521e-03	6.52917e+02
7363	6.52875e+02	7.36300e+03	-5.27172e-03	6.53583e+02
7371	6.53543e+02	7.37100e+03	-5.32254e-03	6.54250e+02
7379	6.54205e+02	7.37900e+03	-5.32388e-03	6.54917e+02
7387	6.54881e+02	7.38700e+03	-5.38749e-03	6.55583e+02
7395	6.55550e+02	7.39500e+03	-5.34690e-03	6.56250e+02
7403	6.56223e+02	7.40300e+03	-5.34038e-03	6.56917e+02
7411	6.56906e+02	7.41100e+03	-5.37727e-03	6.57583e+02
7419	6.57549e+02	7.41900e+03	-5.30425e-03	6.58250e+02
7427	6.58215e+02	7.42700e+03	-5.34608e-03	6.58917e+02
7435	6.58885e+02	7.43500e+03	-5.44162e-03	6.59583e+02
7443	6.59555e+02	7.44300e+03	-5.40544e-03	6.60250e+02
7451	6.60222e+02	7.45100e+03	-5.41267e-03	6.60917e+02
7459	6.60891e+02	7.45900e+03	-5.35870e-03	6.61583e+02
7467	6.61551e+02	7.46700e+03	-5.30200e-03	6.62250e+02
7475	6.62225e+02	7.47500e+03	-5.40696e-03	6.62917e+02
7483	6.62888e+02	7.48300e+03	-5.41855e-03	6.63583e+02
7491	6.63560e+02	7.49100e+03	-5.34168e-03	6.64250e+02
7499	6.64216e+02	7.49900e+03	-5.27696e-03	6.64917e+02
7507	6.64894e+02	7.50700e+03	-5.25852e-03	6.65583e+02
7515	6.65563e+02	7.51500e+03	-5.29976e-03	6.66250e+02
7523	6.66237e+02	7.52300e+03	-5.28366e-03	6.66917e+02
7531	6.66906e+02	7.53100e+03	-5.20731e-03	6.67583e+02
7539	6.67577e+02	7.53900e+03	-5.11696e-03	6.68250e+02
7547	6.68237e+02	7.54700e+03	-5.08933e-03	6.68917e+02
7555	6.68903e+02	7.55500e+03	-5.12488e-03	6.69583e+02
7563	6.69578e+02	7.56300e+03	-5.15586e-03	6.70250e+02
7571	6.70243e+02	7.57100e+03	-5.17980e-03	6.70917e+02
7579	6.70915e+02	7.57900e+03	-5.19397e-03	6.71583e+02
7587	6.71580e+02	7.58700e+03	-5.17729e-03	6.72250e+02
7595	6.72257e+02	7.59500e+03	-5.15320e-03	6.72917e+02
7603	6.72930e+02	7.60300e+03	-5.12943e-03	6.73583e+02
7611	6.73593e+02	7.61100e+03	-5.18217e-03	6.74250e+02
7619	6.74257e+02	7.61900e+03	-5.20749e-03	6.74917e+02
7627	6.74936e+02	7.62700e+03	-5.22981e-03	6.75583e+02
7635	6.75596e+02	7.63500e+03	-5.34637e-03	6.76250e+02
7643	6.76252e+02	7.64300e+03	-5.35246e-03	6.76917e+02
7651	6.76929e+02	7.65100e+03	-5.28041e-03	6.77583e+02
7659	6.77602e+02	7.65900e+03	-5.21750e-03	6.78250e+02
7667	6.78267e+02	7.66700e+03	-5.14126e-03	6.78917e+02
7675	6.78932e+02	7.67500e+03	-5.08263e-03	6.79583e+02
7683	6.79609e+02	7.68300e+03	-5.13511e-03	6.80250e+02
7691	6.80284e+02	7.69100e+03	-5.21562e-03	6.80917e+02
7699	6.80957e+02	7.69900e+03	-5.29923e-03	6.81583e+02
7707	6.81620e+02	7.70700e+03	-5.18619e-03	6.82250e+02
7715	6.82286e+02	7.71500e+03	-5.22441e-03	6.82917e+02
7723	6.82949e+02	7.72300e+03	-5.27593e-03	6.83583e+02
7731	6.83623e+02	7.73100e+03	-5.24033e-03	6.84250e+02
7739	6.84286e+02	7.73900e+03	-5.23208e-03	6.84917e+02
7747	6.84965e+02	7.74700e+03	-5.26245e-03	6.85583e+02
7755	6.85635e+02	7.75500e+03	-5.10824e-03	6.86250e+02
7763	6.86305e+02	7.76300e+03	-5.09945e-03	6.86917e+02
7771	6.86980e+02	7.77100e+03	-5.07930e-03	6.87583e+02
7779	6.87650e+02	7.77900e+03	-5.18054e-03	6.88250e+02
7787	6.88324e+02	7.78700e+03	-5.12711e-03	6.88917e+02
7795	6.88994e+02	7.79500e+03	-5.04080e-03	6.89583e+02
7803	6.89666e+02	7.80300e+03	-5.02187e-03	6.90250e+02
7811	6.90337e+02	7.81100e+03	-5.03832e-03	6.90917e+02
7819	6.91013e+02	7.81900e+03	-5.07427e-03	6.91583e+02
7827	6.91662e+02	7.82700e+03	-5.04545e-03	6.92250e+02
7835	6.92343e+02	7.83500e+03	-4.95351e-03	6.92917e+02
7843	6.93005e+02	7.84300e+03	-5.01297e-03	6.93583e+02
7851	6.93680e+02	7.85100e+03	-5.10161e-03	6.94250e+02
7859	6.94348e+02	7.85900e+03	-5.11670e-03	6.94917e+02
7867	6.95029e+02	7.86700e+03	-5.21116e-03	6.95583e+02
7875	6.95692e+02	7.87500e+03	-5.21289e-03	6.96250e+02
7883	6.96354e+02	7.88300e+03	-5.18447e-03	6.96917e+02
7891	6.97039e+02	7.89100e+03	-5.23779e-03	6.97583e+02
7899	6.97541e+02	7.89900e+03	-5.05657e-03	6.98250e+02
7907	6.97987e+02	7.90700e+03	-5.04712e-03	6.98917e+02
7915	6.98333e+02	7.91500e+03	-5.11559e-03	6.99583e+02
7920	6.98507e+02	7.92000e+03	-5.15405e-03	7.00000e+02