File: Experiments/TUBS/tga_nonisotherm/tga_dynamic_n2low20_dyn30_powder_3mg_r1.txt
Index	Ts	t	Weight	Tr
[#]	[°C]	[s]	[mg]	[°C]
681	1.30453e+02	6.81000e+02	3.02804	130.5
683	1.31454e+02	6.83000e+02	3.02797	131.5
685	1.32475e+02	6.85000e+02	3.02787	132.5
687	1.33472e+02	6.87000e+02	3.02778	133.5
689	1.34474e+02	6.89000e+02	3.02769	134.5
691	1.35488e+02	6.91000e+02	3.02758	135.5
693	1.36488e+02	6.93000e+02	3.02747	136.5
695	1.37506e+02	6.95000e+02	3.02737	137.5
697	1.38504e+02	6.97000e+02	3.02727	138.5
699	1.39506e+02	6.99000e+02	3.02715	139.5
701	1.40524e+02	7.01000e+02	3.02699	140.5
703	1.41532e+02	7.03000e+02	3.02681	141.5
705	1.42555e+02	7.05000e+02	3.02657	142.5
707	1.43564e+02	7.07000e+02	3.0263	143.5
709	1.44555e+02	7.09000e+02	3.02601	144.5
711	1.45572e+02	7.11000e+02	3.02576	145.5
713	1.46567e+02	7.13000e+02	3.02556	146.5
715	1.47584e+02	7.15000e+02	3.02537	147.5
717	1.48597e+02	7.17000e+02	3.02521	148.5
719	1.49610e+02	7.19000e+02	3.02502	149.5
721	1.50610e+02	7.21000e+02	3.02477	150.5
723	1.51623e+02	7.23000e+02	3.02447	151.5
725	1.52634e+02	7.25000e+02	3.02405	152.5
727	1.53643e+02	7.27000e+02	3.02363	153.5
729	1.54656e+02	7.29000e+02	3.02315	154.5
731	1.55670e+02	7.31000e+02	3.02269	155.5
733	1.56666e+02	7.33000e+02	3.02222	156.5
735	1.57683e+02	7.35000e+02	3.02176	157.5
737	1.58692e+02	7.37000e+02	3.02133	158.5
739	1.59703e+02	7.39000e+02	3.02092	159.5
741	1.60715e+02	7.41000e+02	3.02055	160.5
743	1.61731e+02	7.43000e+02	3.02015	161.5
745	1.62725e+02	7.45000e+02	3.0197	162.5
747	1.63750e+02	7.47000e+02	3.01924	163.5
749	1.64765e+02	7.49000e+02	3.01875	164.5
751	1.65775e+02	7.51000e+02	3.01828	165.5
753	1.66789e+02	7.53000e+02	3.01782	166.5
755	1.67792e+02	7.55000e+02	3.01737	167.5
757	1.68813e+02	7.57000e+02	3.01691	168.5
759	1.69829e+02	7.59000e+02	3.01643	169.5
761	1.70843e+02	7.61000e+02	3.01591	170.5
763	1.71851e+02	7.63000e+02	3.01538	171.5
765	1.72863e+02	7.65000e+02	3.0148	172.5
767	1.73895e+02	7.67000e+02	3.01419	173.5
769	1.74900e+02	7.69000e+02	3.01355	174.5
771	1.75903e+02	7.71000e+02	3.01294	175.5
773	1.76921e+02	7.73000e+02	3.01231	176.5
775	1.77935e+02	7.75000e+02	3.01163	177.5
777	1.78960e+02	7.77000e+02	3.01088	178.5
779	1.79965e+02	7.79000e+02	3.01013	179.5
781	1.80972e+02	7.81000e+02	3.00932	180.5
783	1.82003e+02	7.83000e+02	3.00851	181.5
785	1.83013e+02	7.85000e+02	3.00767	182.5
787	1.84036e+02	7.87000e+02	3.00679	183.5
789	1.85045e+02	7.89000e+02	3.00581	184.5
791	1.86063e+02	7.91000e+02	3.00474	185.5
793	1.87083e+02	7.93000e+02	3.0035	186.5
795	1.88097e+02	7.95000e+02	3.00223	187.5
797	1.89113e+02	7.97000e+02	3.00078	188.5
799	1.90128e+02	7.99000e+02	2.9993	189.5
801	1.91138e+02	8.01000e+02	2.99768	190.5
803	1.92152e+02	8.03000e+02	2.99601	191.5
805	1.93171e+02	8.05000e+02	2.9942	192.5
807	1.94183e+02	8.07000e+02	2.99235	193.5
809	1.95209e+02	8.09000e+02	2.99037	194.5
811	1.96229e+02	8.11000e+02	2.98837	195.5
813	1.97242e+02	8.13000e+02	2.98627	196.5
815	1.98259e+02	8.15000e+02	2.98416	197.5
817	1.99288e+02	8.17000e+02	2.98198	198.5
819	2.00302e+02	8.19000e+02	2.97983	199.5
821	2.01319e+02	8.21000e+02	2.97771	200.5
823	2.02334e+02	8.23000e+02	2.97563	201.5
825	2.03357e+02	8.25000e+02	2.97365	202.5
827	2.04375e+02	8.27000e+02	2.9717	203.5
829	2.05406e+02	8.29000e+02	2.96987	204.5
831	2.06411e+02	8.31000e+02	2.96807	205.5
833	2.07436e+02	8.33000e+02	2.96641	206.5
835	2.08467e+02	8.35000e+02	2.9648	207.5
837	2.09474e+02	8.37000e+02	2.96337	208.5
839	2.10498e+02	8.39000e+02	2.96199	209.5
841	2.11516e+02	8.41000e+02	2.96079	210.5
843	2.12545e+02	8.43000e+02	2.95963	211.5
845	2.13565e+02	8.45000e+02	2.95864	212.5
847	2.14585e+02	8.47000e+02	2.95769	213.5
849	2.15607e+02	8.49000e+02	2.95689	214.5
851	2.16629e+02	8.51000e+02	2.95608	215.5
853	2.17658e+02	8.53000e+02	2.95536	216.5
855	2.18674e+02	8.55000e+02	2.95464	217.5
857	2.19692e+02	8.57000e+02	2.95398	218.5
859	2.20715e+02	8.59000e+02	2.95333	219.5
861	2.21729e+02	8.61000e+02	2.95276	220.5
863	2.22753e+02	8.63000e+02	2.95221	221.5
865	2.23767e+02	8.65000e+02	2.95169	222.5
867	2.24805e+02	8.67000e+02	2.95112	223.5
869	2.25830e+02	8.69000e+02	2.95051	224.5
871	2.26850e+02	8.71000e+02	2.9499	225.5
873	2.27865e+02	8.73000e+02	2.94924	226.5
875	2.28887e+02	8.75000e+02	2.94858	227.5
877	2.29914e+02	8.77000e+02	2.94793	228.5
879	2.30918e+02	8.79000e+02	2.94732	229.5
881	2.31952e+02	8.81000e+02	2.94674	230.5
883	2.32971e+02	8.83000e+02	2.94613	231.5
885	2.33996e+02	8.85000e+02	2.94549	232.5
887	2.35020e+02	8.87000e+02	2.94484	233.5
889	2.36015e+02	8.89000e+02	2.94414	234.5
891	2.37039e+02	8.91000e+02	2.94342	235.5
893	2.38069e+02	8.93000e+02	2.94267	236.5
895	2.39066e+02	8.95000e+02	2.94193	237.5
897	2.40052e+02	8.97000e+02	2.94119	238.5
899	2.41075e+02	8.99000e+02	2.94045	239.5
901	2.42085e+02	9.01000e+02	2.93972	240.5
903	2.43089e+02	9.03000e+02	2.939	241.5
905	2.44104e+02	9.05000e+02	2.93828	242.5
907	2.45119e+02	9.07000e+02	2.93756	243.5
909	2.46143e+02	9.09000e+02	2.93682	244.5
911	2.47146e+02	9.11000e+02	2.9361	245.5
913	2.48183e+02	9.13000e+02	2.9354	246.5
915	2.49215e+02	9.15000e+02	2.93474	247.5
917	2.50241e+02	9.17000e+02	2.93412	248.5
919	2.51260e+02	9.19000e+02	2.9335	249.5
921	2.52288e+02	9.21000e+02	2.93291	250.5
923	2.53341e+02	9.23000e+02	2.93229	251.5
925	2.54350e+02	9.25000e+02	2.93166	252.5
927	2.55391e+02	9.27000e+02	2.93101	253.5
929	2.56416e+02	9.29000e+02	2.93035	254.5
931	2.57446e+02	9.31000e+02	2.92972	255.5
933	2.58471e+02	9.33000e+02	2.9291	256.5
935	2.59530e+02	9.35000e+02	2.92847	257.5
937	2.60581e+02	9.37000e+02	2.92785	258.5
939	2.61609e+02	9.39000e+02	2.92724	259.5
941	2.62682e+02	9.41000e+02	2.92665	260.5
943	2.63756e+02	9.43000e+02	2.92606	261.5
945	2.64855e+02	9.45000e+02	2.92549	262.5
947	2.65880e+02	9.47000e+02	2.92494	263.5
949	2.66901e+02	9.49000e+02	2.92438	264.5
951	2.67913e+02	9.51000e+02	2.9238	265.5
953	2.68950e+02	9.53000e+02	2.92318	266.5
955	2.69994e+02	9.55000e+02	2.92255	267.5
957	2.71014e+02	9.57000e+02	2.92188	268.5
959	2.72028e+02	9.59000e+02	2.9212	269.5
961	2.73050e+02	9.61000e+02	2.9205	270.5
963	2.74081e+02	9.63000e+02	2.91982	271.5
965	2.75106e+02	9.65000e+02	2.91915	272.5
967	2.76143e+02	9.67000e+02	2.91843	273.5
969	2.77175e+02	9.69000e+02	2.91767	274.5
971	2.78209e+02	9.71000e+02	2.91688	275.5
973	2.79217e+02	9.73000e+02	2.91601	276.5
975	2.80213e+02	9.75000e+02	2.91513	277.5
977	2.81225e+02	9.77000e+02	2.9142	278.5
979	2.82222e+02	9.79000e+02	2.91326	279.5
981	2.83230e+02	9.81000e+02	2.91227	280.5
983	2.84266e+02	9.83000e+02	2.91124	281.5
985	2.85349e+02	9.85000e+02	2.91011	282.5
987	2.86440e+02	9.87000e+02	2.90893	283.5
989	2.87496e+02	9.89000e+02	2.9076	284.5
991	2.88583e+02	9.91000e+02	2.90621	285.5
993	2.89587e+02	9.93000e+02	2.90466	286.5
995	2.90604e+02	9.95000e+02	2.90309	287.5
997	2.91687e+02	9.97000e+02	2.90135	288.5
999	2.92721e+02	9.99000e+02	2.89956	289.5
1001	2.93778e+02	1.00100e+03	2.8976	290.5
1003	2.94815e+02	1.00300e+03	2.89562	291.5
1005	2.95828e+02	1.00500e+03	2.89345	292.5
1007	2.96834e+02	1.00700e+03	2.89121	293.5
1009	2.97851e+02	1.00900e+03	2.88872	294.5
1011	2.98889e+02	1.01100e+03	2.88615	295.5
1013	2.99868e+02	1.01300e+03	2.88332	296.5
1015	3.00857e+02	1.01500e+03	2.88046	297.5
1017	3.01914e+02	1.01700e+03	2.87738	298.5
1019	3.02939e+02	1.01900e+03	2.87424	299.5
1021	3.03949e+02	1.02100e+03	2.87084	300.5
1023	3.04976e+02	1.02300e+03	2.8674	301.5
1025	3.05997e+02	1.02500e+03	2.86373	302.5
1027	3.07014e+02	1.02700e+03	2.86001	303.5
1029	3.08016e+02	1.02900e+03	2.85609	304.5
1031	3.09028e+02	1.03100e+03	2.85214	305.5
1033	3.10046e+02	1.03300e+03	2.84799	306.5
1035	3.11068e+02	1.03500e+03	2.84377	307.5
1037	3.12081e+02	1.03700e+03	2.83935	308.5
1039	3.13098e+02	1.03900e+03	2.8349	309.5
1041	3.14102e+02	1.04100e+03	2.83028	310.5
1043	3.15133e+02	1.04300e+03	2.82566	311.5
1045	3.16150e+02	1.04500e+03	2.82092	312.5
1047	3.17170e+02	1.04700e+03	2.81617	313.5
1049	3.18220e+02	1.04900e+03	2.81133	314.5
1051	3.19221e+02	1.05100e+03	2.80647	315.5
1053	3.20232e+02	1.05300e+03	2.80155	316.5
1055	3.21246e+02	1.05500e+03	2.79664	317.5
1057	3.22232e+02	1.05700e+03	2.7917	318.5
1059	3.23209e+02	1.05900e+03	2.78674	319.5
1061	3.24219e+02	1.06100e+03	2.78175	320.5
1063	3.25194e+02	1.06300e+03	2.77674	321.5
1065	3.26193e+02	1.06500e+03	2.77163	322.5
1067	3.27161e+02	1.06700e+03	2.76644	323.5
1069	3.28180e+02	1.06900e+03	2.76104	324.5
1071	3.29304e+02	1.07100e+03	2.75555	325.5
1073	3.30373e+02	1.07300e+03	2.74978	326.5
1075	3.31474e+02	1.07500e+03	2.74389	327.5
1077	3.32595e+02	1.07700e+03	2.73766	328.5
1079	3.33609e+02	1.07900e+03	2.7313	329.5
1081	3.34684e+02	1.08100e+03	2.72447	330.5
1083	3.35703e+02	1.08300e+03	2.71744	331.5
1085	3.36691e+02	1.08500e+03	2.70976	332.5
1087	3.37603e+02	1.08700e+03	2.70186	333.5
1089	3.38612e+02	1.08900e+03	2.69319	334.5
1091	3.39837e+02	1.09100e+03	2.6843	335.5
1093	3.40816e+02	1.09300e+03	2.67453	336.5
1095	3.41882e+02	1.09500e+03	2.66449	337.5
1097	3.42809e+02	1.09700e+03	2.65347	338.5
1099	3.43732e+02	1.09900e+03	2.64216	339.5
1101	3.44655e+02	1.10100e+03	2.62974	340.5
1103	3.45551e+02	1.10300e+03	2.61701	341.5
1105	3.46432e+02	1.10500e+03	2.60309	342.5
1107	3.47363e+02	1.10700e+03	2.58885	343.5
1109	3.48292e+02	1.10900e+03	2.57329	344.5
1111	3.49237e+02	1.11100e+03	2.55735	345.5
1113	3.50193e+02	1.11300e+03	2.53997	346.5
1115	3.51233e+02	1.11500e+03	2.52227	347.5
1117	3.52193e+02	1.11700e+03	2.50307	348.5
1119	3.53242e+02	1.11900e+03	2.48347	349.5
1121	3.54380e+02	1.12100e+03	2.46231	350.5
1123	3.55339e+02	1.12300e+03	2.44079	351.5
1125	3.56248e+02	1.12500e+03	2.41766	352.5
1127	3.57262e+02	1.12700e+03	2.39407	353.5
1129	3.58162e+02	1.12900e+03	2.36876	354.5
1131	3.59062e+02	1.13100e+03	2.34306	355.5
1133	3.60031e+02	1.13300e+03	2.31565	356.5
1135	3.60983e+02	1.13500e+03	2.28783	357.5
1137	3.61944e+02	1.13700e+03	2.25834	358.5
1139	3.62918e+02	1.13900e+03	2.2285	359.5
1141	3.63889e+02	1.14100e+03	2.19706	360.5
1143	3.64864e+02	1.14300e+03	2.16525	361.5
1145	3.65849e+02	1.14500e+03	2.1319	362.5
1147	3.66852e+02	1.14700e+03	2.09826	363.5
1149	3.67819e+02	1.14900e+03	2.06318	364.5
1151	3.68792e+02	1.15100e+03	2.0278	365.5
1153	3.69822e+02	1.15300e+03	1.99105	366.5
1155	3.70777e+02	1.15500e+03	1.95399	367.5
1157	3.71837e+02	1.15700e+03	1.91555	368.5
1159	3.72997e+02	1.15900e+03	1.87678	369.5
1161	3.73948e+02	1.16100e+03	1.83663	370.5
1163	3.74886e+02	1.16300e+03	1.79619	371.5
1165	3.75961e+02	1.16500e+03	1.75448	372.5
1167	3.76983e+02	1.16700e+03	1.71262	373.5
1169	3.77983e+02	1.16900e+03	1.66977	374.5
1171	3.78978e+02	1.17100e+03	1.62679	375.5
1173	3.79987e+02	1.17300e+03	1.58297	376.5
1175	3.80940e+02	1.17500e+03	1.53898	377.5
1177	3.81921e+02	1.17700e+03	1.49419	378.5
1179	3.82877e+02	1.17900e+03	1.44923	379.5
1181	3.83828e+02	1.18100e+03	1.40364	380.5
1183	3.84848e+02	1.18300e+03	1.35814	381.5
1185	3.85840e+02	1.18500e+03	1.31262	382.5
1187	3.86834e+02	1.18700e+03	1.26739	383.5
1189	3.88041e+02	1.18900e+03	1.22273	384.5
1191	3.88956e+02	1.19100e+03	1.1783	385.5
1193	3.89949e+02	1.19300e+03	1.1345	386.5
1195	3.90893e+02	1.19500e+03	1.09071	387.5
1197	3.91977e+02	1.19700e+03	1.04737	388.5
1199	3.93005e+02	1.19900e+03	1.00416	389.5
1201	3.93979e+02	1.20100e+03	0.961456	390.5
1203	3.94761e+02	1.20300e+03	0.918922	391.5
1205	3.95729e+02	1.20500e+03	0.876985	392.5
1207	3.96776e+02	1.20700e+03	0.835246	393.5
1209	3.97776e+02	1.20900e+03	0.794208	394.5
1211	3.98838e+02	1.21100e+03	0.75342	395.5
1213	3.99829e+02	1.21300e+03	0.713597	396.5
1215	4.00933e+02	1.21500e+03	0.674162	397.5
1217	4.02073e+02	1.21700e+03	0.635949	398.5
1219	4.03003e+02	1.21900e+03	0.598071	399.5
1221	4.04078e+02	1.22100e+03	0.561584	400.5
1223	4.05188e+02	1.22300e+03	0.525606	401.5
1225	4.06269e+02	1.22500e+03	0.491544	402.5
1227	4.07388e+02	1.22700e+03	0.458294	403.5
1229	4.08399e+02	1.22900e+03	0.427657	404.5
1231	4.09485e+02	1.23100e+03	0.397784	405.5
1233	4.10699e+02	1.23300e+03	0.37077	406.5
1235	4.11884e+02	1.23500e+03	0.344385	407.5
1237	4.12928e+02	1.23700e+03	0.320749	408.5
1239	4.13898e+02	1.23900e+03	0.297655	409.5
1241	4.14850e+02	1.24100e+03	0.277115	410.5
1243	4.15934e+02	1.24300e+03	0.257082	411.5
1245	4.16916e+02	1.24500e+03	0.239393	412.5
1247	4.17960e+02	1.24700e+03	0.222153	413.5
1249	4.18990e+02	1.24900e+03	0.207068	414.5
1251	4.20014e+02	1.25100e+03	0.192437	415.5
1253	4.20954e+02	1.25300e+03	0.179825	416.5
1255	4.21850e+02	1.25500e+03	0.167613	417.5
1257	4.22851e+02	1.25700e+03	0.157246	418.5
1259	4.23827e+02	1.25900e+03	0.147207	419.5
1261	4.24861e+02	1.26100e+03	0.138759	420.5
1263	4.25867e+02	1.26300e+03	0.130572	421.5
1265	4.26970e+02	1.26500e+03	0.123755	422.5
1267	4.27936e+02	1.26700e+03	0.117187	423.5
1269	4.29027e+02	1.26900e+03	0.111827	424.5
1271	4.30230e+02	1.27100e+03	0.10667	425.5
1273	4.31336e+02	1.27300e+03	0.102545	426.5
1275	4.32229e+02	1.27500e+03	0.0985635	427.5
1277	4.33153e+02	1.27700e+03	0.0953946	428.5
1279	4.34139e+02	1.27900e+03	0.0923192	429.5
1281	4.35149e+02	1.28100e+03	0.0898644	430.5
1283	4.36164e+02	1.28300e+03	0.0875046	431.5
1285	4.37203e+02	1.28500e+03	0.0856397	432.5
1287	4.38246e+02	1.28700e+03	0.0838294	433.5
1289	4.39367e+02	1.28900e+03	0.0824014	434.5
1291	4.40453e+02	1.29100e+03	0.0810252	435.5
1293	4.41489e+02	1.29300e+03	0.0799388	436.5
1295	4.42492e+02	1.29500e+03	0.078868	437.5
1297	4.43645e+02	1.29700e+03	0.0779956	438.5
1299	4.44557e+02	1.29900e+03	0.0771482	439.5
1301	4.45596e+02	1.30100e+03	0.0764349	440.5
1303	4.46550e+02	1.30300e+03	0.0757202	441.5
1305	4.47559e+02	1.30500e+03	0.0750842	442.5
1307	4.48480e+02	1.30700e+03	0.0744693	443.5
1309	4.49499e+02	1.30900e+03	0.0739311	444.5
1311	4.50344e+02	1.31100e+03	0.073421	445.5
1313	4.51185e+02	1.31300e+03	0.0730195	446.5
1315	4.52069e+02	1.31500e+03	0.0726536	447.5
1317	4.52994e+02	1.31700e+03	0.0724148	448.5
1319	4.53989e+02	1.31900e+03	0.072177	449.5
1321	4.54934e+02	1.32100e+03	0.0719958	450.5
1323	4.55880e+02	1.32300e+03	0.0717868	451.5
1325	4.56769e+02	1.32500e+03	0.0715839	452.5
1327	4.57655e+02	1.32700e+03	0.0714093	453.5
1329	4.58678e+02	1.32900e+03	0.0712834	454.5
1331	4.59590e+02	1.33100e+03	0.0711698	455.5
1333	4.60497e+02	1.33300e+03	0.071092	456.5
1335	4.61476e+02	1.33500e+03	0.0709944	457.5
1337	4.62448e+02	1.33700e+03	0.0709016	458.5
1339	4.63379e+02	1.33900e+03	0.0708345	459.5
1341	4.64275e+02	1.34100e+03	0.0708144	460.5
1343	4.65265e+02	1.34300e+03	0.0708029	461.5
1345	4.66286e+02	1.34500e+03	0.0708101	462.5
1347	4.67269e+02	1.34700e+03	0.0707892	463.5
1349	4.68225e+02	1.34900e+03	0.0707393	464.5
1351	4.69145e+02	1.35100e+03	0.0706817	465.5
1353	4.70064e+02	1.35300e+03	0.0705778	466.5
1355	4.71012e+02	1.35500e+03	0.0704605	467.5
1357	4.71945e+02	1.35700e+03	0.0703268	468.5
1359	4.72943e+02	1.35900e+03	0.0702361	469.5
1361	4.73911e+02	1.36100e+03	0.0701939	470.5
1363	4.74855e+02	1.36300e+03	0.0701424	471.5
1365	4.75825e+02	1.36500e+03	0.0701208	472.5
1367	4.76824e+02	1.36700e+03	0.0701123	473.5
1369	4.77841e+02	1.36900e+03	0.0701302	474.5
1371	4.78865e+02	1.37100e+03	0.0701436	475.5
1373	4.79866e+02	1.37300e+03	0.0701716	476.5
1375	4.80927e+02	1.37500e+03	0.0701956	477.5
1377	4.81922e+02	1.37700e+03	0.0702003	478.5
1379	4.82819e+02	1.37900e+03	0.0701789	479.5
1381	4.83693e+02	1.38100e+03	0.0701288	480.5
1383	4.84579e+02	1.38300e+03	0.0700946	481.5
1385	4.85518e+02	1.38500e+03	0.0700638	482.5
1387	4.86487e+02	1.38700e+03	0.0700382	483.5
1389	4.87458e+02	1.38900e+03	0.0700363	484.5
1391	4.88503e+02	1.39100e+03	0.0700331	485.5
1393	4.89660e+02	1.39300e+03	0.0700044	486.5
1395	4.90820e+02	1.39500e+03	0.0699418	487.5
1397	4.91956e+02	1.39700e+03	0.0698445	488.5
1399	4.93127e+02	1.39900e+03	0.0697768	489.5
1401	4.93824e+02	1.40100e+03	0.06972	490.5
1403	4.94798e+02	1.40300e+03	0.0696486	491.5
1405	4.95782e+02	1.40500e+03	0.0695794	492.5
1407	4.96807e+02	1.40700e+03	0.0695217	493.5
1409	4.97784e+02	1.40900e+03	0.0694841	494.5
1411	4.98835e+02	1.41100e+03	0.069454	495.5
1413	4.99842e+02	1.41300e+03	0.0694482	496.5
1415	5.00796e+02	1.41500e+03	0.0694396	497.5
1417	5.01765e+02	1.41700e+03	0.0694342	498.5
1419	5.02766e+02	1.41900e+03	0.0694167	499.5
1421	5.03789e+02	1.42100e+03	0.0693958	500.5
1423	5.04832e+02	1.42300e+03	0.0693874	501.5
1425	5.05829e+02	1.42500e+03	0.0693886	502.5
1427	5.06833e+02	1.42700e+03	0.0693774	503.5
1429	5.07830e+02	1.42900e+03	0.0693398	504.5
1431	5.08806e+02	1.43100e+03	0.0692933	505.5
1433	5.09773e+02	1.43300e+03	0.0692398	506.5
1435	5.10766e+02	1.43500e+03	0.0692275	507.5
1437	5.11750e+02	1.43700e+03	0.0692753	508.5
1439	5.12671e+02	1.43900e+03	0.0693295	509.5
1441	5.13650e+02	1.44100e+03	0.0694159	510.5
1443	5.14496e+02	1.44300e+03	0.0694801	511.5
1445	5.15432e+02	1.44500e+03	0.0695065	512.5
1447	5.16387e+02	1.44700e+03	0.0695016	513.5
1449	5.17364e+02	1.44900e+03	0.0694439	514.5
1451	5.18413e+02	1.45100e+03	0.0694036	515.5
1453	5.19347e+02	1.45300e+03	0.0693488	516.5
1455	5.20310e+02	1.45500e+03	0.0692922	517.5
1457	5.21294e+02	1.45700e+03	0.0692576	518.5
1459	5.22279e+02	1.45900e+03	0.0692504	519.5
1461	5.23289e+02	1.46100e+03	0.0692659	520.5
1463	5.24317e+02	1.46300e+03	0.0692503	521.5
1465	5.25312e+02	1.46500e+03	0.0692114	522.5
1467	5.26300e+02	1.46700e+03	0.0691774	523.5
1469	5.27287e+02	1.46900e+03	0.0691292	524.5
1471	5.28296e+02	1.47100e+03	0.0690838	525.5
1473	5.29291e+02	1.47300e+03	0.0690591	526.5
1475	5.30314e+02	1.47500e+03	0.0690578	527.5
1477	5.31309e+02	1.47700e+03	0.0690927	528.5
1479	5.32586e+02	1.47900e+03	0.0691248	529.5
1481	5.33596e+02	1.48100e+03	0.0691839	530.5
1483	5.34567e+02	1.48300e+03	0.0692485	531.5
1485	5.35585e+02	1.48500e+03	0.0693033	532.5
1487	5.36572e+02	1.48700e+03	0.0693189	533.5
1489	5.37618e+02	1.48900e+03	0.0692813	534.5
1491	5.38588e+02	1.49100e+03	0.0692411	535.5
1493	5.39590e+02	1.49300e+03	0.0691717	536.5
1495	5.40490e+02	1.49500e+03	0.0691106	537.5
1497	5.41612e+02	1.49700e+03	0.0690683	538.5
1499	5.42566e+02	1.49900e+03	0.069054	539.5
1501	5.43274e+02	1.50100e+03	0.0690926	540.5
1503	5.44087e+02	1.50300e+03	0.0691285	541.5
1505	5.44977e+02	1.50500e+03	0.0691728	542.5
1507	5.45910e+02	1.50700e+03	0.0691989	543.5
1509	5.46862e+02	1.50900e+03	0.0692078	544.5
1511	5.47808e+02	1.51100e+03	0.0692322	545.5
1513	5.48784e+02	1.51300e+03	0.0692623	546.5
1515	5.49768e+02	1.51500e+03	0.0692837	547.5
1517	5.50754e+02	1.51700e+03	0.0692909	548.5
1519	5.51730e+02	1.51900e+03	0.0692848	549.5
1521	5.52701e+02	1.52100e+03	0.0692471	550.5
1523	5.53698e+02	1.52300e+03	0.0692099	551.5
1525	5.54675e+02	1.52500e+03	0.0691767	552.5
1527	5.55667e+02	1.52700e+03	0.0691693	553.5
1529	5.56668e+02	1.52900e+03	0.0691945	554.5
1531	5.57653e+02	1.53100e+03	0.0692081	555.5
1533	5.58627e+02	1.53300e+03	0.0692295	556.5
1535	5.59589e+02	1.53500e+03	0.0692492	557.5
1537	5.60560e+02	1.53700e+03	0.0692435	558.5
1539	5.61540e+02	1.53900e+03	0.0692108	559.5
1541	5.62508e+02	1.54100e+03	0.0691436	560.5
1543	5.63490e+02	1.54300e+03	0.0690954	561.5
1545	5.64468e+02	1.54500e+03	0.0690569	562.5
1547	5.65432e+02	1.54700e+03	0.0690253	563.5
1549	5.66415e+02	1.54900e+03	0.0690087	564.5
1551	5.67387e+02	1.55100e+03	0.0689851	565.5
1553	5.68370e+02	1.55300e+03	0.0689482	566.5
1555	5.69343e+02	1.55500e+03	0.0689014	567.5
1557	5.70352e+02	1.55700e+03	0.0688503	568.5
1559	5.71367e+02	1.55900e+03	0.0688263	569.5
1561	5.72367e+02	1.56100e+03	0.0688194	570.5
1563	5.73380e+02	1.56300e+03	0.068801	571.5
1565	5.74394e+02	1.56500e+03	0.0687821	572.5
1567	5.75429e+02	1.56700e+03	0.0687684	573.5
1569	5.76472e+02	1.56900e+03	0.0687664	574.5
1571	5.77596e+02	1.57100e+03	0.0687709	575.5
1573	5.78686e+02	1.57300e+03	0.0687992	576.5
1575	5.79715e+02	1.57500e+03	0.0688261	577.5
1577	5.80734e+02	1.57700e+03	0.0688521	578.5
1579	5.81820e+02	1.57900e+03	0.0688612	579.5
1581	5.82773e+02	1.58100e+03	0.0688369	580.5
1583	5.83716e+02	1.58300e+03	0.0688089	581.5
1585	5.84683e+02	1.58500e+03	0.068764	582.5
1587	5.85675e+02	1.58700e+03	0.0687331	583.5
1589	5.86653e+02	1.58900e+03	0.0687117	584.5
1591	5.87649e+02	1.59100e+03	0.0686959	585.5
1593	5.88618e+02	1.59300e+03	0.0686904	586.5
1595	5.89557e+02	1.59500e+03	0.0686768	587.5
1597	5.90530e+02	1.59700e+03	0.06865	588.5
1599	5.91468e+02	1.59900e+03	0.0686078	589.5
1601	5.92502e+02	1.60100e+03	0.0685452	590.5
1603	5.93451e+02	1.60300e+03	0.068493	591.5
1605	5.94401e+02	1.60500e+03	0.0684578	592.5
1607	5.95388e+02	1.60700e+03	0.0684485	593.5
1609	5.96365e+02	1.60900e+03	0.0685032	594.5
1611	5.97325e+02	1.61100e+03	0.0685673	595.5
1613	5.98295e+02	1.61300e+03	0.0686536	596.5
1615	5.99261e+02	1.61500e+03	0.0687115	597.5
1617	6.00275e+02	1.61700e+03	0.0687599	598.5
1619	6.01296e+02	1.61900e+03	0.0688335	599.5
1621	6.02705e+02	1.62100e+03	0.0689165	600.5
1623	6.03821e+02	1.62300e+03	0.0689775	601.5
1625	6.05238e+02	1.62500e+03	0.068997	602.5
1627	6.06177e+02	1.62700e+03	0.0689931	603.5
1629	6.07107e+02	1.62900e+03	0.0689076	604.5
1631	6.08064e+02	1.63100e+03	0.0688143	605.5
1633	6.09031e+02	1.63300e+03	0.0687077	606.5
1635	6.09975e+02	1.63500e+03	0.0686326	607.5
1637	6.10917e+02	1.63700e+03	0.0685684	608.5
1639	6.11875e+02	1.63900e+03	0.0684763	609.5
1641	6.12845e+02	1.64100e+03	0.0683888	610.5
1643	6.13803e+02	1.64300e+03	0.0683477	611.5
1645	6.14758e+02	1.64500e+03	0.0683864	612.5
1647	6.15745e+02	1.64700e+03	0.0684358	613.5
1649	6.16757e+02	1.64900e+03	0.0685556	614.5
1651	6.17759e+02	1.65100e+03	0.0686758	615.5
1653	6.18783e+02	1.65300e+03	0.0688026	616.5
1655	6.19820e+02	1.65500e+03	0.0688815	617.5
1657	6.20830e+02	1.65700e+03	0.0688683	618.5
1659	6.21836e+02	1.65900e+03	0.0688262	619.5
1661	6.22863e+02	1.66100e+03	0.068702	620.5
1663	6.23900e+02	1.66300e+03	0.068606	621.5
1665	6.24971e+02	1.66500e+03	0.0685481	622.5
1667	6.25941e+02	1.66700e+03	0.0685468	623.5
1669	6.26932e+02	1.66900e+03	0.0686386	624.5
1671	6.27939e+02	1.67100e+03	0.0687002	625.5
1673	6.28909e+02	1.67300e+03	0.0687185	626.5
1675	6.29868e+02	1.67500e+03	0.0686825	627.5
1677	6.30868e+02	1.67700e+03	0.0685546	628.5
1679	6.31874e+02	1.67900e+03	0.0684603	629.5
1681	6.32831e+02	1.68100e+03	0.0683909	630.5
1683	6.33801e+02	1.68300e+03	0.0683535	631.5
1685	6.34774e+02	1.68500e+03	0.0683809	632.5
1687	6.35717e+02	1.68700e+03	0.0684105	633.5
1689	6.36681e+02	1.68900e+03	0.0684752	634.5
1691	6.37636e+02	1.69100e+03	0.0685273	635.5
1693	6.38602e+02	1.69300e+03	0.0685565	636.5
1695	6.39561e+02	1.69500e+03	0.0685597	637.5
1697	6.40528e+02	1.69700e+03	0.0684868	638.5
1699	6.41497e+02	1.69900e+03	0.0684107	639.5
1701	6.42460e+02	1.70100e+03	0.0683252	640.5
1703	6.43423e+02	1.70300e+03	0.0682827	641.5
1705	6.44386e+02	1.70500e+03	0.0682812	642.5
1707	6.45365e+02	1.70700e+03	0.0682414	643.5
1709	6.46342e+02	1.70900e+03	0.0681855	644.5
1711	6.47320e+02	1.71100e+03	0.0681413	645.5
1713	6.48325e+02	1.71300e+03	0.0681066	646.5
1715	6.49315e+02	1.71500e+03	0.0680918	647.5
1717	6.50305e+02	1.71700e+03	0.0681262	648.5
1719	6.51295e+02	1.71900e+03	0.0681684	649.5
1721	6.52275e+02	1.72100e+03	0.0682171	650.5
1723	6.53261e+02	1.72300e+03	0.0682258	651.5
1725	6.54258e+02	1.72500e+03	0.06821	652.5
1727	6.55243e+02	1.72700e+03	0.0682067	653.5
1729	6.56238e+02	1.72900e+03	0.068194	654.5
1731	6.57208e+02	1.73100e+03	0.0681682	655.5
1733	6.58200e+02	1.73300e+03	0.0681381	656.5
1735	6.59183e+02	1.73500e+03	0.0681231	657.5
1737	6.60178e+02	1.73700e+03	0.0680943	658.5
1739	6.61165e+02	1.73900e+03	0.0680286	659.5
1741	6.62149e+02	1.74100e+03	0.0679084	660.5
1743	6.63161e+02	1.74300e+03	0.0678103	661.5
1745	6.64128e+02	1.74500e+03	0.0677441	662.5
1747	6.65119e+02	1.74700e+03	0.0677215	663.5
1749	6.66102e+02	1.74900e+03	0.0677976	664.5
1751	6.67092e+02	1.75100e+03	0.0678804	665.5
1753	6.68058e+02	1.75300e+03	0.0679959	666.5
1755	6.69041e+02	1.75500e+03	0.0680758	667.5
1757	6.70007e+02	1.75700e+03	0.068103	668.5
1759	6.70975e+02	1.75900e+03	0.0681128	669.5
1761	6.71949e+02	1.76100e+03	0.0680819	670.5
1763	6.72929e+02	1.76300e+03	0.0680632	671.5
1765	6.73918e+02	1.76500e+03	0.0680269	672.5
1767	6.74896e+02	1.76700e+03	0.0679784	673.5
1769	6.75893e+02	1.76900e+03	0.0679348	674.5
1771	6.76866e+02	1.77100e+03	0.0679218	675.5
1773	6.77851e+02	1.77300e+03	0.0679482	676.5
1775	6.78826e+02	1.77500e+03	0.0679715	677.5
1777	6.79811e+02	1.77700e+03	0.0680079	678.5
1779	6.80802e+02	1.77900e+03	0.068034	679.5
1781	6.81795e+02	1.78100e+03	0.0680386	680.5
1783	6.82791e+02	1.78300e+03	0.0680351	681.5
1785	6.83776e+02	1.78500e+03	0.068022	682.5
1787	6.84760e+02	1.78700e+03	0.0680209	683.5
1789	6.85750e+02	1.78900e+03	0.0680211	684.5
1791	6.86733e+02	1.79100e+03	0.0680186	685.5
1793	6.87718e+02	1.79300e+03	0.0680247	686.5
1795	6.88432e+02	1.79500e+03	0.0680533	687.5
1797	6.88928e+02	1.79700e+03	0.0681061	688.5
1799	6.89640e+02	1.79900e+03	0.0681378	689.5
1801	6.90336e+02	1.80100e+03	0.0681774	690.5
1803	6.90986e+02	1.80300e+03	0.0682049	691.5
1805	6.91593e+02	1.80500e+03	0.0682027	692.5
1807	6.92164e+02	1.80700e+03	0.0681669	693.5
1809	6.92707e+02	1.80900e+03	0.0680946	694.5
1811	6.93199e+02	1.81100e+03	0.0680568	695.5
1813	6.93674e+02	1.81300e+03	0.0680445	696.5
1815	6.94102e+02	1.81500e+03	0.068039	697.5
1817	6.94522e+02	1.81700e+03	0.0680619	698.5
1819	6.94934e+02	1.81900e+03	0.0680976	699.5
1821	6.95316e+02	1.82100e+03	0.0681408	700.0
1823	6.95675e+02	1.82300e+03	0.068159	700.0
1825	6.96030e+02	1.82500e+03	0.0681533	700.0
1827	6.96348e+02	1.82700e+03	0.0681588	700.0
1829	6.96638e+02	1.82900e+03	0.0681594	700.0
1831	6.96912e+02	1.83100e+03	0.0681613	700.0
1833	6.97157e+02	1.83300e+03	0.0681563	700.0
1835	6.97410e+02	1.83500e+03	0.0681383	700.0
1837	6.97638e+02	1.83700e+03	0.0681054	700.0
1839	6.97854e+02	1.83900e+03	0.0680763	700.0
1841	6.98059e+02	1.84100e+03	0.0680464	700.0
1843	6.98242e+02	1.84300e+03	0.0680237	700.0
1845	6.98423e+02	1.84500e+03	0.0680247	700.0
1847	6.98572e+02	1.84700e+03	0.0680374	700.0
1849	6.98712e+02	1.84900e+03	0.0680831	700.0
1851	6.98864e+02	1.85100e+03	0.0681167	700.0
1853	6.98993e+02	1.85300e+03	0.0681429	700.0
1855	6.99137e+02	1.85500e+03	0.0681581	700.0
1857	6.99259e+02	1.85700e+03	0.0681349	700.0
1859	6.99379e+02	1.85900e+03	0.0681068	700.0
1861	6.99486e+02	1.86100e+03	0.0680652	700.0
1863	6.99599e+02	1.86300e+03	0.0680435	700.0
1865	6.99687e+02	1.86500e+03	0.0680249	700.0
1867	6.99793e+02	1.86700e+03	0.0679961	700.0
1869	6.99878e+02	1.86900e+03	0.0679567	700.0
1871	6.99964e+02	1.87100e+03	0.0679165	700.0
1873	7.00042e+02	1.87300e+03	0.0678629	700.0
1875	7.00114e+02	1.87500e+03	0.0678015	700.0
1877	7.00180e+02	1.87700e+03	0.0677522	700.0
1879	7.00243e+02	1.87900e+03	0.0677459	700.0
1881	7.00307e+02	1.88100e+03	0.0677968	700.0
1883	7.00357e+02	1.88300e+03	0.0678425	700.0
1885	7.00405e+02	1.88500e+03	0.0679173	700.0
1887	7.00448e+02	1.88700e+03	0.0679805	700.0
1889	7.00509e+02	1.88900e+03	0.0680303	700.0
1891	7.00551e+02	1.89100e+03	0.0680699	700.0
1893	7.00607e+02	1.89300e+03	0.068101	700.0
1895	7.00647e+02	1.89500e+03	0.0681353	700.0
1897	7.00690e+02	1.89700e+03	0.0681655	700.0
1899	7.00739e+02	1.89900e+03	0.0681853	700.0
1901	7.00764e+02	1.90100e+03	0.0681885	700.0
1903	7.00803e+02	1.90300e+03	0.0681894	700.0
1905	7.00841e+02	1.90500e+03	0.068155	700.0
1907	7.00869e+02	1.90700e+03	0.0680977	700.0
1909	7.00906e+02	1.90900e+03	0.0680214	700.0
1911	7.00932e+02	1.91100e+03	0.0679841	700.0
1913	7.00962e+02	1.91300e+03	0.0679772	700.0
1915	7.00979e+02	1.91500e+03	0.0679645	700.0
1917	7.01007e+02	1.91700e+03	0.0679392	700.0
1919	7.01029e+02	1.91900e+03	0.0678967	700.0
1921	7.01058e+02	1.92100e+03	0.0678345	700.0
1923	7.01069e+02	1.92300e+03	0.0678036	700.0
1925	7.01091e+02	1.92500e+03	0.0677989	700.0
1927	7.01101e+02	1.92700e+03	0.0678007	700.0
1929	7.01121e+02	1.92900e+03	0.0678476	700.0
1931	7.01129e+02	1.93100e+03	0.0679034	700.0
1933	7.01138e+02	1.93300e+03	0.067982	700.0
1935	7.01156e+02	1.93500e+03	0.0680503	700.0
1937	7.01166e+02	1.93700e+03	0.0681083	700.0
1939	7.01176e+02	1.93900e+03	0.0681534	700.0
1941	7.01191e+02	1.94100e+03	0.0681635	700.0
1943	7.01210e+02	1.94300e+03	0.0681499	700.0
1945	7.01221e+02	1.94500e+03	0.0681046	700.0
1947	7.01228e+02	1.94700e+03	0.0680876	700.0
1949	7.01236e+02	1.94900e+03	0.0680843	700.0
1951	7.01249e+02	1.95100e+03	0.0680832	700.0
1953	7.01255e+02	1.95300e+03	0.0680946	700.0
1955	7.01267e+02	1.95500e+03	0.0681034	700.0
1957	7.01267e+02	1.95700e+03	0.0681153	700.0
1959	7.01278e+02	1.95900e+03	0.068116	700.0
1961	7.01273e+02	1.96100e+03	0.0681193	700.0
1963	7.01280e+02	1.96300e+03	0.0681292	700.0
1965	7.01300e+02	1.96500e+03	0.0681423	700.0
1967	7.01297e+02	1.96700e+03	0.0681451	700.0
1969	7.01304e+02	1.96900e+03	0.0681322	700.0
1971	7.01305e+02	1.97100e+03	0.0681111	700.0
1973	7.01315e+02	1.97300e+03	0.0680733	700.0
1975	7.01317e+02	1.97500e+03	0.0680437	700.0
1977	7.01324e+02	1.97700e+03	0.0680179	700.0
1979	7.01332e+02	1.97900e+03	0.0679937	700.0
1981	7.01340e+02	1.98100e+03	0.0679751	700.0
1983	7.01346e+02	1.98300e+03	0.067955	700.0
1985	7.01343e+02	1.98500e+03	0.0679304	700.0
1987	7.01357e+02	1.98700e+03	0.0679003	700.0
1989	7.01345e+02	1.98900e+03	0.0678647	700.0
1991	7.01352e+02	1.99100e+03	0.0678371	700.0
1993	7.01361e+02	1.99300e+03	0.0678345	700.0
1995	7.01355e+02	1.99500e+03	0.0678453	700.0
1997	7.01361e+02	1.99700e+03	0.0678913	700.0
1999	7.01369e+02	1.99900e+03	0.0679273	700.0
2001	7.01375e+02	2.00100e+03	0.0679632	700.0
2003	7.01367e+02	2.00300e+03	0.0679854	700.0
2005	7.01366e+02	2.00500e+03	0.0679875	700.0
2007	7.01367e+02	2.00700e+03	0.0679896	700.0
2009	7.01374e+02	2.00900e+03	0.0679791	700.0
2011	7.01370e+02	2.01100e+03	0.0679723	700.0
2013	7.01377e+02	2.01300e+03	0.0679806	700.0
2015	7.01375e+02	2.01500e+03	0.0679958	700.0
2017	7.01372e+02	2.01700e+03	0.0680237	700.0
2019	7.01392e+02	2.01900e+03	0.0680359	700.0
2021	7.01388e+02	2.02100e+03	0.0680422	700.0
2023	7.01387e+02	2.02300e+03	0.0680477	700.0
2025	7.01387e+02	2.02500e+03	0.0680389	700.0
2027	7.01392e+02	2.02700e+03	0.0680191	700.0
2029	7.01390e+02	2.02900e+03	0.067987	700.0
2031	7.01388e+02	2.03100e+03	0.0679769	700.0
2033	7.01393e+02	2.03300e+03	0.0679811	700.0
2035	7.01381e+02	2.03500e+03	0.0679839	700.0
2037	7.01376e+02	2.03700e+03	0.0679953	700.0
2039	7.01383e+02	2.03900e+03	0.068015	700.0
2041	7.01381e+02	2.04100e+03	0.0680352	700.0
2043	7.01383e+02	2.04300e+03	0.0680478	700.0
2045	7.01373e+02	2.04500e+03	0.0680547	700.0
2047	7.01380e+02	2.04700e+03	0.0680681	700.0
2049	7.01381e+02	2.04900e+03	0.0680621	700.0
2051	7.01380e+02	2.05100e+03	0.0680444	700.0
2053	7.01372e+02	2.05300e+03	0.0680258	700.0
2055	7.01375e+02	2.05500e+03	0.0680292	700.0
2057	7.01375e+02	2.05700e+03	0.0680501	700.0
2059	7.01379e+02	2.05900e+03	0.0680501	700.0
2061	7.01372e+02	2.06100e+03	0.0680417	700.0
2063	7.01367e+02	2.06300e+03	0.0680408	700.0
2065	7.01376e+02	2.06500e+03	0.0680416	700.0
2067	7.01369e+02	2.06700e+03	0.0680453	700.0
2069	7.01375e+02	2.06900e+03	0.0680496	700.0
2071	7.01362e+02	2.07100e+03	0.0680387	700.0
2073	7.01359e+02	2.07300e+03	0.0680039	700.0
2075	7.01360e+02	2.07500e+03	0.0679668	700.0
2077	7.01358e+02	2.07700e+03	0.0679123	700.0
2079	7.01353e+02	2.07900e+03	0.0678679	700.0
2081	7.01349e+02	2.08100e+03	0.0678433	700.0
2083	7.01349e+02	2.08300e+03	0.0678343	700.0
2085	7.01346e+02	2.08500e+03	0.0678621	700.0
2087	7.01346e+02	2.08700e+03	0.0678897	700.0
2089	7.01341e+02	2.08900e+03	0.0679311	700.0
2091	7.01344e+02	2.09100e+03	0.0679622	700.0
2093	7.01336e+02	2.09300e+03	0.0679812	700.0
2095	7.01345e+02	2.09500e+03	0.0679964	700.0
2097	7.01334e+02	2.09700e+03	0.0680092	700.0
2099	7.01340e+02	2.09900e+03	0.0680338	700.0
2101	7.01335e+02	2.10100e+03	0.0680636	700.0
2103	7.01326e+02	2.10300e+03	0.068072	700.0
2105	7.01332e+02	2.10500e+03	0.068043	700.0
2107	7.01326e+02	2.10700e+03	0.0680036	700.0
2109	7.01329e+02	2.10900e+03	0.0679276	700.0
2111	7.01325e+02	2.11100e+03	0.0678687	700.0
2113	7.01318e+02	2.11300e+03	0.0678239	700.0
2115	7.01322e+02	2.11500e+03	0.0677956	700.0
2117	7.01325e+02	2.11700e+03	0.0677961	700.0
2119	7.01323e+02	2.11900e+03	0.067789	700.0
2121	7.01312e+02	2.12100e+03	0.0677823	700.0
2123	7.01306e+02	2.12300e+03	0.0677701	700.0
2125	7.01317e+02	2.12500e+03	0.0677499	700.0
2127	7.01310e+02	2.12700e+03	0.0677281	700.0
2129	7.01304e+02	2.12900e+03	0.0676947	700.0
2131	7.01305e+02	2.13100e+03	0.0676624	700.0
2133	7.01302e+02	2.13300e+03	0.0676365	700.0
2135	7.01288e+02	2.13500e+03	0.0676268	700.0
2137	7.01290e+02	2.13700e+03	0.0676643	700.0
2139	7.01291e+02	2.13900e+03	0.0677179	700.0
2141	7.01287e+02	2.14100e+03	0.0678	700.0
2143	7.01280e+02	2.14300e+03	0.0678521	700.0
2145	7.01275e+02	2.14500e+03	0.0678625	700.0
2147	7.01269e+02	2.14700e+03	0.067848	700.0
2149	7.01277e+02	2.14900e+03	0.0677765	700.0
2151	7.01266e+02	2.15100e+03	0.0677065	700.0
2153	7.01260e+02	2.15300e+03	0.0676395	700.0
2155	7.01267e+02	2.15500e+03	0.0676078	700.0
2157	7.01253e+02	2.15700e+03	0.0676141	700.0
2159	7.01257e+02	2.15900e+03	0.0676184	700.0
2161	7.01256e+02	2.16100e+03	0.0676514	700.0
2163	7.01250e+02	2.16300e+03	0.0677029	700.0
2165	7.01243e+02	2.16500e+03	0.067786	700.0
2167	7.01246e+02	2.16700e+03	0.0678579	700.0
2169	7.01246e+02	2.16900e+03	0.0679232	700.0
2171	7.01238e+02	2.17100e+03	0.0679649	700.0
2173	7.01241e+02	2.17300e+03	0.0679627	700.0
2175	7.01236e+02	2.17500e+03	0.0679568	700.0
2177	7.01237e+02	2.17700e+03	0.0679194	700.0
2179	7.01236e+02	2.17900e+03	0.0678858	700.0
2181	7.01234e+02	2.18100e+03	0.0678573	700.0
2183	7.01228e+02	2.18300e+03	0.0678374	700.0
2185	7.01224e+02	2.18500e+03	0.0678334	700.0
2187	7.01226e+02	2.18700e+03	0.0678222	700.0
2189	7.01214e+02	2.18900e+03	0.0678283	700.0
2191	7.01223e+02	2.19100e+03	0.0678422	700.0
2193	7.01214e+02	2.19300e+03	0.0678695	700.0
2195	7.01204e+02	2.19500e+03	0.0678845	700.0
2197	7.01219e+02	2.19700e+03	0.0678891	700.0
2199	7.01204e+02	2.19900e+03	0.067894	700.0
2201	7.01211e+02	2.20100e+03	0.067895	700.0
2203	7.01210e+02	2.20300e+03	0.0679093	700.0
2205	7.01214e+02	2.20500e+03	0.0679337	700.0
2207	7.01199e+02	2.20700e+03	0.0679555	700.0
2209	7.01196e+02	2.20900e+03	0.0679775	700.0
2211	7.01195e+02	2.21100e+03	0.0679908	700.0
2213	7.01188e+02	2.21300e+03	0.0680053	700.0
2215	7.01196e+02	2.21500e+03	0.0680221	700.0
2217	7.01187e+02	2.21700e+03	0.0680349	700.0
2219	7.01180e+02	2.21900e+03	0.0680356	700.0
2221	7.01183e+02	2.22100e+03	0.0680239	700.0
2223	7.01172e+02	2.22300e+03	0.0680319	700.0
2225	7.01178e+02	2.22500e+03	0.06805	700.0
2227	7.01162e+02	2.22700e+03	0.0680572	700.0
2229	7.01170e+02	2.22900e+03	0.0680428	700.0
2231	7.01165e+02	2.23100e+03	0.0680189	700.0
2233	7.01162e+02	2.23300e+03	0.0679742	700.0
2235	7.01160e+02	2.23500e+03	0.0679572	700.0
2237	7.01151e+02	2.23700e+03	0.0679554	700.0
2239	7.01159e+02	2.23900e+03	0.0679448	700.0
2241	7.01161e+02	2.24100e+03	0.0679268	700.0
2243	7.01150e+02	2.24300e+03	0.0679009	700.0
2245	7.01152e+02	2.24500e+03	0.0678646	700.0
2247	7.01148e+02	2.24700e+03	0.0678471	700.0
2249	7.01142e+02	2.24900e+03	0.06784	700.0
2251	7.01141e+02	2.25100e+03	0.0678303	700.0
2253	7.01144e+02	2.25300e+03	0.0678236	700.0
2255	7.01140e+02	2.25500e+03	0.0678108	700.0
2257	7.01132e+02	2.25700e+03	0.0677903	700.0
2259	7.01131e+02	2.25900e+03	0.0677706	700.0
2261	7.01126e+02	2.26100e+03	0.0677537	700.0
2263	7.01131e+02	2.26300e+03	0.0677444	700.0
2265	7.01131e+02	2.26500e+03	0.0677508	700.0
2267	7.01121e+02	2.26700e+03	0.0677584	700.0
2269	7.01125e+02	2.26900e+03	0.0677686	700.0
2271	7.01123e+02	2.27100e+03	0.06777	700.0
2273	7.01120e+02	2.27300e+03	0.0677636	700.0
2275	7.01111e+02	2.27500e+03	0.0677504	700.0
2277	7.01107e+02	2.27700e+03	0.0677222	700.0
2279	7.01110e+02	2.27900e+03	0.0676902	700.0
2281	7.01116e+02	2.28100e+03	0.0676696	700.0
2283	7.01105e+02	2.28300e+03	0.0676686	700.0
2285	7.01105e+02	2.28500e+03	0.0676979	700.0
2287	7.01102e+02	2.28700e+03	0.0677191	700.0
2289	7.01100e+02	2.28900e+03	0.0677401	700.0
2291	7.01095e+02	2.29100e+03	0.0677526	700.0
2293	7.01086e+02	2.29300e+03	0.0677432	700.0
2295	7.01094e+02	2.29500e+03	0.0677174	700.0
2297	7.01101e+02	2.29700e+03	0.0676741	700.0
2299	7.01090e+02	2.29900e+03	0.0676442	700.0
2301	7.01099e+02	2.30100e+03	0.0676293	700.0
2303	7.01088e+02	2.30300e+03	0.0676246	700.0
2305	7.01087e+02	2.30500e+03	0.0676594	700.0
2307	7.01086e+02	2.30700e+03	0.0677104	700.0
2309	7.01080e+02	2.30900e+03	0.0677751	700.0
2311	7.01082e+02	2.31100e+03	0.0678113	700.0
2313	7.01075e+02	2.31300e+03	0.0678072	700.0
2315	7.01068e+02	2.31500e+03	0.0678034	700.0
2317	7.01070e+02	2.31700e+03	0.0677672	700.0
2319	7.01061e+02	2.31900e+03	0.0677271	700.0
2321	7.01057e+02	2.32100e+03	0.0676839	700.0
2323	7.01067e+02	2.32300e+03	0.0676478	700.0
2325	7.01062e+02	2.32500e+03	0.0676248	700.0
2327	7.01057e+02	2.32700e+03	0.0676128	700.0
2329	7.01050e+02	2.32900e+03	0.0676219	700.0
2331	7.01059e+02	2.33100e+03	0.0676244	700.0
2333	7.01044e+02	2.33300e+03	0.0676307	700.0
2335	7.01050e+02	2.33500e+03	0.0676253	700.0
2337	7.01050e+02	2.33700e+03	0.0676041	700.0
2339	7.01043e+02	2.33900e+03	0.0675905	700.0
2341	7.01039e+02	2.34100e+03	0.0675816	700.0
2343	7.01038e+02	2.34300e+03	0.0675797	700.0
2345	7.01034e+02	2.34500e+03	0.0675876	700.0
2347	7.01037e+02	2.34700e+03	0.067595	700.0
2349	7.01035e+02	2.34900e+03	0.067601	700.0
2351	7.01030e+02	2.35100e+03	0.0676012	700.0
2353	7.01037e+02	2.35300e+03	0.0675899	700.0
2355	7.01032e+02	2.35500e+03	0.0675703	700.0
2357	7.01039e+02	2.35700e+03	0.0675547	700.0
2359	7.01026e+02	2.35900e+03	0.0675626	700.0
2361	7.01022e+02	2.36100e+03	0.0676089	700.0
2363	7.01019e+02	2.36300e+03	0.0676486	700.0
2365	7.01013e+02	2.36500e+03	0.0676874	700.0
2367	7.01021e+02	2.36700e+03	0.0677123	700.0
2369	7.01015e+02	2.36900e+03	0.0677189	700.0
2371	7.01022e+02	2.37100e+03	0.0677283	700.0
2373	7.01011e+02	2.37300e+03	0.0677274	700.0
2375	7.01015e+02	2.37500e+03	0.0677297	700.0
2377	7.01013e+02	2.37700e+03	0.0677153	700.0
2379	7.00997e+02	2.37900e+03	0.0676958	700.0
2381	7.01005e+02	2.38100e+03	0.0676673	700.0
2383	7.01008e+02	2.38300e+03	0.0676403	700.0
2385	7.01001e+02	2.38500e+03	0.0676041	700.0
2387	7.00998e+02	2.38700e+03	0.0675731	700.0
2389	7.01000e+02	2.38900e+03	0.0675445	700.0
2391	7.01004e+02	2.39100e+03	0.0675165	700.0
2393	7.00990e+02	2.39300e+03	0.0674892	700.0
2395	7.00992e+02	2.39500e+03	0.0674543	700.0
2397	7.00990e+02	2.39700e+03	0.0674148	700.0
2399	7.00992e+02	2.39900e+03	0.0673963	700.0
2401	7.00989e+02	2.40100e+03	0.067407	700.0
2403	7.00993e+02	2.40300e+03	0.0674296	700.0
2405	7.00991e+02	2.40500e+03	0.0674825	700.0
2407	7.00997e+02	2.40700e+03	0.0675191	700.0
2409	7.00985e+02	2.40900e+03	0.0675399	700.0
2411	7.00993e+02	2.41100e+03	0.0675563	700.0
2413	7.00983e+02	2.41300e+03	0.0675755	700.0
2415	7.00979e+02	2.41500e+03	0.0676253	700.0
2417	7.00987e+02	2.41700e+03	0.067687	700.0
2419	7.00979e+02	2.41900e+03	0.0677032	700.0
2421	7.00975e+02	2.42100e+03	0.0676238	700.0
2423	7.00968e+02	2.42300e+03	0.0675048	700.0
2425	7.00971e+02	2.42500e+03	0.0673071	700.0
2427	7.00975e+02	2.42700e+03	0.0671707	700.0
2429	7.00973e+02	2.42900e+03	0.0671248	700.0
2431	7.00963e+02	2.43100e+03	0.0671271	700.0
2433	7.00960e+02	2.43300e+03	0.0672399	700.0
2435	7.00959e+02	2.43500e+03	0.0673274	700.0
2437	7.00956e+02	2.43700e+03	0.0674217	700.0
2439	7.00960e+02	2.43900e+03	0.0674908	700.0
2441	7.00955e+02	2.44100e+03	0.0675188	700.0
2443	7.00955e+02	2.44300e+03	0.0675399	700.0
2445	7.00955e+02	2.44500e+03	0.0675433	700.0
2447	7.00949e+02	2.44700e+03	0.0675731	700.0
2449	7.00949e+02	2.44900e+03	0.0676234	700.0
2451	7.00960e+02	2.45100e+03	0.0676606	700.0
2453	7.00949e+02	2.45300e+03	0.0676802	700.0
2455	7.00952e+02	2.45500e+03	0.0676759	700.0
2457	7.00943e+02	2.45700e+03	0.0676303	700.0
2459	7.00944e+02	2.45900e+03	0.0675812	700.0
2461	7.00944e+02	2.46100e+03	0.0675162	700.0
2463	7.00951e+02	2.46300e+03	0.0674584	700.0
2465	7.00956e+02	2.46500e+03	0.0674186	700.0
2467	7.00948e+02	2.46700e+03	0.067397	700.0
2469	7.00952e+02	2.46900e+03	0.0674095	700.0
2471	7.00945e+02	2.47100e+03	0.0674205	700.0
2473	7.00943e+02	2.47300e+03	0.0674458	700.0
2475	7.00943e+02	2.47500e+03	0.0674583	700.0
2477	7.00943e+02	2.47700e+03	0.0674724	700.0
2479	7.00940e+02	2.47900e+03	0.0674947	700.0
2481	7.00939e+02	2.48100e+03	0.0675103	700.0
2483	7.00936e+02	2.48300e+03	0.0675167	700.0
2485	7.00936e+02	2.48500e+03	0.0675105	700.0
2487	7.00935e+02	2.48700e+03	0.067512	700.0
2489	7.00938e+02	2.48900e+03	0.0675078	700.0
2491	7.00935e+02	2.49100e+03	0.0675054	700.0
2493	7.00933e+02	2.49300e+03	0.0675052	700.0
2495	7.00921e+02	2.49500e+03	0.0675127	700.0
2497	7.00928e+02	2.49700e+03	0.0675213	700.0
2499	7.00924e+02	2.49900e+03	0.0675254	700.0
2501	7.00923e+02	2.50100e+03	0.0675204	700.0
2503	7.00932e+02	2.50300e+03	0.0675183	700.0
2505	7.00917e+02	2.50500e+03	0.0675176	700.0
2507	7.00936e+02	2.50700e+03	0.0675118	700.0
2509	7.00919e+02	2.50900e+03	0.067497	700.0
2511	7.00926e+02	2.51100e+03	0.0674834	700.0
2513	7.00922e+02	2.51300e+03	0.0674708	700.0
2515	7.00917e+02	2.51500e+03	0.0674707	700.0
2517	7.00918e+02	2.51700e+03	0.0674886	700.0
2519	7.00918e+02	2.51900e+03	0.0675037	700.0
2521	7.00913e+02	2.52100e+03	0.067526	700.0
2523	7.00903e+02	2.52300e+03	0.0675395	700.0
2525	7.00914e+02	2.52500e+03	0.0675474	700.0
2527	7.00903e+02	2.52700e+03	0.0675533	700.0
2529	7.00914e+02	2.52900e+03	0.0675657	700.0
2531	7.00901e+02	2.53100e+03	0.0675909	700.0
2533	7.00906e+02	2.53300e+03	0.067625	700.0
2535	7.00902e+02	2.53500e+03	0.0676399	700.0
2537	7.00890e+02	2.53700e+03	0.0676313	700.0
2539	7.00896e+02	2.53900e+03	0.067623	700.0
2541	7.00895e+02	2.54100e+03	0.067592	700.0
2543	7.00898e+02	2.54300e+03	0.0675514	700.0
2545	7.00890e+02	2.54500e+03	0.067498	700.0
2547	7.00897e+02	2.54700e+03	0.0674523	700.0
2549	7.00895e+02	2.54900e+03	0.0674063	700.0
2551	7.00891e+02	2.55100e+03	0.0673637	700.0
2553	7.00884e+02	2.55300e+03	0.0673448	700.0
2555	7.00888e+02	2.55500e+03	0.0673523	700.0
2557	7.00891e+02	2.55700e+03	0.0673917	700.0
2559	7.00879e+02	2.55900e+03	0.0674132	700.0
2561	7.00877e+02	2.56100e+03	0.0674154	700.0
2563	7.00879e+02	2.56300e+03	0.0674059	700.0
2565	7.00877e+02	2.56500e+03	0.067377	700.0
2567	7.00876e+02	2.56700e+03	0.0673603	700.0
2569	7.00870e+02	2.56900e+03	0.0673484	700.0
2571	7.00878e+02	2.57100e+03	0.0673339	700.0
2573	7.00876e+02	2.57300e+03	0.0673203	700.0
2575	7.00872e+02	2.57500e+03	0.0673098	700.0
2577	7.00873e+02	2.57700e+03	0.0673087	700.0
2579	7.00871e+02	2.57900e+03	0.0673122	700.0
2581	7.00863e+02	2.58100e+03	0.0673253	700.0
2583	7.00866e+02	2.58300e+03	0.0673341	700.0
2585	7.00862e+02	2.58500e+03	0.0673382	700.0
2587	7.00864e+02	2.58700e+03	0.0673487	700.0
2589	7.00863e+02	2.58900e+03	0.0673642	700.0
2591	7.00859e+02	2.59100e+03	0.0673646	700.0
2593	7.00866e+02	2.59300e+03	0.067354	700.0
2595	7.00855e+02	2.59500e+03	0.0673447	700.0
2597	7.00857e+02	2.59700e+03	0.0673234	700.0
2599	7.00856e+02	2.59900e+03	0.0673121	700.0
2601	7.00862e+02	2.60100e+03	0.0673112	700.0
2603	7.00850e+02	2.60300e+03	0.067306	700.0
2605	7.00854e+02	2.60500e+03	0.0673013	700.0
2607	7.00857e+02	2.60700e+03	0.0672979	700.0
2609	7.00854e+02	2.60900e+03	0.0672968	700.0
2611	7.00855e+02	2.61100e+03	0.0672956	700.0
2613	7.00852e+02	2.61300e+03	0.0672944	700.0
2615	7.00846e+02	2.61500e+03	0.067289	700.0
2617	7.00856e+02	2.61700e+03	0.0672716	700.0
2619	7.00851e+02	2.61900e+03	0.0672513	700.0
2621	7.00843e+02	2.62100e+03	0.067238	700.0
2623	7.00841e+02	2.62300e+03	0.0672353	700.0
2625	7.00835e+02	2.62500e+03	0.0672535	700.0
2627	7.00846e+02	2.62700e+03	0.0672655	700.0
2629	7.00836e+02	2.62900e+03	0.0672804	700.0
2631	7.00842e+02	2.63100e+03	0.0672963	700.0
2633	7.00838e+02	2.63300e+03	0.0673166	700.0
2635	7.00831e+02	2.63500e+03	0.0673375	700.0
2637	7.00843e+02	2.63700e+03	0.0673657	700.0
2639	7.00827e+02	2.63900e+03	0.0674023	700.0
2641	7.00828e+02	2.64100e+03	0.0674378	700.0
2643	7.00829e+02	2.64300e+03	0.0674653	700.0
2645	7.00838e+02	2.64500e+03	0.0674844	700.0
2647	7.00843e+02	2.64700e+03	0.0675134	700.0
2649	7.00832e+02	2.64900e+03	0.0675486	700.0
2651	7.00839e+02	2.65100e+03	0.0675766	700.0
2653	7.00825e+02	2.65300e+03	0.0675894	700.0
2655	7.00834e+02	2.65500e+03	0.0675856	700.0
2657	7.00830e+02	2.65700e+03	0.0675526	700.0
2659	7.00829e+02	2.65900e+03	0.0675196	700.0
2661	7.00830e+02	2.66100e+03	0.0674664	700.0
2663	7.00832e+02	2.66300e+03	0.0674206	700.0
2665	7.00825e+02	2.66500e+03	0.0673867	700.0
2667	7.00820e+02	2.66700e+03	0.0673592	700.0
2669	7.00824e+02	2.66900e+03	0.0673348	700.0
2671	7.00817e+02	2.67100e+03	0.0673019	700.0
2673	7.00826e+02	2.67300e+03	0.0672745	700.0
2675	7.00824e+02	2.67500e+03	0.0672559	700.0
2677	7.00822e+02	2.67700e+03	0.0672623	700.0
2679	7.00813e+02	2.67900e+03	0.0672672	700.0
2681	7.00814e+02	2.68100e+03	0.0672895	700.0
2683	7.00816e+02	2.68300e+03	0.0673222	700.0
2685	7.00821e+02	2.68500e+03	0.0673855	700.0
2687	7.00818e+02	2.68700e+03	0.0674488	700.0
2689	7.00822e+02	2.68900e+03	0.0675105	700.0
2691	7.00814e+02	2.69100e+03	0.0675466	700.0
2693	7.00818e+02	2.69300e+03	0.0675469	700.0
2695	7.00811e+02	2.69500e+03	0.0675398	700.0
2697	7.00813e+02	2.69700e+03	0.0675114	700.0
2699	7.00816e+02	2.69900e+03	0.0674993	700.0
2701	7.00814e+02	2.70100e+03	0.06749	700.0
2703	7.00815e+02	2.70300e+03	0.0674799	700.0
2705	7.00815e+02	2.70500e+03	0.0674628	700.0
2707	7.00815e+02	2.70700e+03	0.0674419	700.0
2709	7.00817e+02	2.70900e+03	0.0674088	700.0
2711	7.00819e+02	2.71100e+03	0.0673716	700.0
2713	7.00804e+02	2.71300e+03	0.0673277	700.0
2715	7.00809e+02	2.71500e+03	0.0672809	700.0
2717	7.00812e+02	2.71700e+03	0.067239	700.0
2719	7.00805e+02	2.71900e+03	0.0672079	700.0
2720	7.00805e+02	2.72000e+03	0.0671956	700.0