File: Experiments/TUBS/tga_nonisotherm/tga_dynamic_n2_dyn20_piece_3mg_r1.txt
index	ts	t	weight	tr
[#]	[°C]	[s]	[mg]	[°C]
723	1.29770e+02	7.23000e+02	3.00624e+00	1.31000e+02
725	1.30435e+02	7.25000e+02	3.00623e+00	1.31667e+02
727	1.31111e+02	7.27000e+02	3.00620e+00	1.32333e+02
729	1.31771e+02	7.29000e+02	3.00616e+00	1.33000e+02
731	1.32436e+02	7.31000e+02	3.00611e+00	1.33667e+02
733	1.33087e+02	7.33000e+02	3.00606e+00	1.34333e+02
735	1.33741e+02	7.35000e+02	3.00603e+00	1.35000e+02
737	1.34424e+02	7.37000e+02	3.00602e+00	1.35667e+02
739	1.35071e+02	7.39000e+02	3.00603e+00	1.36333e+02
741	1.35748e+02	7.41000e+02	3.00606e+00	1.37000e+02
743	1.36431e+02	7.43000e+02	3.00606e+00	1.37667e+02
745	1.37082e+02	7.45000e+02	3.00603e+00	1.38333e+02
747	1.37752e+02	7.47000e+02	3.00597e+00	1.39000e+02
749	1.38416e+02	7.49000e+02	3.00588e+00	1.39667e+02
751	1.39083e+02	7.51000e+02	3.00582e+00	1.40333e+02
753	1.39750e+02	7.53000e+02	3.00578e+00	1.41000e+02
755	1.40410e+02	7.55000e+02	3.00576e+00	1.41667e+02
757	1.41069e+02	7.57000e+02	3.00576e+00	1.42333e+02
759	1.41737e+02	7.59000e+02	3.00576e+00	1.43000e+02
761	1.42416e+02	7.61000e+02	3.00576e+00	1.43667e+02
763	1.43078e+02	7.63000e+02	3.00574e+00	1.44333e+02
765	1.43753e+02	7.65000e+02	3.00572e+00	1.45000e+02
767	1.44422e+02	7.67000e+02	3.00569e+00	1.45667e+02
769	1.45081e+02	7.69000e+02	3.00567e+00	1.46333e+02
771	1.45755e+02	7.71000e+02	3.00565e+00	1.47000e+02
773	1.46425e+02	7.73000e+02	3.00564e+00	1.47667e+02
775	1.47101e+02	7.75000e+02	3.00562e+00	1.48333e+02
777	1.47775e+02	7.77000e+02	3.00560e+00	1.49000e+02
779	1.48435e+02	7.79000e+02	3.00558e+00	1.49667e+02
781	1.49099e+02	7.81000e+02	3.00557e+00	1.50333e+02
783	1.49777e+02	7.83000e+02	3.00554e+00	1.51000e+02
785	1.50449e+02	7.85000e+02	3.00549e+00	1.51667e+02
787	1.51111e+02	7.87000e+02	3.00543e+00	1.52333e+02
789	1.51780e+02	7.89000e+02	3.00536e+00	1.53000e+02
791	1.52453e+02	7.91000e+02	3.00531e+00	1.53667e+02
793	1.53134e+02	7.93000e+02	3.00528e+00	1.54333e+02
795	1.53809e+02	7.95000e+02	3.00525e+00	1.55000e+02
797	1.54480e+02	7.97000e+02	3.00523e+00	1.55667e+02
799	1.55152e+02	7.99000e+02	3.00520e+00	1.56333e+02
801	1.55817e+02	8.01000e+02	3.00517e+00	1.57000e+02
803	1.56488e+02	8.03000e+02	3.00514e+00	1.57667e+02
805	1.57158e+02	8.05000e+02	3.00512e+00	1.58333e+02
807	1.57836e+02	8.07000e+02	3.00510e+00	1.59000e+02
809	1.58515e+02	8.09000e+02	3.00506e+00	1.59667e+02
811	1.59186e+02	8.11000e+02	3.00502e+00	1.60333e+02
813	1.59855e+02	8.13000e+02	3.00495e+00	1.61000e+02
815	1.60529e+02	8.15000e+02	3.00490e+00	1.61667e+02
817	1.61207e+02	8.17000e+02	3.00486e+00	1.62333e+02
819	1.61884e+02	8.19000e+02	3.00483e+00	1.63000e+02
821	1.62551e+02	8.21000e+02	3.00483e+00	1.63667e+02
823	1.63236e+02	8.23000e+02	3.00481e+00	1.64333e+02
825	1.63909e+02	8.25000e+02	3.00479e+00	1.65000e+02
827	1.64583e+02	8.27000e+02	3.00477e+00	1.65667e+02
829	1.65258e+02	8.29000e+02	3.00476e+00	1.66333e+02
831	1.65948e+02	8.31000e+02	3.00473e+00	1.67000e+02
833	1.66616e+02	8.33000e+02	3.00471e+00	1.67667e+02
835	1.67293e+02	8.35000e+02	3.00467e+00	1.68333e+02
837	1.67969e+02	8.37000e+02	3.00464e+00	1.69000e+02
839	1.68635e+02	8.39000e+02	3.00461e+00	1.69667e+02
841	1.69304e+02	8.41000e+02	3.00457e+00	1.70333e+02
843	1.69990e+02	8.43000e+02	3.00454e+00	1.71000e+02
845	1.70660e+02	8.45000e+02	3.00451e+00	1.71667e+02
847	1.71350e+02	8.47000e+02	3.00448e+00	1.72333e+02
849	1.72016e+02	8.49000e+02	3.00444e+00	1.73000e+02
851	1.72694e+02	8.51000e+02	3.00438e+00	1.73667e+02
853	1.73362e+02	8.53000e+02	3.00430e+00	1.74333e+02
855	1.74053e+02	8.55000e+02	3.00422e+00	1.75000e+02
857	1.74727e+02	8.57000e+02	3.00413e+00	1.75667e+02
859	1.75405e+02	8.59000e+02	3.00404e+00	1.76333e+02
861	1.76084e+02	8.61000e+02	3.00396e+00	1.77000e+02
863	1.76756e+02	8.63000e+02	3.00388e+00	1.77667e+02
865	1.77431e+02	8.65000e+02	3.00380e+00	1.78333e+02
867	1.78101e+02	8.67000e+02	3.00371e+00	1.79000e+02
869	1.78797e+02	8.69000e+02	3.00363e+00	1.79667e+02
871	1.79464e+02	8.71000e+02	3.00354e+00	1.80333e+02
873	1.80144e+02	8.73000e+02	3.00345e+00	1.81000e+02
875	1.80824e+02	8.75000e+02	3.00333e+00	1.81667e+02
877	1.81490e+02	8.77000e+02	3.00320e+00	1.82333e+02
879	1.82163e+02	8.79000e+02	3.00311e+00	1.83000e+02
881	1.82853e+02	8.81000e+02	3.00298e+00	1.83667e+02
883	1.83524e+02	8.83000e+02	3.00282e+00	1.84333e+02
885	1.84200e+02	8.85000e+02	3.00262e+00	1.85000e+02
887	1.84873e+02	8.87000e+02	3.00247e+00	1.85667e+02
889	1.85554e+02	8.89000e+02	3.00233e+00	1.86333e+02
891	1.86233e+02	8.91000e+02	3.00216e+00	1.87000e+02
893	1.86901e+02	8.93000e+02	3.00191e+00	1.87667e+02
895	1.87578e+02	8.95000e+02	3.00162e+00	1.88333e+02
897	1.88255e+02	8.97000e+02	3.00129e+00	1.89000e+02
899	1.88953e+02	8.99000e+02	3.00108e+00	1.89667e+02
901	1.89619e+02	9.01000e+02	3.00099e+00	1.90333e+02
903	1.90289e+02	9.03000e+02	3.00085e+00	1.91000e+02
905	1.90971e+02	9.05000e+02	3.00065e+00	1.91667e+02
907	1.91649e+02	9.07000e+02	3.00035e+00	1.92333e+02
909	1.92324e+02	9.09000e+02	2.99985e+00	1.93000e+02
911	1.92997e+02	9.11000e+02	2.99942e+00	1.93667e+02
913	1.93683e+02	9.13000e+02	2.99903e+00	1.94333e+02
915	1.94370e+02	9.15000e+02	2.99867e+00	1.95000e+02
917	1.95048e+02	9.17000e+02	2.99837e+00	1.95667e+02
919	1.95730e+02	9.19000e+02	2.99801e+00	1.96333e+02
921	1.96401e+02	9.21000e+02	2.99762e+00	1.97000e+02
923	1.97090e+02	9.23000e+02	2.99723e+00	1.97667e+02
925	1.97756e+02	9.25000e+02	2.99683e+00	1.98333e+02
927	1.98439e+02	9.27000e+02	2.99641e+00	1.99000e+02
929	1.99119e+02	9.29000e+02	2.99597e+00	1.99667e+02
931	1.99812e+02	9.31000e+02	2.99555e+00	2.00333e+02
933	2.00475e+02	9.33000e+02	2.99514e+00	2.01000e+02
935	2.01159e+02	9.35000e+02	2.99471e+00	2.01667e+02
937	2.01840e+02	9.37000e+02	2.99426e+00	2.02333e+02
939	2.02509e+02	9.39000e+02	2.99378e+00	2.03000e+02
941	2.03204e+02	9.41000e+02	2.99325e+00	2.03667e+02
943	2.03891e+02	9.43000e+02	2.99272e+00	2.04333e+02
945	2.04562e+02	9.45000e+02	2.99217e+00	2.05000e+02
947	2.05247e+02	9.47000e+02	2.99164e+00	2.05667e+02
949	2.05922e+02	9.49000e+02	2.99114e+00	2.06333e+02
951	2.06599e+02	9.51000e+02	2.99065e+00	2.07000e+02
953	2.07284e+02	9.53000e+02	2.99018e+00	2.07667e+02
955	2.07961e+02	9.55000e+02	2.98971e+00	2.08333e+02
957	2.08640e+02	9.57000e+02	2.98921e+00	2.09000e+02
959	2.09337e+02	9.59000e+02	2.98870e+00	2.09667e+02
961	2.10014e+02	9.61000e+02	2.98816e+00	2.10333e+02
963	2.10693e+02	9.63000e+02	2.98762e+00	2.11000e+02
965	2.11360e+02	9.65000e+02	2.98708e+00	2.11667e+02
967	2.12053e+02	9.67000e+02	2.98654e+00	2.12333e+02
969	2.12730e+02	9.69000e+02	2.98602e+00	2.13000e+02
971	2.13406e+02	9.71000e+02	2.98552e+00	2.13667e+02
973	2.14097e+02	9.73000e+02	2.98508e+00	2.14333e+02
975	2.14772e+02	9.75000e+02	2.98463e+00	2.15000e+02
977	2.15444e+02	9.77000e+02	2.98417e+00	2.15667e+02
979	2.16126e+02	9.79000e+02	2.98367e+00	2.16333e+02
981	2.16813e+02	9.81000e+02	2.98312e+00	2.17000e+02
983	2.17490e+02	9.83000e+02	2.98260e+00	2.17667e+02
985	2.18177e+02	9.85000e+02	2.98209e+00	2.18333e+02
987	2.18844e+02	9.87000e+02	2.98156e+00	2.19000e+02
989	2.19532e+02	9.89000e+02	2.98098e+00	2.19667e+02
991	2.20208e+02	9.91000e+02	2.98039e+00	2.20333e+02
993	2.20898e+02	9.93000e+02	2.97980e+00	2.21000e+02
995	2.21562e+02	9.95000e+02	2.97928e+00	2.21667e+02
997	2.22232e+02	9.97000e+02	2.97881e+00	2.22333e+02
999	2.22921e+02	9.99000e+02	2.97828e+00	2.23000e+02
1001	2.23602e+02	1.00100e+03	2.97770e+00	2.23667e+02
1003	2.24285e+02	1.00300e+03	2.97711e+00	2.24333e+02
1005	2.24957e+02	1.00500e+03	2.97647e+00	2.25000e+02
1007	2.25623e+02	1.00700e+03	2.97585e+00	2.25667e+02
1009	2.26298e+02	1.00900e+03	2.97524e+00	2.26333e+02
1011	2.26970e+02	1.01100e+03	2.97464e+00	2.27000e+02
1013	2.27643e+02	1.01300e+03	2.97406e+00	2.27667e+02
1015	2.28306e+02	1.01500e+03	2.97348e+00	2.28333e+02
1017	2.28982e+02	1.01700e+03	2.97290e+00	2.29000e+02
1019	2.29654e+02	1.01900e+03	2.97231e+00	2.29667e+02
1021	2.30309e+02	1.02100e+03	2.97169e+00	2.30333e+02
1023	2.30993e+02	1.02300e+03	2.97107e+00	2.31000e+02
1025	2.31647e+02	1.02500e+03	2.97043e+00	2.31667e+02
1027	2.32329e+02	1.02700e+03	2.96980e+00	2.32333e+02
1029	2.32995e+02	1.02900e+03	2.96916e+00	2.33000e+02
1031	2.33661e+02	1.03100e+03	2.96853e+00	2.33667e+02
1033	2.34327e+02	1.03300e+03	2.96790e+00	2.34333e+02
1035	2.35006e+02	1.03500e+03	2.96727e+00	2.35000e+02
1037	2.35669e+02	1.03700e+03	2.96663e+00	2.35667e+02
1039	2.36344e+02	1.03900e+03	2.96598e+00	2.36333e+02
1041	2.37020e+02	1.04100e+03	2.96534e+00	2.37000e+02
1043	2.37689e+02	1.04300e+03	2.96472e+00	2.37667e+02
1045	2.38379e+02	1.04500e+03	2.96411e+00	2.38333e+02
1047	2.39058e+02	1.04700e+03	2.96349e+00	2.39000e+02
1049	2.39748e+02	1.04900e+03	2.96285e+00	2.39667e+02
1051	2.40421e+02	1.05100e+03	2.96219e+00	2.40333e+02
1053	2.41116e+02	1.05300e+03	2.96149e+00	2.41000e+02
1055	2.41799e+02	1.05500e+03	2.96079e+00	2.41667e+02
1057	2.42483e+02	1.05700e+03	2.96008e+00	2.42333e+02
1059	2.43150e+02	1.05900e+03	2.95939e+00	2.43000e+02
1061	2.43853e+02	1.06100e+03	2.95872e+00	2.43667e+02
1063	2.44551e+02	1.06300e+03	2.95803e+00	2.44333e+02
1065	2.45219e+02	1.06500e+03	2.95734e+00	2.45000e+02
1067	2.45919e+02	1.06700e+03	2.95664e+00	2.45667e+02
1069	2.46604e+02	1.06900e+03	2.95594e+00	2.46333e+02
1071	2.47294e+02	1.07100e+03	2.95524e+00	2.47000e+02
1073	2.47960e+02	1.07300e+03	2.95456e+00	2.47667e+02
1075	2.48628e+02	1.07500e+03	2.95389e+00	2.48333e+02
1077	2.49299e+02	1.07700e+03	2.95321e+00	2.49000e+02
1079	2.49995e+02	1.07900e+03	2.95253e+00	2.49667e+02
1081	2.50693e+02	1.08100e+03	2.95182e+00	2.50333e+02
1083	2.51367e+02	1.08300e+03	2.95111e+00	2.51000e+02
1085	2.52020e+02	1.08500e+03	2.95039e+00	2.51667e+02
1087	2.52696e+02	1.08700e+03	2.94966e+00	2.52333e+02
1089	2.53358e+02	1.08900e+03	2.94893e+00	2.53000e+02
1091	2.54061e+02	1.09100e+03	2.94821e+00	2.53667e+02
1093	2.54730e+02	1.09300e+03	2.94749e+00	2.54333e+02
1095	2.55427e+02	1.09500e+03	2.94676e+00	2.55000e+02
1097	2.56096e+02	1.09700e+03	2.94603e+00	2.55667e+02
1099	2.56765e+02	1.09900e+03	2.94530e+00	2.56333e+02
1101	2.57444e+02	1.10100e+03	2.94456e+00	2.57000e+02
1103	2.58134e+02	1.10300e+03	2.94382e+00	2.57667e+02
1105	2.58842e+02	1.10500e+03	2.94307e+00	2.58333e+02
1107	2.59553e+02	1.10700e+03	2.94232e+00	2.59000e+02
1109	2.60226e+02	1.10900e+03	2.94156e+00	2.59667e+02
1111	2.60905e+02	1.11100e+03	2.94081e+00	2.60333e+02
1113	2.61572e+02	1.11300e+03	2.94006e+00	2.61000e+02
1115	2.62246e+02	1.11500e+03	2.93931e+00	2.61667e+02
1117	2.62942e+02	1.11700e+03	2.93854e+00	2.62333e+02
1119	2.63630e+02	1.11900e+03	2.93777e+00	2.63000e+02
1121	2.64292e+02	1.12100e+03	2.93699e+00	2.63667e+02
1123	2.65006e+02	1.12300e+03	2.93624e+00	2.64333e+02
1125	2.65691e+02	1.12500e+03	2.93551e+00	2.65000e+02
1127	2.66381e+02	1.12700e+03	2.93479e+00	2.65667e+02
1129	2.67051e+02	1.12900e+03	2.93409e+00	2.66333e+02
1131	2.67747e+02	1.13100e+03	2.93336e+00	2.67000e+02
1133	2.68445e+02	1.13300e+03	2.93260e+00	2.67667e+02
1135	2.69122e+02	1.13500e+03	2.93182e+00	2.68333e+02
1137	2.69816e+02	1.13700e+03	2.93102e+00	2.69000e+02
1139	2.70488e+02	1.13900e+03	2.93024e+00	2.69667e+02
1141	2.71192e+02	1.14100e+03	2.92946e+00	2.70333e+02
1143	2.71876e+02	1.14300e+03	2.92870e+00	2.71000e+02
1145	2.72560e+02	1.14500e+03	2.92793e+00	2.71667e+02
1147	2.73245e+02	1.14700e+03	2.92715e+00	2.72333e+02
1149	2.73931e+02	1.14900e+03	2.92633e+00	2.73000e+02
1151	2.74623e+02	1.15100e+03	2.92552e+00	2.73667e+02
1153	2.75298e+02	1.15300e+03	2.92469e+00	2.74333e+02
1155	2.75991e+02	1.15500e+03	2.92387e+00	2.75000e+02
1157	2.76663e+02	1.15700e+03	2.92304e+00	2.75667e+02
1159	2.77311e+02	1.15900e+03	2.92222e+00	2.76333e+02
1161	2.77989e+02	1.16100e+03	2.92139e+00	2.77000e+02
1163	2.78671e+02	1.16300e+03	2.92056e+00	2.77667e+02
1165	2.79324e+02	1.16500e+03	2.91974e+00	2.78333e+02
1167	2.79995e+02	1.16700e+03	2.91891e+00	2.79000e+02
1169	2.80657e+02	1.16900e+03	2.91805e+00	2.79667e+02
1171	2.81331e+02	1.17100e+03	2.91718e+00	2.80333e+02
1173	2.82000e+02	1.17300e+03	2.91628e+00	2.81000e+02
1175	2.82661e+02	1.17500e+03	2.91539e+00	2.81667e+02
1177	2.83329e+02	1.17700e+03	2.91449e+00	2.82333e+02
1179	2.83998e+02	1.17900e+03	2.91358e+00	2.83000e+02
1181	2.84672e+02	1.18100e+03	2.91266e+00	2.83667e+02
1183	2.85324e+02	1.18300e+03	2.91172e+00	2.84333e+02
1185	2.85995e+02	1.18500e+03	2.91076e+00	2.85000e+02
1187	2.86685e+02	1.18700e+03	2.90979e+00	2.85667e+02
1189	2.87358e+02	1.18900e+03	2.90880e+00	2.86333e+02
1191	2.88043e+02	1.19100e+03	2.90781e+00	2.87000e+02
1193	2.88726e+02	1.19300e+03	2.90680e+00	2.87667e+02
1195	2.89402e+02	1.19500e+03	2.90578e+00	2.88333e+02
1197	2.90108e+02	1.19700e+03	2.90472e+00	2.89000e+02
1199	2.90785e+02	1.19900e+03	2.90365e+00	2.89667e+02
1201	2.91474e+02	1.20100e+03	2.90254e+00	2.90333e+02
1203	2.92158e+02	1.20300e+03	2.90140e+00	2.91000e+02
1205	2.92850e+02	1.20500e+03	2.90023e+00	2.91667e+02
1207	2.93523e+02	1.20700e+03	2.89906e+00	2.92333e+02
1209	2.94218e+02	1.20900e+03	2.89786e+00	2.93000e+02
1211	2.94876e+02	1.21100e+03	2.89665e+00	2.93667e+02
1213	2.95598e+02	1.21300e+03	2.89541e+00	2.94333e+02
1215	2.96310e+02	1.21500e+03	2.89414e+00	2.95000e+02
1217	2.96962e+02	1.21700e+03	2.89281e+00	2.95667e+02
1219	2.97622e+02	1.21900e+03	2.89147e+00	2.96333e+02
1221	2.98292e+02	1.22100e+03	2.89006e+00	2.97000e+02
1223	2.98949e+02	1.22300e+03	2.88864e+00	2.97667e+02
1225	2.99612e+02	1.22500e+03	2.88716e+00	2.98333e+02
1227	3.00286e+02	1.22700e+03	2.88569e+00	2.99000e+02
1229	3.00948e+02	1.22900e+03	2.88419e+00	2.99667e+02
1231	3.01602e+02	1.23100e+03	2.88268e+00	3.00333e+02
1233	3.02252e+02	1.23300e+03	2.88114e+00	3.01000e+02
1235	3.02905e+02	1.23500e+03	2.87957e+00	3.01667e+02
1237	3.03573e+02	1.23700e+03	2.87793e+00	3.02333e+02
1239	3.04239e+02	1.23900e+03	2.87627e+00	3.03000e+02
1241	3.04899e+02	1.24100e+03	2.87456e+00	3.03667e+02
1243	3.05572e+02	1.24300e+03	2.87284e+00	3.04333e+02
1245	3.06253e+02	1.24500e+03	2.87106e+00	3.05000e+02
1247	3.06907e+02	1.24700e+03	2.86925e+00	3.05667e+02
1249	3.07590e+02	1.24900e+03	2.86734e+00	3.06333e+02
1251	3.08248e+02	1.25100e+03	2.86542e+00	3.07000e+02
1253	3.08931e+02	1.25300e+03	2.86346e+00	3.07667e+02
1255	3.09618e+02	1.25500e+03	2.86156e+00	3.08333e+02
1257	3.10324e+02	1.25700e+03	2.85968e+00	3.09000e+02
1259	3.10977e+02	1.25900e+03	2.85776e+00	3.09667e+02
1261	3.11639e+02	1.26100e+03	2.85579e+00	3.10333e+02
1263	3.12337e+02	1.26300e+03	2.85378e+00	3.11000e+02
1265	3.13002e+02	1.26500e+03	2.85171e+00	3.11667e+02
1267	3.13668e+02	1.26700e+03	2.84965e+00	3.12333e+02
1269	3.14341e+02	1.26900e+03	2.84752e+00	3.13000e+02
1271	3.15000e+02	1.27100e+03	2.84536e+00	3.13667e+02
1273	3.15683e+02	1.27300e+03	2.84320e+00	3.14333e+02
1275	3.16347e+02	1.27500e+03	2.84115e+00	3.15000e+02
1277	3.17014e+02	1.27700e+03	2.83920e+00	3.15667e+02
1279	3.17678e+02	1.27900e+03	2.83716e+00	3.16333e+02
1281	3.18371e+02	1.28100e+03	2.83495e+00	3.17000e+02
1283	3.19077e+02	1.28300e+03	2.83260e+00	3.17667e+02
1285	3.19815e+02	1.28500e+03	2.82999e+00	3.18333e+02
1287	3.20542e+02	1.28700e+03	2.82754e+00	3.19000e+02
1289	3.21242e+02	1.28900e+03	2.82523e+00	3.19667e+02
1291	3.21935e+02	1.29100e+03	2.82301e+00	3.20333e+02
1293	3.22607e+02	1.29300e+03	2.82092e+00	3.21000e+02
1295	3.23279e+02	1.29500e+03	2.81873e+00	3.21667e+02
1297	3.23935e+02	1.29700e+03	2.81642e+00	3.22333e+02
1299	3.24577e+02	1.29900e+03	2.81403e+00	3.23000e+02
1301	3.25237e+02	1.30100e+03	2.81150e+00	3.23667e+02
1303	3.25924e+02	1.30300e+03	2.80898e+00	3.24333e+02
1305	3.26623e+02	1.30500e+03	2.80641e+00	3.25000e+02
1307	3.27297e+02	1.30700e+03	2.80384e+00	3.25667e+02
1309	3.27971e+02	1.30900e+03	2.80122e+00	3.26333e+02
1311	3.28654e+02	1.31100e+03	2.79856e+00	3.27000e+02
1313	3.29328e+02	1.31300e+03	2.79577e+00	3.27667e+02
1315	3.30026e+02	1.31500e+03	2.79292e+00	3.28333e+02
1317	3.30682e+02	1.31700e+03	2.78992e+00	3.29000e+02
1319	3.31356e+02	1.31900e+03	2.78697e+00	3.29667e+02
1321	3.32031e+02	1.32100e+03	2.78395e+00	3.30333e+02
1323	3.32694e+02	1.32300e+03	2.78087e+00	3.31000e+02
1325	3.33373e+02	1.32500e+03	2.77762e+00	3.31667e+02
1327	3.34043e+02	1.32700e+03	2.77427e+00	3.32333e+02
1329	3.34730e+02	1.32900e+03	2.77066e+00	3.33000e+02
1331	3.35401e+02	1.33100e+03	2.76705e+00	3.33667e+02
1333	3.36051e+02	1.33300e+03	2.76327e+00	3.34333e+02
1335	3.36725e+02	1.33500e+03	2.75943e+00	3.35000e+02
1337	3.37385e+02	1.33700e+03	2.75539e+00	3.35667e+02
1339	3.38040e+02	1.33900e+03	2.75128e+00	3.36333e+02
1341	3.38699e+02	1.34100e+03	2.74691e+00	3.37000e+02
1343	3.39367e+02	1.34300e+03	2.74246e+00	3.37667e+02
1345	3.40011e+02	1.34500e+03	2.73772e+00	3.38333e+02
1347	3.40693e+02	1.34700e+03	2.73288e+00	3.39000e+02
1349	3.41355e+02	1.34900e+03	2.72772e+00	3.39667e+02
1351	3.42020e+02	1.35100e+03	2.72247e+00	3.40333e+02
1353	3.42698e+02	1.35300e+03	2.71686e+00	3.41000e+02
1355	3.43392e+02	1.35500e+03	2.71116e+00	3.41667e+02
1357	3.44073e+02	1.35700e+03	2.70508e+00	3.42333e+02
1359	3.44769e+02	1.35900e+03	2.69890e+00	3.43000e+02
1361	3.45431e+02	1.36100e+03	2.69231e+00	3.43667e+02
1363	3.46108e+02	1.36300e+03	2.68561e+00	3.44333e+02
1365	3.46788e+02	1.36500e+03	2.67843e+00	3.45000e+02
1367	3.47439e+02	1.36700e+03	2.67110e+00	3.45667e+02
1369	3.48105e+02	1.36900e+03	2.66315e+00	3.46333e+02
1371	3.48858e+02	1.37100e+03	2.65497e+00	3.47000e+02
1373	3.49555e+02	1.37300e+03	2.64598e+00	3.47667e+02
1375	3.50258e+02	1.37500e+03	2.63674e+00	3.48333e+02
1377	3.50919e+02	1.37700e+03	2.62647e+00	3.49000e+02
1379	3.51629e+02	1.37900e+03	2.61580e+00	3.49667e+02
1381	3.52308e+02	1.38100e+03	2.60381e+00	3.50333e+02
1383	3.52993e+02	1.38300e+03	2.59143e+00	3.51000e+02
1385	3.53689e+02	1.38500e+03	2.57771e+00	3.51667e+02
1387	3.54307e+02	1.38700e+03	2.56383e+00	3.52333e+02
1389	3.54943e+02	1.38900e+03	2.54887e+00	3.53000e+02
1391	3.55583e+02	1.39100e+03	2.53368e+00	3.53667e+02
1393	3.56237e+02	1.39300e+03	2.51750e+00	3.54333e+02
1395	3.56872e+02	1.39500e+03	2.50113e+00	3.55000e+02
1397	3.57510e+02	1.39700e+03	2.48389e+00	3.55667e+02
1399	3.58123e+02	1.39900e+03	2.46651e+00	3.56333e+02
1401	3.58737e+02	1.40100e+03	2.44831e+00	3.57000e+02
1403	3.59358e+02	1.40300e+03	2.42984e+00	3.57667e+02
1405	3.59993e+02	1.40500e+03	2.41039e+00	3.58333e+02
1407	3.60624e+02	1.40700e+03	2.39063e+00	3.59000e+02
1409	3.61254e+02	1.40900e+03	2.36977e+00	3.59667e+02
1411	3.61893e+02	1.41100e+03	2.34866e+00	3.60333e+02
1413	3.62523e+02	1.41300e+03	2.32643e+00	3.61000e+02
1415	3.63153e+02	1.41500e+03	2.30395e+00	3.61667e+02
1417	3.63799e+02	1.41700e+03	2.28033e+00	3.62333e+02
1419	3.64442e+02	1.41900e+03	2.25643e+00	3.63000e+02
1421	3.65085e+02	1.42100e+03	2.23134e+00	3.63667e+02
1423	3.65729e+02	1.42300e+03	2.20595e+00	3.64333e+02
1425	3.66382e+02	1.42500e+03	2.17932e+00	3.65000e+02
1427	3.67037e+02	1.42700e+03	2.15239e+00	3.65667e+02
1429	3.67681e+02	1.42900e+03	2.12428e+00	3.66333e+02
1431	3.68322e+02	1.43100e+03	2.09597e+00	3.67000e+02
1433	3.68958e+02	1.43300e+03	2.06661e+00	3.67667e+02
1435	3.69613e+02	1.43500e+03	2.03701e+00	3.68333e+02
1437	3.70266e+02	1.43700e+03	2.00640e+00	3.69000e+02
1439	3.70905e+02	1.43900e+03	1.97556e+00	3.69667e+02
1441	3.71564e+02	1.44100e+03	1.94374e+00	3.70333e+02
1443	3.72210e+02	1.44300e+03	1.91171e+00	3.71000e+02
1445	3.72830e+02	1.44500e+03	1.87879e+00	3.71667e+02
1447	3.73478e+02	1.44700e+03	1.84576e+00	3.72333e+02
1449	3.74113e+02	1.44900e+03	1.81205e+00	3.73000e+02
1451	3.74770e+02	1.45100e+03	1.77832e+00	3.73667e+02
1453	3.75449e+02	1.45300e+03	1.74412e+00	3.74333e+02
1455	3.76104e+02	1.45500e+03	1.70987e+00	3.75000e+02
1457	3.76771e+02	1.45700e+03	1.67522e+00	3.75667e+02
1459	3.77416e+02	1.45900e+03	1.64045e+00	3.76333e+02
1461	3.78073e+02	1.46100e+03	1.60523e+00	3.77000e+02
1463	3.78722e+02	1.46300e+03	1.56992e+00	3.77667e+02
1465	3.79379e+02	1.46500e+03	1.53425e+00	3.78333e+02
1467	3.80049e+02	1.46700e+03	1.49857e+00	3.79000e+02
1469	3.80688e+02	1.46900e+03	1.46261e+00	3.79667e+02
1471	3.81328e+02	1.47100e+03	1.42661e+00	3.80333e+02
1473	3.81980e+02	1.47300e+03	1.39047e+00	3.81000e+02
1475	3.82622e+02	1.47500e+03	1.35444e+00	3.81667e+02
1477	3.83275e+02	1.47700e+03	1.31852e+00	3.82333e+02
1479	3.83939e+02	1.47900e+03	1.28265e+00	3.83000e+02
1481	3.84591e+02	1.48100e+03	1.24689e+00	3.83667e+02
1483	3.85252e+02	1.48300e+03	1.21106e+00	3.84333e+02
1485	3.85917e+02	1.48500e+03	1.17504e+00	3.85000e+02
1487	3.86584e+02	1.48700e+03	1.13882e+00	3.85667e+02
1489	3.87246e+02	1.48900e+03	1.10235e+00	3.86333e+02
1491	3.87930e+02	1.49100e+03	1.06607e+00	3.87000e+02
1493	3.88599e+02	1.49300e+03	1.03008e+00	3.87667e+02
1495	3.89279e+02	1.49500e+03	9.94315e-01	3.88333e+02
1497	3.89956e+02	1.49700e+03	9.58982e-01	3.89000e+02
1499	3.90624e+02	1.49900e+03	9.23526e-01	3.89667e+02
1501	3.91314e+02	1.50100e+03	8.88010e-01	3.90333e+02
1503	3.91973e+02	1.50300e+03	8.52255e-01	3.91000e+02
1505	3.92636e+02	1.50500e+03	8.16028e-01	3.91667e+02
1507	3.93303e+02	1.50700e+03	7.79723e-01	3.92333e+02
1509	3.93969e+02	1.50900e+03	7.43205e-01	3.93000e+02
1511	3.94659e+02	1.51100e+03	7.07022e-01	3.93667e+02
1513	3.95341e+02	1.51300e+03	6.71375e-01	3.94333e+02
1515	3.96027e+02	1.51500e+03	6.36144e-01	3.95000e+02
1517	3.96710e+02	1.51700e+03	6.02081e-01	3.95667e+02
1519	3.97434e+02	1.51900e+03	5.68505e-01	3.96333e+02
1521	3.98088e+02	1.52100e+03	5.36522e-01	3.97000e+02
1523	3.98777e+02	1.52300e+03	5.05033e-01	3.97667e+02
1525	3.99449e+02	1.52500e+03	4.75409e-01	3.98333e+02
1527	4.00120e+02	1.52700e+03	4.46322e-01	3.99000e+02
1529	4.00805e+02	1.52900e+03	4.19253e-01	3.99667e+02
1531	4.01482e+02	1.53100e+03	3.92664e-01	4.00333e+02
1533	4.02166e+02	1.53300e+03	3.68121e-01	4.01000e+02
1535	4.02857e+02	1.53500e+03	3.44052e-01	4.01667e+02
1537	4.03541e+02	1.53700e+03	3.21993e-01	4.02333e+02
1539	4.04220e+02	1.53900e+03	3.00347e-01	4.03000e+02
1541	4.04884e+02	1.54100e+03	2.80616e-01	4.03667e+02
1543	4.05557e+02	1.54300e+03	2.61293e-01	4.04333e+02
1545	4.06240e+02	1.54500e+03	2.43775e-01	4.05000e+02
1547	4.06926e+02	1.54700e+03	2.26597e-01	4.05667e+02
1549	4.07606e+02	1.54900e+03	2.11035e-01	4.06333e+02
1551	4.08301e+02	1.55100e+03	1.95763e-01	4.07000e+02
1553	4.08967e+02	1.55300e+03	1.81945e-01	4.07667e+02
1555	4.09657e+02	1.55500e+03	1.68444e-01	4.08333e+02
1557	4.10336e+02	1.55700e+03	1.56324e-01	4.09000e+02
1559	4.11011e+02	1.55900e+03	1.44487e-01	4.09667e+02
1561	4.11701e+02	1.56100e+03	1.33935e-01	4.10333e+02
1563	4.12383e+02	1.56300e+03	1.23636e-01	4.11000e+02
1565	4.13067e+02	1.56500e+03	1.14523e-01	4.11667e+02
1567	4.13754e+02	1.56700e+03	1.05641e-01	4.12333e+02
1569	4.14451e+02	1.56900e+03	9.78330e-02	4.13000e+02
1571	4.15135e+02	1.57100e+03	9.02292e-02	4.13667e+02
1573	4.15840e+02	1.57300e+03	8.35925e-02	4.14333e+02
1575	4.16522e+02	1.57500e+03	7.71209e-02	4.15000e+02
1577	4.17243e+02	1.57700e+03	7.14876e-02	4.15667e+02
1579	4.17955e+02	1.57900e+03	6.59852e-02	4.16333e+02
1581	4.18639e+02	1.58100e+03	6.11905e-02	4.17000e+02
1583	4.19306e+02	1.58300e+03	5.65148e-02	4.17667e+02
1585	4.19982e+02	1.58500e+03	5.24382e-02	4.18333e+02
1587	4.20648e+02	1.58700e+03	4.84541e-02	4.19000e+02
1589	4.21310e+02	1.58900e+03	4.49762e-02	4.19667e+02
1591	4.21980e+02	1.59100e+03	4.15918e-02	4.20333e+02
1593	4.22661e+02	1.59300e+03	3.86557e-02	4.21000e+02
1595	4.23338e+02	1.59500e+03	3.57916e-02	4.21667e+02
1597	4.24017e+02	1.59700e+03	3.32871e-02	4.22333e+02
1599	4.24717e+02	1.59900e+03	3.08267e-02	4.23000e+02
1601	4.25406e+02	1.60100e+03	2.86716e-02	4.23667e+02
1603	4.26106e+02	1.60300e+03	2.65863e-02	4.24333e+02
1605	4.26781e+02	1.60500e+03	2.47648e-02	4.25000e+02
1607	4.27486e+02	1.60700e+03	2.29625e-02	4.25667e+02
1609	4.28198e+02	1.60900e+03	2.13561e-02	4.26333e+02
1611	4.28873e+02	1.61100e+03	1.97861e-02	4.27000e+02
1613	4.29534e+02	1.61300e+03	1.83896e-02	4.27667e+02
1615	4.30195e+02	1.61500e+03	1.70329e-02	4.28333e+02
1617	4.30839e+02	1.61700e+03	1.58401e-02	4.29000e+02
1619	4.31452e+02	1.61900e+03	1.46764e-02	4.29667e+02
1621	4.32082e+02	1.62100e+03	1.36564e-02	4.30333e+02
1623	4.32745e+02	1.62300e+03	1.26606e-02	4.31000e+02
1625	4.33408e+02	1.62500e+03	1.17834e-02	4.31667e+02
1627	4.34080e+02	1.62700e+03	1.09249e-02	4.32333e+02
1629	4.34748e+02	1.62900e+03	1.01613e-02	4.33000e+02
1631	4.35395e+02	1.63100e+03	9.40860e-03	4.33667e+02
1633	4.36048e+02	1.63300e+03	8.72230e-03	4.34333e+02
1635	4.36713e+02	1.63500e+03	8.04347e-03	4.35000e+02
1637	4.37387e+02	1.63700e+03	7.41384e-03	4.35667e+02
1639	4.38045e+02	1.63900e+03	6.79164e-03	4.36333e+02
1641	4.38671e+02	1.64100e+03	6.22188e-03	4.37000e+02
1643	4.39322e+02	1.64300e+03	5.67469e-03	4.37667e+02
1645	4.39938e+02	1.64500e+03	5.19535e-03	4.38333e+02
1647	4.40513e+02	1.64700e+03	4.72314e-03	4.39000e+02
1649	4.41129e+02	1.64900e+03	4.29011e-03	4.39667e+02
1651	4.41746e+02	1.65100e+03	3.84838e-03	4.40333e+02
1653	4.42386e+02	1.65300e+03	3.43595e-03	4.41000e+02
1655	4.43021e+02	1.65500e+03	3.05191e-03	4.41667e+02
1657	4.43677e+02	1.65700e+03	2.73521e-03	4.42333e+02
1659	4.44317e+02	1.65900e+03	2.42654e-03	4.43000e+02
1661	4.44962e+02	1.66100e+03	2.16542e-03	4.43667e+02
1663	4.45586e+02	1.66300e+03	1.90289e-03	4.44333e+02
1665	4.46239e+02	1.66500e+03	1.66194e-03	4.45000e+02
1667	4.46884e+02	1.66700e+03	1.42358e-03	4.45667e+02
1669	4.47522e+02	1.66900e+03	1.19799e-03	4.46333e+02
1671	4.48167e+02	1.67100e+03	9.75543e-04	4.47000e+02
1673	4.48839e+02	1.67300e+03	7.69068e-04	4.47667e+02
1675	4.49514e+02	1.67500e+03	5.63644e-04	4.48333e+02
1677	4.50171e+02	1.67700e+03	3.85990e-04	4.49000e+02
1679	4.50823e+02	1.67900e+03	2.24450e-04	4.49667e+02
1681	4.51473e+02	1.68100e+03	1.15245e-04	4.50333e+02
1683	4.52118e+02	1.68300e+03	2.63065e-05	4.51000e+02
1685	4.52776e+02	1.68500e+03	-2.66964e-05	4.51667e+02
1687	4.53420e+02	1.68700e+03	-1.01951e-04	4.52333e+02
1689	4.54094e+02	1.68900e+03	-1.79138e-04	4.53000e+02
1691	4.54763e+02	1.69100e+03	-2.51906e-04	4.53667e+02
1693	4.55459e+02	1.69300e+03	-3.09507e-04	4.54333e+02
1695	4.56137e+02	1.69500e+03	-3.56348e-04	4.55000e+02
1697	4.56826e+02	1.69700e+03	-3.91448e-04	4.55667e+02
1699	4.57478e+02	1.69900e+03	-4.33081e-04	4.56333e+02
1701	4.58160e+02	1.70100e+03	-4.77903e-04	4.57000e+02
1703	4.58837e+02	1.70300e+03	-5.26083e-04	4.57667e+02
1705	4.59504e+02	1.70500e+03	-5.90175e-04	4.58333e+02
1707	4.60186e+02	1.70700e+03	-6.58490e-04	4.59000e+02
1709	4.60859e+02	1.70900e+03	-7.24060e-04	4.59667e+02
1711	4.61513e+02	1.71100e+03	-7.81252e-04	4.60333e+02
1713	4.62159e+02	1.71300e+03	-8.38898e-04	4.61000e+02
1715	4.62798e+02	1.71500e+03	-9.11433e-04	4.61667e+02
1717	4.63454e+02	1.71700e+03	-9.92732e-04	4.62333e+02
1719	4.64111e+02	1.71900e+03	-1.05764e-03	4.63000e+02
1721	4.64773e+02	1.72100e+03	-1.10313e-03	4.63667e+02
1723	4.65415e+02	1.72300e+03	-1.14716e-03	4.64333e+02
1725	4.66073e+02	1.72500e+03	-1.17914e-03	4.65000e+02
1727	4.66756e+02	1.72700e+03	-1.22090e-03	4.65667e+02
1729	4.67424e+02	1.72900e+03	-1.27660e-03	4.66333e+02
1731	4.68056e+02	1.73100e+03	-1.32546e-03	4.67000e+02
1733	4.68679e+02	1.73300e+03	-1.36267e-03	4.67667e+02
1735	4.69324e+02	1.73500e+03	-1.37777e-03	4.68333e+02
1737	4.69977e+02	1.73700e+03	-1.36307e-03	4.69000e+02
1739	4.70641e+02	1.73900e+03	-1.35985e-03	4.69667e+02
1741	4.71267e+02	1.74100e+03	-1.35772e-03	4.70333e+02
1743	4.71924e+02	1.74300e+03	-1.36369e-03	4.71000e+02
1745	4.72550e+02	1.74500e+03	-1.37323e-03	4.71667e+02
1747	4.73187e+02	1.74700e+03	-1.37766e-03	4.72333e+02
1749	4.73826e+02	1.74900e+03	-1.39800e-03	4.73000e+02
1751	4.74466e+02	1.75100e+03	-1.44006e-03	4.73667e+02
1753	4.75111e+02	1.75300e+03	-1.51022e-03	4.74333e+02
1755	4.75757e+02	1.75500e+03	-1.57436e-03	4.75000e+02
1757	4.76405e+02	1.75700e+03	-1.64531e-03	4.75667e+02
1759	4.77056e+02	1.75900e+03	-1.69807e-03	4.76333e+02
1761	4.77711e+02	1.76100e+03	-1.72643e-03	4.77000e+02
1763	4.78352e+02	1.76300e+03	-1.74831e-03	4.77667e+02
1765	4.79005e+02	1.76500e+03	-1.75548e-03	4.78333e+02
1767	4.79653e+02	1.76700e+03	-1.77404e-03	4.79000e+02
1769	4.80318e+02	1.76900e+03	-1.79834e-03	4.79667e+02
1771	4.80963e+02	1.77100e+03	-1.81128e-03	4.80333e+02
1773	4.81611e+02	1.77300e+03	-1.80780e-03	4.81000e+02
1775	4.82265e+02	1.77500e+03	-1.80150e-03	4.81667e+02
1777	4.82911e+02	1.77700e+03	-1.78487e-03	4.82333e+02
1779	4.83583e+02	1.77900e+03	-1.77677e-03	4.83000e+02
1781	4.84236e+02	1.78100e+03	-1.79042e-03	4.83667e+02
1783	4.84903e+02	1.78300e+03	-1.81305e-03	4.84333e+02
1785	4.85561e+02	1.78500e+03	-1.84621e-03	4.85000e+02
1787	4.86232e+02	1.78700e+03	-1.87056e-03	4.85667e+02
1789	4.86883e+02	1.78900e+03	-1.89510e-03	4.86333e+02
1791	4.87554e+02	1.79100e+03	-1.92191e-03	4.87000e+02
1793	4.88218e+02	1.79300e+03	-1.95235e-03	4.87667e+02
1795	4.88879e+02	1.79500e+03	-1.98729e-03	4.88333e+02
1797	4.89547e+02	1.79700e+03	-2.03851e-03	4.89000e+02
1799	4.90221e+02	1.79900e+03	-2.08101e-03	4.89667e+02
1801	4.90883e+02	1.80100e+03	-2.11108e-03	4.90333e+02
1803	4.91537e+02	1.80300e+03	-2.12022e-03	4.91000e+02
1805	4.92206e+02	1.80500e+03	-2.09107e-03	4.91667e+02
1807	4.92874e+02	1.80700e+03	-2.06808e-03	4.92333e+02
1809	4.93604e+02	1.80900e+03	-2.03644e-03	4.93000e+02
1811	4.94311e+02	1.81100e+03	-2.02074e-03	4.93667e+02
1813	4.94999e+02	1.81300e+03	-2.02052e-03	4.94333e+02
1815	4.95684e+02	1.81500e+03	-2.02713e-03	4.95000e+02
1817	4.96308e+02	1.81700e+03	-2.04831e-03	4.95667e+02
1819	4.96987e+02	1.81900e+03	-2.06771e-03	4.96333e+02
1821	4.97704e+02	1.82100e+03	-2.09309e-03	4.97000e+02
1823	4.98444e+02	1.82300e+03	-2.13305e-03	4.97667e+02
1825	4.99212e+02	1.82500e+03	-2.19849e-03	4.98333e+02
1827	4.99843e+02	1.82700e+03	-2.23333e-03	4.99000e+02
1829	5.00493e+02	1.82900e+03	-2.24427e-03	4.99667e+02
1831	5.01156e+02	1.83100e+03	-2.25527e-03	5.00333e+02
1833	5.01798e+02	1.83300e+03	-2.27249e-03	5.01000e+02
1835	5.02432e+02	1.83500e+03	-2.31978e-03	5.01667e+02
1837	5.03084e+02	1.83700e+03	-2.39917e-03	5.02333e+02
1839	5.03718e+02	1.83900e+03	-2.44117e-03	5.03000e+02
1841	5.04362e+02	1.84100e+03	-2.44999e-03	5.03667e+02
1843	5.04981e+02	1.84300e+03	-2.45603e-03	5.04333e+02
1845	5.05585e+02	1.84500e+03	-2.44117e-03	5.05000e+02
1847	5.06215e+02	1.84700e+03	-2.42857e-03	5.05667e+02
1849	5.06857e+02	1.84900e+03	-2.41113e-03	5.06333e+02
1851	5.07519e+02	1.85100e+03	-2.39521e-03	5.07000e+02
1853	5.08168e+02	1.85300e+03	-2.34460e-03	5.07667e+02
1855	5.08819e+02	1.85500e+03	-2.26641e-03	5.08333e+02
1857	5.09489e+02	1.85700e+03	-2.24238e-03	5.09000e+02
1859	5.10194e+02	1.85900e+03	-2.30397e-03	5.09667e+02
1861	5.10889e+02	1.86100e+03	-2.41302e-03	5.10333e+02
1863	5.11536e+02	1.86300e+03	-2.38056e-03	5.11000e+02
1865	5.12222e+02	1.86500e+03	-2.21922e-03	5.11667e+02
1867	5.12874e+02	1.86700e+03	-2.15911e-03	5.12333e+02
1869	5.13592e+02	1.86900e+03	-2.24326e-03	5.13000e+02
1871	5.14274e+02	1.87100e+03	-2.44061e-03	5.13667e+02
1873	5.14903e+02	1.87300e+03	-2.78819e-03	5.14333e+02
1875	5.15518e+02	1.87500e+03	-2.95428e-03	5.15000e+02
1877	5.16147e+02	1.87700e+03	-2.94635e-03	5.15667e+02
1879	5.16785e+02	1.87900e+03	-2.92610e-03	5.16333e+02
1881	5.17404e+02	1.88100e+03	-2.82079e-03	5.17000e+02
1883	5.18027e+02	1.88300e+03	-2.76879e-03	5.17667e+02
1885	5.18670e+02	1.88500e+03	-2.75387e-03	5.18333e+02
1887	5.19321e+02	1.88700e+03	-2.74580e-03	5.19000e+02
1889	5.19953e+02	1.88900e+03	-2.76412e-03	5.19667e+02
1891	5.20621e+02	1.89100e+03	-2.76898e-03	5.20333e+02
1893	5.21279e+02	1.89300e+03	-2.75263e-03	5.21000e+02
1895	5.21923e+02	1.89500e+03	-2.72682e-03	5.21667e+02
1897	5.22557e+02	1.89700e+03	-2.68072e-03	5.22333e+02
1899	5.23182e+02	1.89900e+03	-2.65669e-03	5.23000e+02
1901	5.23836e+02	1.90100e+03	-2.68716e-03	5.23667e+02
1903	5.24502e+02	1.90300e+03	-2.76139e-03	5.24333e+02
1905	5.25172e+02	1.90500e+03	-2.88830e-03	5.25000e+02
1907	5.25821e+02	1.90700e+03	-2.93966e-03	5.25667e+02
1909	5.26459e+02	1.90900e+03	-2.90661e-03	5.26333e+02
1911	5.27106e+02	1.91100e+03	-2.85012e-03	5.27000e+02
1913	5.27740e+02	1.91300e+03	-2.74272e-03	5.27667e+02
1915	5.28398e+02	1.91500e+03	-2.69374e-03	5.28333e+02
1917	5.29066e+02	1.91700e+03	-2.71132e-03	5.29000e+02
1919	5.29707e+02	1.91900e+03	-2.73096e-03	5.29667e+02
1921	5.30352e+02	1.92100e+03	-2.77507e-03	5.30333e+02
1923	5.30980e+02	1.92300e+03	-2.79298e-03	5.31000e+02
1925	5.31623e+02	1.92500e+03	-2.78325e-03	5.31667e+02
1927	5.32257e+02	1.92700e+03	-2.77422e-03	5.32333e+02
1929	5.32869e+02	1.92900e+03	-2.76331e-03	5.33000e+02
1931	5.33463e+02	1.93100e+03	-2.76848e-03	5.33667e+02
1933	5.34087e+02	1.93300e+03	-2.78287e-03	5.34333e+02
1935	5.34703e+02	1.93500e+03	-2.78282e-03	5.35000e+02
1937	5.35349e+02	1.93700e+03	-2.77463e-03	5.35667e+02
1939	5.35987e+02	1.93900e+03	-2.77082e-03	5.36333e+02
1941	5.36600e+02	1.94100e+03	-2.76986e-03	5.37000e+02
1943	5.37237e+02	1.94300e+03	-2.77302e-03	5.37667e+02
1945	5.37882e+02	1.94500e+03	-2.80142e-03	5.38333e+02
1947	5.38520e+02	1.94700e+03	-2.83672e-03	5.39000e+02
1949	5.39171e+02	1.94900e+03	-2.88193e-03	5.39667e+02
1951	5.39839e+02	1.95100e+03	-2.91175e-03	5.40333e+02
1953	5.40495e+02	1.95300e+03	-2.92527e-03	5.41000e+02
1955	5.41164e+02	1.95500e+03	-2.93648e-03	5.41667e+02
1957	5.41812e+02	1.95700e+03	-2.93306e-03	5.42333e+02
1959	5.42469e+02	1.95900e+03	-2.93315e-03	5.43000e+02
1961	5.43125e+02	1.96100e+03	-2.93122e-03	5.43667e+02
1963	5.43784e+02	1.96300e+03	-2.93196e-03	5.44333e+02
1965	5.44449e+02	1.96500e+03	-2.93026e-03	5.45000e+02
1967	5.45109e+02	1.96700e+03	-2.92562e-03	5.45667e+02
1969	5.45778e+02	1.96900e+03	-2.92245e-03	5.46333e+02
1971	5.46464e+02	1.97100e+03	-2.92918e-03	5.47000e+02
1973	5.47136e+02	1.97300e+03	-2.95156e-03	5.47667e+02
1975	5.47789e+02	1.97500e+03	-2.97409e-03	5.48333e+02
1977	5.48460e+02	1.97700e+03	-2.99159e-03	5.49000e+02
1979	5.49124e+02	1.97900e+03	-2.99919e-03	5.49667e+02
1981	5.49806e+02	1.98100e+03	-2.99802e-03	5.50333e+02
1983	5.50469e+02	1.98300e+03	-3.00508e-03	5.51000e+02
1985	5.51135e+02	1.98500e+03	-3.02287e-03	5.51667e+02
1987	5.51806e+02	1.98700e+03	-3.04164e-03	5.52333e+02
1989	5.52467e+02	1.98900e+03	-3.07050e-03	5.53000e+02
1991	5.53145e+02	1.99100e+03	-3.09504e-03	5.53667e+02
1993	5.53827e+02	1.99300e+03	-3.11363e-03	5.54333e+02
1995	5.54495e+02	1.99500e+03	-3.12592e-03	5.55000e+02
1997	5.55180e+02	1.99700e+03	-3.12796e-03	5.55667e+02
1999	5.55846e+02	1.99900e+03	-3.12829e-03	5.56333e+02
2001	5.56488e+02	2.00100e+03	-3.13176e-03	5.57000e+02
2003	5.57143e+02	2.00300e+03	-3.14086e-03	5.57667e+02
2005	5.57822e+02	2.00500e+03	-3.15011e-03	5.58333e+02
2007	5.58458e+02	2.00700e+03	-3.14511e-03	5.59000e+02
2009	5.59085e+02	2.00900e+03	-3.13238e-03	5.59667e+02
2011	5.59723e+02	2.01100e+03	-3.13621e-03	5.60333e+02
2013	5.60368e+02	2.01300e+03	-3.14994e-03	5.61000e+02
2015	5.61014e+02	2.01500e+03	-3.16015e-03	5.61667e+02
2017	5.61672e+02	2.01700e+03	-3.16937e-03	5.62333e+02
2019	5.62336e+02	2.01900e+03	-3.17241e-03	5.63000e+02
2021	5.62988e+02	2.02100e+03	-3.16067e-03	5.63667e+02
2023	5.63652e+02	2.02300e+03	-3.14917e-03	5.64333e+02
2025	5.64301e+02	2.02500e+03	-3.12632e-03	5.65000e+02
2027	5.64966e+02	2.02700e+03	-3.10197e-03	5.65667e+02
2029	5.65617e+02	2.02900e+03	-3.07628e-03	5.66333e+02
2031	5.66276e+02	2.03100e+03	-3.06109e-03	5.67000e+02
2033	5.66943e+02	2.03300e+03	-3.06451e-03	5.67667e+02
2035	5.67603e+02	2.03500e+03	-3.07967e-03	5.68333e+02
2037	5.68264e+02	2.03700e+03	-3.12308e-03	5.69000e+02
2039	5.68920e+02	2.03900e+03	-3.16937e-03	5.69667e+02
2041	5.69582e+02	2.04100e+03	-3.22143e-03	5.70333e+02
2043	5.70222e+02	2.04300e+03	-3.25037e-03	5.71000e+02
2045	5.70864e+02	2.04500e+03	-3.26067e-03	5.71667e+02
2047	5.71505e+02	2.04700e+03	-3.27314e-03	5.72333e+02
2049	5.72162e+02	2.04900e+03	-3.28111e-03	5.73000e+02
2051	5.72819e+02	2.05100e+03	-3.28717e-03	5.73667e+02
2053	5.73472e+02	2.05300e+03	-3.29164e-03	5.74333e+02
2055	5.74132e+02	2.05500e+03	-3.29807e-03	5.75000e+02
2057	5.74770e+02	2.05700e+03	-3.30983e-03	5.75667e+02
2059	5.75415e+02	2.05900e+03	-3.31774e-03	5.76333e+02
2061	5.76055e+02	2.06100e+03	-3.31363e-03	5.77000e+02
2063	5.76699e+02	2.06300e+03	-3.30380e-03	5.77667e+02
2065	5.77348e+02	2.06500e+03	-3.28628e-03	5.78333e+02
2067	5.78003e+02	2.06700e+03	-3.28704e-03	5.79000e+02
2069	5.78652e+02	2.06900e+03	-3.31440e-03	5.79667e+02
2071	5.79312e+02	2.07100e+03	-3.35037e-03	5.80333e+02
2073	5.79966e+02	2.07300e+03	-3.40870e-03	5.81000e+02
2075	5.80629e+02	2.07500e+03	-3.46127e-03	5.81667e+02
2077	5.81281e+02	2.07700e+03	-3.50799e-03	5.82333e+02
2079	5.81936e+02	2.07900e+03	-3.53567e-03	5.83000e+02
2081	5.82585e+02	2.08100e+03	-3.55680e-03	5.83667e+02
2083	5.83232e+02	2.08300e+03	-3.60137e-03	5.84333e+02
2085	5.83893e+02	2.08500e+03	-3.63386e-03	5.85000e+02
2087	5.84540e+02	2.08700e+03	-3.63284e-03	5.85667e+02
2089	5.85204e+02	2.08900e+03	-3.59254e-03	5.86333e+02
2091	5.85860e+02	2.09100e+03	-3.56593e-03	5.87000e+02
2093	5.86528e+02	2.09300e+03	-3.54212e-03	5.87667e+02
2095	5.87185e+02	2.09500e+03	-3.52120e-03	5.88333e+02
2097	5.87854e+02	2.09700e+03	-3.50170e-03	5.89000e+02
2099	5.88519e+02	2.09900e+03	-3.46468e-03	5.89667e+02
2101	5.89169e+02	2.10100e+03	-3.42510e-03	5.90333e+02
2103	5.89829e+02	2.10300e+03	-3.42049e-03	5.91000e+02
2105	5.90494e+02	2.10500e+03	-3.45939e-03	5.91667e+02
2107	5.91160e+02	2.10700e+03	-3.49814e-03	5.92333e+02
2109	5.91816e+02	2.10900e+03	-3.55952e-03	5.93000e+02
2111	5.92491e+02	2.11100e+03	-3.60713e-03	5.93667e+02
2113	5.93154e+02	2.11300e+03	-3.62673e-03	5.94333e+02
2115	5.93829e+02	2.11500e+03	-3.62953e-03	5.95000e+02
2117	5.94500e+02	2.11700e+03	-3.59978e-03	5.95667e+02
2119	5.95158e+02	2.11900e+03	-3.58103e-03	5.96333e+02
2121	5.95830e+02	2.12100e+03	-3.55785e-03	5.97000e+02
2123	5.96489e+02	2.12300e+03	-3.53974e-03	5.97667e+02
2125	5.97147e+02	2.12500e+03	-3.53908e-03	5.98333e+02
2127	5.97810e+02	2.12700e+03	-3.54547e-03	5.99000e+02
2129	5.98483e+02	2.12900e+03	-3.51413e-03	5.99667e+02
2131	5.99161e+02	2.13100e+03	-3.47321e-03	6.00333e+02
2133	5.99860e+02	2.13300e+03	-3.45514e-03	6.01000e+02
2135	6.00553e+02	2.13500e+03	-3.47992e-03	6.01667e+02
2137	6.01314e+02	2.13700e+03	-3.46392e-03	6.02333e+02
2139	6.02002e+02	2.13900e+03	-3.31912e-03	6.03000e+02
2141	6.02728e+02	2.14100e+03	-3.15151e-03	6.03667e+02
2143	6.03555e+02	2.14300e+03	-3.19489e-03	6.04333e+02
2145	6.04349e+02	2.14500e+03	-3.45058e-03	6.05000e+02
2147	6.04919e+02	2.14700e+03	-3.65718e-03	6.05667e+02
2149	6.05543e+02	2.14900e+03	-3.85311e-03	6.06333e+02
2151	6.06156e+02	2.15100e+03	-3.93078e-03	6.07000e+02
2153	6.06795e+02	2.15300e+03	-3.85563e-03	6.07667e+02
2155	6.07431e+02	2.15500e+03	-3.83664e-03	6.08333e+02
2157	6.08096e+02	2.15700e+03	-3.80887e-03	6.09000e+02
2159	6.08753e+02	2.15900e+03	-3.77497e-03	6.09667e+02
2161	6.09414e+02	2.16100e+03	-3.74340e-03	6.10333e+02
2163	6.10087e+02	2.16300e+03	-3.71763e-03	6.11000e+02
2165	6.10750e+02	2.16500e+03	-3.70351e-03	6.11667e+02
2167	6.11416e+02	2.16700e+03	-3.69880e-03	6.12333e+02
2169	6.12049e+02	2.16900e+03	-3.70159e-03	6.13000e+02
2171	6.12733e+02	2.17100e+03	-3.68644e-03	6.13667e+02
2173	6.13371e+02	2.17300e+03	-3.64732e-03	6.14333e+02
2175	6.14054e+02	2.17500e+03	-3.61426e-03	6.15000e+02
2177	6.14743e+02	2.17700e+03	-3.58061e-03	6.15667e+02
2179	6.15461e+02	2.17900e+03	-3.57202e-03	6.16333e+02
2181	6.16114e+02	2.18100e+03	-3.62185e-03	6.17000e+02
2183	6.16781e+02	2.18300e+03	-3.69347e-03	6.17667e+02
2185	6.17484e+02	2.18500e+03	-3.78325e-03	6.18333e+02
2187	6.18273e+02	2.18700e+03	-3.81437e-03	6.19000e+02
2189	6.19042e+02	2.18900e+03	-3.78681e-03	6.19667e+02
2191	6.19750e+02	2.19100e+03	-3.77718e-03	6.20333e+02
2193	6.20377e+02	2.19300e+03	-3.77024e-03	6.21000e+02
2195	6.21008e+02	2.19500e+03	-3.78486e-03	6.21667e+02
2197	6.21639e+02	2.19700e+03	-3.82140e-03	6.22333e+02
2199	6.22264e+02	2.19900e+03	-3.83274e-03	6.23000e+02
2201	6.22886e+02	2.20100e+03	-3.81883e-03	6.23667e+02
2203	6.23531e+02	2.20300e+03	-3.80690e-03	6.24333e+02
2205	6.24181e+02	2.20500e+03	-3.80229e-03	6.25000e+02
2207	6.24841e+02	2.20700e+03	-3.82142e-03	6.25667e+02
2209	6.25491e+02	2.20900e+03	-3.86074e-03	6.26333e+02
2211	6.26143e+02	2.21100e+03	-3.87611e-03	6.27000e+02
2213	6.26797e+02	2.21300e+03	-3.88479e-03	6.27667e+02
2215	6.27440e+02	2.21500e+03	-3.90127e-03	6.28333e+02
2217	6.28095e+02	2.21700e+03	-3.91824e-03	6.29000e+02
2219	6.28742e+02	2.21900e+03	-3.93330e-03	6.29667e+02
2221	6.29409e+02	2.22100e+03	-3.95068e-03	6.30333e+02
2223	6.30065e+02	2.22300e+03	-3.97015e-03	6.31000e+02
2225	6.30728e+02	2.22500e+03	-3.99004e-03	6.31667e+02
2227	6.31386e+02	2.22700e+03	-4.00178e-03	6.32333e+02
2229	6.32042e+02	2.22900e+03	-3.99643e-03	6.33000e+02
2231	6.32699e+02	2.23100e+03	-3.99207e-03	6.33667e+02
2233	6.33350e+02	2.23300e+03	-3.98846e-03	6.34333e+02
2235	6.34009e+02	2.23500e+03	-3.98647e-03	6.35000e+02
2237	6.34664e+02	2.23700e+03	-3.99493e-03	6.35667e+02
2239	6.35329e+02	2.23900e+03	-4.00689e-03	6.36333e+02
2241	6.35992e+02	2.24100e+03	-4.02541e-03	6.37000e+02
2243	6.36655e+02	2.24300e+03	-4.04320e-03	6.37667e+02
2245	6.37318e+02	2.24500e+03	-4.04895e-03	6.38333e+02
2247	6.37981e+02	2.24700e+03	-4.03865e-03	6.39000e+02
2249	6.38658e+02	2.24900e+03	-4.01313e-03	6.39667e+02
2251	6.39323e+02	2.25100e+03	-4.01168e-03	6.40333e+02
2253	6.39972e+02	2.25300e+03	-4.03424e-03	6.41000e+02
2255	6.40623e+02	2.25500e+03	-4.06269e-03	6.41667e+02
2257	6.41286e+02	2.25700e+03	-4.10332e-03	6.42333e+02
2259	6.41955e+02	2.25900e+03	-4.13267e-03	6.43000e+02
2261	6.42625e+02	2.26100e+03	-4.15176e-03	6.43667e+02
2263	6.43290e+02	2.26300e+03	-4.17173e-03	6.44333e+02
2265	6.43954e+02	2.26500e+03	-4.18453e-03	6.45000e+02
2267	6.44611e+02	2.26700e+03	-4.19015e-03	6.45667e+02
2269	6.45286e+02	2.26900e+03	-4.18041e-03	6.46333e+02
2271	6.45951e+02	2.27100e+03	-4.16391e-03	6.47000e+02
2273	6.46615e+02	2.27300e+03	-4.13804e-03	6.47667e+02
2275	6.47264e+02	2.27500e+03	-4.12804e-03	6.48333e+02
2277	6.47920e+02	2.27700e+03	-4.13645e-03	6.49000e+02
2279	6.48576e+02	2.27900e+03	-4.13689e-03	6.49667e+02
2281	6.49226e+02	2.28100e+03	-4.13513e-03	6.50333e+02
2283	6.49894e+02	2.28300e+03	-4.13063e-03	6.51000e+02
2285	6.50551e+02	2.28500e+03	-4.11858e-03	6.51667e+02
2287	6.51214e+02	2.28700e+03	-4.10274e-03	6.52333e+02
2289	6.51873e+02	2.28900e+03	-4.08383e-03	6.53000e+02
2291	6.52524e+02	2.29100e+03	-4.06290e-03	6.53667e+02
2293	6.53201e+02	2.29300e+03	-4.04352e-03	6.54333e+02
2295	6.53862e+02	2.29500e+03	-4.03091e-03	6.55000e+02
2297	6.54538e+02	2.29700e+03	-4.03221e-03	6.55667e+02
2299	6.55184e+02	2.29900e+03	-4.03372e-03	6.56333e+02
2301	6.55851e+02	2.30100e+03	-4.04829e-03	6.57000e+02
2303	6.56499e+02	2.30300e+03	-4.07004e-03	6.57667e+02
2305	6.57160e+02	2.30500e+03	-4.10390e-03	6.58333e+02
2307	6.57813e+02	2.30700e+03	-4.11753e-03	6.59000e+02
2309	6.58477e+02	2.30900e+03	-4.09961e-03	6.59667e+02
2311	6.59140e+02	2.31100e+03	-4.06954e-03	6.60333e+02
2313	6.59808e+02	2.31300e+03	-4.01707e-03	6.61000e+02
2315	6.60464e+02	2.31500e+03	-3.98872e-03	6.61667e+02
2317	6.61137e+02	2.31700e+03	-3.98636e-03	6.62333e+02
2319	6.61805e+02	2.31900e+03	-3.99014e-03	6.63000e+02
2321	6.62463e+02	2.32100e+03	-4.00794e-03	6.63667e+02
2323	6.63135e+02	2.32300e+03	-4.00806e-03	6.64333e+02
2325	6.63806e+02	2.32500e+03	-4.00234e-03	6.65000e+02
2327	6.64476e+02	2.32700e+03	-4.01185e-03	6.65667e+02
2329	6.65143e+02	2.32900e+03	-4.03923e-03	6.66333e+02
2331	6.65800e+02	2.33100e+03	-4.07360e-03	6.67000e+02
2333	6.66473e+02	2.33300e+03	-4.11211e-03	6.67667e+02
2335	6.67146e+02	2.33500e+03	-4.13113e-03	6.68333e+02
2337	6.67808e+02	2.33700e+03	-4.13394e-03	6.69000e+02
2339	6.68484e+02	2.33900e+03	-4.14518e-03	6.69667e+02
2341	6.69160e+02	2.34100e+03	-4.15800e-03	6.70333e+02
2343	6.69823e+02	2.34300e+03	-4.17370e-03	6.71000e+02
2345	6.70491e+02	2.34500e+03	-4.19847e-03	6.71667e+02
2347	6.71165e+02	2.34700e+03	-4.22477e-03	6.72333e+02
2349	6.71828e+02	2.34900e+03	-4.24819e-03	6.73000e+02
2351	6.72495e+02	2.35100e+03	-4.26506e-03	6.73667e+02
2353	6.73157e+02	2.35300e+03	-4.27287e-03	6.74333e+02
2355	6.73821e+02	2.35500e+03	-4.28564e-03	6.75000e+02
2357	6.74508e+02	2.35700e+03	-4.29494e-03	6.75667e+02
2359	6.75179e+02	2.35900e+03	-4.30269e-03	6.76333e+02
2361	6.75856e+02	2.36100e+03	-4.30758e-03	6.77000e+02
2363	6.76533e+02	2.36300e+03	-4.31467e-03	6.77667e+02
2365	6.77209e+02	2.36500e+03	-4.32684e-03	6.78333e+02
2367	6.77880e+02	2.36700e+03	-4.34189e-03	6.79000e+02
2369	6.78545e+02	2.36900e+03	-4.37154e-03	6.79667e+02
2371	6.79218e+02	2.37100e+03	-4.41013e-03	6.80333e+02
2373	6.79895e+02	2.37300e+03	-4.45187e-03	6.81000e+02
2375	6.80551e+02	2.37500e+03	-4.46951e-03	6.81667e+02
2377	6.81187e+02	2.37700e+03	-4.46201e-03	6.82333e+02
2379	6.81847e+02	2.37900e+03	-4.46216e-03	6.83000e+02
2381	6.82487e+02	2.38100e+03	-4.44973e-03	6.83667e+02
2383	6.83141e+02	2.38300e+03	-4.44163e-03	6.84333e+02
2385	6.83801e+02	2.38500e+03	-4.44432e-03	6.85000e+02
2387	6.84460e+02	2.38700e+03	-4.45031e-03	6.85667e+02
2389	6.85101e+02	2.38900e+03	-4.46426e-03	6.86333e+02
2391	6.85749e+02	2.39100e+03	-4.47298e-03	6.87000e+02
2393	6.86407e+02	2.39300e+03	-4.49419e-03	6.87667e+02
2395	6.87060e+02	2.39500e+03	-4.54005e-03	6.88333e+02
2397	6.87729e+02	2.39700e+03	-4.61868e-03	6.89000e+02
2399	6.88394e+02	2.39900e+03	-4.66111e-03	6.89667e+02
2401	6.89047e+02	2.40100e+03	-4.64007e-03	6.90333e+02
2403	6.89710e+02	2.40300e+03	-4.58140e-03	6.91000e+02
2405	6.90178e+02	2.40500e+03	-4.46960e-03	6.91667e+02
2407	6.90508e+02	2.40700e+03	-4.42565e-03	6.92333e+02
2409	6.90986e+02	2.40900e+03	-4.43592e-03	6.93000e+02
2411	6.91458e+02	2.41100e+03	-4.43848e-03	6.93667e+02
2413	6.91892e+02	2.41300e+03	-4.46491e-03	6.94333e+02
2415	6.92295e+02	2.41500e+03	-4.49199e-03	6.95000e+02
2417	6.92677e+02	2.41700e+03	-4.51796e-03	6.95667e+02
2419	6.93024e+02	2.41900e+03	-4.53968e-03	6.96333e+02
2421	6.93363e+02	2.42100e+03	-4.55157e-03	6.97000e+02
2423	6.93668e+02	2.42300e+03	-4.55986e-03	6.97667e+02
2425	6.93964e+02	2.42500e+03	-4.56034e-03	6.98333e+02
2427	6.94256e+02	2.42700e+03	-4.55960e-03	6.99000e+02
2429	6.94511e+02	2.42900e+03	-4.54958e-03	6.99667e+02
2430	6.94643e+02	2.43000e+03	-4.54118e-03	7.00000e+02