File: Experiments/TUBS/tga_nonisotherm/tga_dynamic_n2_dyn30_piece_1mg_r3.txt
index	ts	t	weight	tr
[#]	[°C]	[s]	[mg]	[°C]
683	1.30867e+02	6.83000e+02	9.66141e-01	1.31500e+02
685	1.31888e+02	6.85000e+02	9.66076e-01	1.32500e+02
687	1.32872e+02	6.87000e+02	9.66028e-01	1.33500e+02
689	1.33888e+02	6.89000e+02	9.66001e-01	1.34500e+02
691	1.34888e+02	6.91000e+02	9.65989e-01	1.35500e+02
693	1.35889e+02	6.93000e+02	9.65998e-01	1.36500e+02
695	1.36892e+02	6.95000e+02	9.65994e-01	1.37500e+02
697	1.37895e+02	6.97000e+02	9.65976e-01	1.38500e+02
699	1.38895e+02	6.99000e+02	9.65953e-01	1.39500e+02
701	1.39897e+02	7.01000e+02	9.65926e-01	1.40500e+02
703	1.40899e+02	7.03000e+02	9.65922e-01	1.41500e+02
705	1.41900e+02	7.05000e+02	9.65951e-01	1.42500e+02
707	1.42902e+02	7.07000e+02	9.65975e-01	1.43500e+02
709	1.43900e+02	7.09000e+02	9.65994e-01	1.44500e+02
711	1.44913e+02	7.11000e+02	9.65988e-01	1.45500e+02
713	1.45918e+02	7.13000e+02	9.65957e-01	1.46500e+02
715	1.46913e+02	7.15000e+02	9.65946e-01	1.47500e+02
717	1.47912e+02	7.17000e+02	9.65947e-01	1.48500e+02
719	1.48917e+02	7.19000e+02	9.65944e-01	1.49500e+02
721	1.49919e+02	7.21000e+02	9.65931e-01	1.50500e+02
723	1.50916e+02	7.23000e+02	9.65908e-01	1.51500e+02
725	1.51925e+02	7.25000e+02	9.65863e-01	1.52500e+02
727	1.52935e+02	7.27000e+02	9.65823e-01	1.53500e+02
729	1.53941e+02	7.29000e+02	9.65782e-01	1.54500e+02
731	1.54936e+02	7.31000e+02	9.65745e-01	1.55500e+02
733	1.55936e+02	7.33000e+02	9.65708e-01	1.56500e+02
735	1.56938e+02	7.35000e+02	9.65663e-01	1.57500e+02
737	1.57942e+02	7.37000e+02	9.65604e-01	1.58500e+02
739	1.58952e+02	7.39000e+02	9.65542e-01	1.59500e+02
741	1.59946e+02	7.41000e+02	9.65472e-01	1.60500e+02
743	1.60952e+02	7.43000e+02	9.65404e-01	1.61500e+02
745	1.61964e+02	7.45000e+02	9.65335e-01	1.62500e+02
747	1.62974e+02	7.47000e+02	9.65269e-01	1.63500e+02
749	1.63976e+02	7.49000e+02	9.65219e-01	1.64500e+02
751	1.64990e+02	7.51000e+02	9.65177e-01	1.65500e+02
753	1.65988e+02	7.53000e+02	9.65147e-01	1.66500e+02
755	1.66989e+02	7.55000e+02	9.65115e-01	1.67500e+02
757	1.68007e+02	7.57000e+02	9.65087e-01	1.68500e+02
759	1.69016e+02	7.59000e+02	9.65063e-01	1.69500e+02
761	1.70027e+02	7.61000e+02	9.65036e-01	1.70500e+02
763	1.71037e+02	7.63000e+02	9.64998e-01	1.71500e+02
765	1.72039e+02	7.65000e+02	9.64946e-01	1.72500e+02
767	1.73036e+02	7.67000e+02	9.64894e-01	1.73500e+02
769	1.74056e+02	7.69000e+02	9.64843e-01	1.74500e+02
771	1.75068e+02	7.71000e+02	9.64803e-01	1.75500e+02
773	1.76068e+02	7.73000e+02	9.64786e-01	1.76500e+02
775	1.77087e+02	7.75000e+02	9.64773e-01	1.77500e+02
777	1.78090e+02	7.77000e+02	9.64771e-01	1.78500e+02
779	1.79108e+02	7.79000e+02	9.64754e-01	1.79500e+02
781	1.80111e+02	7.81000e+02	9.64723e-01	1.80500e+02
783	1.81118e+02	7.83000e+02	9.64702e-01	1.81500e+02
785	1.82126e+02	7.85000e+02	9.64698e-01	1.82500e+02
787	1.83137e+02	7.87000e+02	9.64699e-01	1.83500e+02
789	1.84151e+02	7.89000e+02	9.64700e-01	1.84500e+02
791	1.85147e+02	7.91000e+02	9.64666e-01	1.85500e+02
793	1.86162e+02	7.93000e+02	9.64581e-01	1.86500e+02
795	1.87170e+02	7.95000e+02	9.64499e-01	1.87500e+02
797	1.88185e+02	7.97000e+02	9.64399e-01	1.88500e+02
799	1.89192e+02	7.99000e+02	9.64306e-01	1.89500e+02
801	1.90206e+02	8.01000e+02	9.64207e-01	1.90500e+02
803	1.91220e+02	8.03000e+02	9.64090e-01	1.91500e+02
805	1.92227e+02	8.05000e+02	9.63945e-01	1.92500e+02
807	1.93225e+02	8.07000e+02	9.63802e-01	1.93500e+02
809	1.94243e+02	8.09000e+02	9.63650e-01	1.94500e+02
811	1.95269e+02	8.11000e+02	9.63509e-01	1.95500e+02
813	1.96276e+02	8.13000e+02	9.63387e-01	1.96500e+02
815	1.97283e+02	8.15000e+02	9.63265e-01	1.97500e+02
817	1.98297e+02	8.17000e+02	9.63144e-01	1.98500e+02
819	1.99298e+02	8.19000e+02	9.63001e-01	1.99500e+02
821	2.00331e+02	8.21000e+02	9.62818e-01	2.00500e+02
823	2.01336e+02	8.23000e+02	9.62625e-01	2.01500e+02
825	2.02351e+02	8.25000e+02	9.62413e-01	2.02500e+02
827	2.03351e+02	8.27000e+02	9.62225e-01	2.03500e+02
829	2.04386e+02	8.29000e+02	9.62050e-01	2.04500e+02
831	2.05397e+02	8.31000e+02	9.61863e-01	2.05500e+02
833	2.06413e+02	8.33000e+02	9.61653e-01	2.06500e+02
835	2.07415e+02	8.35000e+02	9.61425e-01	2.07500e+02
837	2.08437e+02	8.37000e+02	9.61160e-01	2.08500e+02
839	2.09447e+02	8.39000e+02	9.60885e-01	2.09500e+02
841	2.10457e+02	8.41000e+02	9.60580e-01	2.10500e+02
843	2.11478e+02	8.43000e+02	9.60286e-01	2.11500e+02
845	2.12492e+02	8.45000e+02	9.60006e-01	2.12500e+02
847	2.13514e+02	8.47000e+02	9.59755e-01	2.13500e+02
849	2.14529e+02	8.49000e+02	9.59551e-01	2.14500e+02
851	2.15558e+02	8.51000e+02	9.59327e-01	2.15500e+02
853	2.16562e+02	8.53000e+02	9.59104e-01	2.16500e+02
855	2.17562e+02	8.55000e+02	9.58875e-01	2.17500e+02
857	2.18593e+02	8.57000e+02	9.58634e-01	2.18500e+02
859	2.19617e+02	8.59000e+02	9.58395e-01	2.19500e+02
861	2.20628e+02	8.61000e+02	9.58146e-01	2.20500e+02
863	2.21647e+02	8.63000e+02	9.57888e-01	2.21500e+02
865	2.22660e+02	8.65000e+02	9.57619e-01	2.22500e+02
867	2.23664e+02	8.67000e+02	9.57359e-01	2.23500e+02
869	2.24696e+02	8.69000e+02	9.57104e-01	2.24500e+02
871	2.25709e+02	8.71000e+02	9.56853e-01	2.25500e+02
873	2.26715e+02	8.73000e+02	9.56600e-01	2.26500e+02
875	2.27729e+02	8.75000e+02	9.56337e-01	2.27500e+02
877	2.28731e+02	8.77000e+02	9.56049e-01	2.28500e+02
879	2.29740e+02	8.79000e+02	9.55738e-01	2.29500e+02
881	2.30748e+02	8.81000e+02	9.55383e-01	2.30500e+02
883	2.31762e+02	8.83000e+02	9.55043e-01	2.31500e+02
885	2.32767e+02	8.85000e+02	9.54714e-01	2.32500e+02
887	2.33778e+02	8.87000e+02	9.54411e-01	2.33500e+02
889	2.34796e+02	8.89000e+02	9.54151e-01	2.34500e+02
891	2.35806e+02	8.91000e+02	9.53885e-01	2.35500e+02
893	2.36803e+02	8.93000e+02	9.53633e-01	2.36500e+02
895	2.37816e+02	8.95000e+02	9.53376e-01	2.37500e+02
897	2.38829e+02	8.97000e+02	9.53113e-01	2.38500e+02
899	2.39848e+02	8.99000e+02	9.52840e-01	2.39500e+02
901	2.40841e+02	9.01000e+02	9.52545e-01	2.40500e+02
903	2.41873e+02	9.03000e+02	9.52238e-01	2.41500e+02
905	2.42885e+02	9.05000e+02	9.51910e-01	2.42500e+02
907	2.43911e+02	9.07000e+02	9.51565e-01	2.43500e+02
909	2.44932e+02	9.09000e+02	9.51185e-01	2.44500e+02
911	2.45944e+02	9.11000e+02	9.50809e-01	2.45500e+02
913	2.46950e+02	9.13000e+02	9.50415e-01	2.46500e+02
915	2.47972e+02	9.15000e+02	9.50029e-01	2.47500e+02
917	2.48995e+02	9.17000e+02	9.49657e-01	2.48500e+02
919	2.50012e+02	9.19000e+02	9.49303e-01	2.49500e+02
921	2.51016e+02	9.21000e+02	9.48987e-01	2.50500e+02
923	2.52022e+02	9.23000e+02	9.48674e-01	2.51500e+02
925	2.53035e+02	9.25000e+02	9.48378e-01	2.52500e+02
927	2.54056e+02	9.27000e+02	9.48062e-01	2.53500e+02
929	2.55069e+02	9.29000e+02	9.47714e-01	2.54500e+02
931	2.56083e+02	9.31000e+02	9.47361e-01	2.55500e+02
933	2.57096e+02	9.33000e+02	9.46995e-01	2.56500e+02
935	2.58118e+02	9.35000e+02	9.46630e-01	2.57500e+02
937	2.59129e+02	9.37000e+02	9.46260e-01	2.58500e+02
939	2.60147e+02	9.39000e+02	9.45875e-01	2.59500e+02
941	2.61166e+02	9.41000e+02	9.45463e-01	2.60500e+02
943	2.62184e+02	9.43000e+02	9.45050e-01	2.61500e+02
945	2.63203e+02	9.45000e+02	9.44646e-01	2.62500e+02
947	2.64216e+02	9.47000e+02	9.44267e-01	2.63500e+02
949	2.65224e+02	9.49000e+02	9.43939e-01	2.64500e+02
951	2.66246e+02	9.51000e+02	9.43619e-01	2.65500e+02
953	2.67264e+02	9.53000e+02	9.43315e-01	2.66500e+02
955	2.68280e+02	9.55000e+02	9.42987e-01	2.67500e+02
957	2.69292e+02	9.57000e+02	9.42627e-01	2.68500e+02
959	2.70310e+02	9.59000e+02	9.42250e-01	2.69500e+02
961	2.71348e+02	9.61000e+02	9.41841e-01	2.70500e+02
963	2.72363e+02	9.63000e+02	9.41428e-01	2.71500e+02
965	2.73385e+02	9.65000e+02	9.40989e-01	2.72500e+02
967	2.74395e+02	9.67000e+02	9.40554e-01	2.73500e+02
969	2.75413e+02	9.69000e+02	9.40122e-01	2.74500e+02
971	2.76412e+02	9.71000e+02	9.39702e-01	2.75500e+02
973	2.77443e+02	9.73000e+02	9.39292e-01	2.76500e+02
975	2.78448e+02	9.75000e+02	9.38857e-01	2.77500e+02
977	2.79468e+02	9.77000e+02	9.38387e-01	2.78500e+02
979	2.80473e+02	9.79000e+02	9.37908e-01	2.79500e+02
981	2.81487e+02	9.81000e+02	9.37405e-01	2.80500e+02
983	2.82497e+02	9.83000e+02	9.36919e-01	2.81500e+02
985	2.83526e+02	9.85000e+02	9.36451e-01	2.82500e+02
987	2.84538e+02	9.87000e+02	9.35994e-01	2.83500e+02
989	2.85546e+02	9.89000e+02	9.35571e-01	2.84500e+02
991	2.86560e+02	9.91000e+02	9.35148e-01	2.85500e+02
993	2.87582e+02	9.93000e+02	9.34733e-01	2.86500e+02
995	2.88581e+02	9.95000e+02	9.34296e-01	2.87500e+02
997	2.89607e+02	9.97000e+02	9.33821e-01	2.88500e+02
999	2.90620e+02	9.99000e+02	9.33335e-01	2.89500e+02
1001	2.91632e+02	1.00100e+03	9.32809e-01	2.90500e+02
1003	2.92633e+02	1.00300e+03	9.32270e-01	2.91500e+02
1005	2.93646e+02	1.00500e+03	9.31677e-01	2.92500e+02
1007	2.94653e+02	1.00700e+03	9.31061e-01	2.93500e+02
1009	2.95658e+02	1.00900e+03	9.30385e-01	2.94500e+02
1011	2.96653e+02	1.01100e+03	9.29714e-01	2.95500e+02
1013	2.97680e+02	1.01300e+03	9.29026e-01	2.96500e+02
1015	2.98673e+02	1.01500e+03	9.28345e-01	2.97500e+02
1017	2.99679e+02	1.01700e+03	9.27657e-01	2.98500e+02
1019	3.00674e+02	1.01900e+03	9.26954e-01	2.99500e+02
1021	3.01683e+02	1.02100e+03	9.26231e-01	3.00500e+02
1023	3.02691e+02	1.02300e+03	9.25512e-01	3.01500e+02
1025	3.03700e+02	1.02500e+03	9.24789e-01	3.02500e+02
1027	3.04717e+02	1.02700e+03	9.24064e-01	3.03500e+02
1029	3.05726e+02	1.02900e+03	9.23319e-01	3.04500e+02
1031	3.06732e+02	1.03100e+03	9.22553e-01	3.05500e+02
1033	3.07760e+02	1.03300e+03	9.21755e-01	3.06500e+02
1035	3.08760e+02	1.03500e+03	9.20957e-01	3.07500e+02
1037	3.09756e+02	1.03700e+03	9.20116e-01	3.08500e+02
1039	3.10776e+02	1.03900e+03	9.19237e-01	3.09500e+02
1041	3.11783e+02	1.04100e+03	9.18272e-01	3.10500e+02
1043	3.12779e+02	1.04300e+03	9.17285e-01	3.11500e+02
1045	3.13790e+02	1.04500e+03	9.16216e-01	3.12500e+02
1047	3.14809e+02	1.04700e+03	9.15147e-01	3.13500e+02
1049	3.15844e+02	1.04900e+03	9.14046e-01	3.14500e+02
1051	3.16854e+02	1.05100e+03	9.12956e-01	3.15500e+02
1053	3.17852e+02	1.05300e+03	9.11863e-01	3.16500e+02
1055	3.18891e+02	1.05500e+03	9.10764e-01	3.17500e+02
1057	3.19936e+02	1.05700e+03	9.09656e-01	3.18500e+02
1059	3.20958e+02	1.05900e+03	9.08542e-01	3.19500e+02
1061	3.21960e+02	1.06100e+03	9.07414e-01	3.20500e+02
1063	3.22982e+02	1.06300e+03	9.06291e-01	3.21500e+02
1065	3.23953e+02	1.06500e+03	9.05171e-01	3.22500e+02
1067	3.24957e+02	1.06700e+03	9.04052e-01	3.23500e+02
1069	3.25953e+02	1.06900e+03	9.02936e-01	3.24500e+02
1071	3.26963e+02	1.07100e+03	9.01815e-01	3.25500e+02
1073	3.27978e+02	1.07300e+03	9.00670e-01	3.26500e+02
1075	3.28987e+02	1.07500e+03	8.99501e-01	3.27500e+02
1077	3.29989e+02	1.07700e+03	8.98274e-01	3.28500e+02
1079	3.30994e+02	1.07900e+03	8.97030e-01	3.29500e+02
1081	3.31980e+02	1.08100e+03	8.95725e-01	3.30500e+02
1083	3.33004e+02	1.08300e+03	8.94417e-01	3.31500e+02
1085	3.34019e+02	1.08500e+03	8.93056e-01	3.32500e+02
1087	3.35009e+02	1.08700e+03	8.91663e-01	3.33500e+02
1089	3.36019e+02	1.08900e+03	8.90181e-01	3.34500e+02
1091	3.37031e+02	1.09100e+03	8.88664e-01	3.35500e+02
1093	3.38048e+02	1.09300e+03	8.87044e-01	3.36500e+02
1095	3.39048e+02	1.09500e+03	8.85402e-01	3.37500e+02
1097	3.40055e+02	1.09700e+03	8.83638e-01	3.38500e+02
1099	3.41053e+02	1.09900e+03	8.81817e-01	3.39500e+02
1101	3.42038e+02	1.10100e+03	8.79823e-01	3.40500e+02
1103	3.43044e+02	1.10300e+03	8.77764e-01	3.41500e+02
1105	3.44063e+02	1.10500e+03	8.75494e-01	3.42500e+02
1107	3.45075e+02	1.10700e+03	8.73158e-01	3.43500e+02
1109	3.46082e+02	1.10900e+03	8.70587e-01	3.44500e+02
1111	3.47084e+02	1.11100e+03	8.67957e-01	3.45500e+02
1113	3.48096e+02	1.11300e+03	8.65079e-01	3.46500e+02
1115	3.49100e+02	1.11500e+03	8.62122e-01	3.47500e+02
1117	3.50120e+02	1.11700e+03	8.58863e-01	3.48500e+02
1119	3.51128e+02	1.11900e+03	8.55495e-01	3.49500e+02
1121	3.52137e+02	1.12100e+03	8.51741e-01	3.50500e+02
1123	3.53141e+02	1.12300e+03	8.47872e-01	3.51500e+02
1125	3.54146e+02	1.12500e+03	8.43576e-01	3.52500e+02
1127	3.55144e+02	1.12700e+03	8.39176e-01	3.53500e+02
1129	3.56138e+02	1.12900e+03	8.34336e-01	3.54500e+02
1131	3.57153e+02	1.13100e+03	8.29365e-01	3.55500e+02
1133	3.58146e+02	1.13300e+03	8.23827e-01	3.56500e+02
1135	3.59151e+02	1.13500e+03	8.18011e-01	3.57500e+02
1137	3.60148e+02	1.13700e+03	8.11300e-01	3.58500e+02
1139	3.61173e+02	1.13900e+03	8.04224e-01	3.59500e+02
1141	3.62152e+02	1.14100e+03	7.95960e-01	3.60500e+02
1143	3.63166e+02	1.14300e+03	7.87384e-01	3.61500e+02
1145	3.64166e+02	1.14500e+03	7.77636e-01	3.62500e+02
1147	3.65157e+02	1.14700e+03	7.67734e-01	3.63500e+02
1149	3.66165e+02	1.14900e+03	7.56932e-01	3.64500e+02
1151	3.67168e+02	1.15100e+03	7.46020e-01	3.65500e+02
1153	3.68175e+02	1.15300e+03	7.34353e-01	3.66500e+02
1155	3.69163e+02	1.15500e+03	7.22448e-01	3.67500e+02
1157	3.70164e+02	1.15700e+03	7.09645e-01	3.68500e+02
1159	3.71160e+02	1.15900e+03	6.96576e-01	3.69500e+02
1161	3.72146e+02	1.16100e+03	6.82597e-01	3.70500e+02
1163	3.73144e+02	1.16300e+03	6.68516e-01	3.71500e+02
1165	3.74142e+02	1.16500e+03	6.53753e-01	3.72500e+02
1167	3.75151e+02	1.16700e+03	6.38901e-01	3.73500e+02
1169	3.76145e+02	1.16900e+03	6.23473e-01	3.74500e+02
1171	3.77148e+02	1.17100e+03	6.07890e-01	3.75500e+02
1173	3.78134e+02	1.17300e+03	5.91691e-01	3.76500e+02
1175	3.79131e+02	1.17500e+03	5.75359e-01	3.77500e+02
1177	3.80124e+02	1.17700e+03	5.58456e-01	3.78500e+02
1179	3.81116e+02	1.17900e+03	5.41494e-01	3.79500e+02
1181	3.82124e+02	1.18100e+03	5.24117e-01	3.80500e+02
1183	3.83120e+02	1.18300e+03	5.06711e-01	3.81500e+02
1185	3.84147e+02	1.18500e+03	4.89002e-01	3.82500e+02
1187	3.85133e+02	1.18700e+03	4.71264e-01	3.83500e+02
1189	3.86135e+02	1.18900e+03	4.53375e-01	3.84500e+02
1191	3.87145e+02	1.19100e+03	4.35579e-01	3.85500e+02
1193	3.88134e+02	1.19300e+03	4.17816e-01	3.86500e+02
1195	3.89130e+02	1.19500e+03	4.00000e-01	3.87500e+02
1197	3.90130e+02	1.19700e+03	3.82060e-01	3.88500e+02
1199	3.91127e+02	1.19900e+03	3.63997e-01	3.89500e+02
1201	3.92116e+02	1.20100e+03	3.45781e-01	3.90500e+02
1203	3.93119e+02	1.20300e+03	3.27713e-01	3.91500e+02
1205	3.94132e+02	1.20500e+03	3.09836e-01	3.92500e+02
1207	3.95165e+02	1.20700e+03	2.92069e-01	3.93500e+02
1209	3.96164e+02	1.20900e+03	2.74560e-01	3.94500e+02
1211	3.97173e+02	1.21100e+03	2.57049e-01	3.95500e+02
1213	3.98190e+02	1.21300e+03	2.39762e-01	3.96500e+02
1215	3.99202e+02	1.21500e+03	2.22638e-01	3.97500e+02
1217	4.00218e+02	1.21700e+03	2.06011e-01	3.98500e+02
1219	4.01279e+02	1.21900e+03	1.89664e-01	3.99500e+02
1221	4.02377e+02	1.22100e+03	1.74144e-01	4.00500e+02
1223	4.03383e+02	1.22300e+03	1.58930e-01	4.01500e+02
1225	4.04400e+02	1.22500e+03	1.44776e-01	4.02500e+02
1227	4.05458e+02	1.22700e+03	1.30945e-01	4.03500e+02
1229	4.06500e+02	1.22900e+03	1.18301e-01	4.04500e+02
1231	4.07623e+02	1.23100e+03	1.05950e-01	4.05500e+02
1233	4.08717e+02	1.23300e+03	9.48186e-02	4.06500e+02
1235	4.09724e+02	1.23500e+03	8.39930e-02	4.07500e+02
1237	4.10722e+02	1.23700e+03	7.44311e-02	4.08500e+02
1239	4.11707e+02	1.23900e+03	6.51793e-02	4.09500e+02
1241	4.12692e+02	1.24100e+03	5.71894e-02	4.10500e+02
1243	4.13708e+02	1.24300e+03	4.94429e-02	4.11500e+02
1245	4.14710e+02	1.24500e+03	4.28261e-02	4.12500e+02
1247	4.15695e+02	1.24700e+03	3.63904e-02	4.13500e+02
1249	4.16727e+02	1.24900e+03	3.09123e-02	4.14500e+02
1251	4.17711e+02	1.25100e+03	2.56063e-02	4.15500e+02
1253	4.18703e+02	1.25300e+03	2.11547e-02	4.16500e+02
1255	4.19667e+02	1.25500e+03	1.68661e-02	4.17500e+02
1257	4.20659e+02	1.25700e+03	1.33279e-02	4.18500e+02
1259	4.21643e+02	1.25900e+03	9.89250e-03	4.19500e+02
1261	4.22642e+02	1.26100e+03	7.05197e-03	4.20500e+02
1263	4.23619e+02	1.26300e+03	4.29701e-03	4.21500e+02
1265	4.24618e+02	1.26500e+03	2.03541e-03	4.22500e+02
1267	4.25648e+02	1.26700e+03	-1.40500e-04	4.23500e+02
1269	4.26658e+02	1.26900e+03	-1.90597e-03	4.24500e+02
1271	4.27668e+02	1.27100e+03	-3.62943e-03	4.25500e+02
1273	4.28650e+02	1.27300e+03	-5.05602e-03	4.26500e+02
1275	4.29624e+02	1.27500e+03	-6.44933e-03	4.27500e+02
1277	4.30631e+02	1.27700e+03	-7.60726e-03	4.28500e+02
1279	4.31634e+02	1.27900e+03	-8.71992e-03	4.29500e+02
1281	4.32639e+02	1.28100e+03	-9.62596e-03	4.30500e+02
1283	4.33652e+02	1.28300e+03	-1.05023e-02	4.31500e+02
1285	4.34663e+02	1.28500e+03	-1.12108e-02	4.32500e+02
1287	4.35645e+02	1.28700e+03	-1.18988e-02	4.33500e+02
1289	4.36639e+02	1.28900e+03	-1.24682e-02	4.34500e+02
1291	4.37636e+02	1.29100e+03	-1.30388e-02	4.35500e+02
1293	4.38639e+02	1.29300e+03	-1.35478e-02	4.36500e+02
1295	4.39618e+02	1.29500e+03	-1.40495e-02	4.37500e+02
1297	4.40634e+02	1.29700e+03	-1.45041e-02	4.38500e+02
1299	4.41621e+02	1.29900e+03	-1.49356e-02	4.39500e+02
1301	4.42637e+02	1.30100e+03	-1.53058e-02	4.40500e+02
1303	4.43636e+02	1.30300e+03	-1.56672e-02	4.41500e+02
1305	4.44635e+02	1.30500e+03	-1.59796e-02	4.42500e+02
1307	4.45657e+02	1.30700e+03	-1.62907e-02	4.43500e+02
1309	4.46676e+02	1.30900e+03	-1.65706e-02	4.44500e+02
1311	4.47722e+02	1.31100e+03	-1.68438e-02	4.45500e+02
1313	4.48722e+02	1.31300e+03	-1.70624e-02	4.46500e+02
1315	4.49692e+02	1.31500e+03	-1.72459e-02	4.47500e+02
1317	4.50717e+02	1.31700e+03	-1.73592e-02	4.48500e+02
1319	4.51906e+02	1.31900e+03	-1.74841e-02	4.49500e+02
1321	4.52955e+02	1.32100e+03	-1.75961e-02	4.50500e+02
1323	4.53869e+02	1.32300e+03	-1.77176e-02	4.51500e+02
1325	4.54798e+02	1.32500e+03	-1.78472e-02	4.52500e+02
1327	4.55745e+02	1.32700e+03	-1.79696e-02	4.53500e+02
1329	4.56723e+02	1.32900e+03	-1.80743e-02	4.54500e+02
1331	4.57632e+02	1.33100e+03	-1.81625e-02	4.55500e+02
1333	4.58552e+02	1.33300e+03	-1.82063e-02	4.56500e+02
1335	4.59494e+02	1.33500e+03	-1.82355e-02	4.57500e+02
1337	4.60412e+02	1.33700e+03	-1.82156e-02	4.58500e+02
1339	4.61343e+02	1.33900e+03	-1.81993e-02	4.59500e+02
1341	4.62255e+02	1.34100e+03	-1.81697e-02	4.60500e+02
1343	4.63167e+02	1.34300e+03	-1.81604e-02	4.61500e+02
1345	4.64114e+02	1.34500e+03	-1.81883e-02	4.62500e+02
1347	4.65072e+02	1.34700e+03	-1.82414e-02	4.63500e+02
1349	4.66035e+02	1.34900e+03	-1.83471e-02	4.64500e+02
1351	4.66996e+02	1.35100e+03	-1.84360e-02	4.65500e+02
1353	4.67977e+02	1.35300e+03	-1.85131e-02	4.66500e+02
1355	4.68956e+02	1.35500e+03	-1.85628e-02	4.67500e+02
1357	4.69915e+02	1.35700e+03	-1.85647e-02	4.68500e+02
1359	4.70883e+02	1.35900e+03	-1.85646e-02	4.69500e+02
1361	4.71852e+02	1.36100e+03	-1.85397e-02	4.70500e+02
1363	4.72821e+02	1.36300e+03	-1.85281e-02	4.71500e+02
1365	4.73792e+02	1.36500e+03	-1.85326e-02	4.72500e+02
1367	4.74767e+02	1.36700e+03	-1.85557e-02	4.73500e+02
1369	4.75745e+02	1.36900e+03	-1.86065e-02	4.74500e+02
1371	4.76730e+02	1.37100e+03	-1.86451e-02	4.75500e+02
1373	4.77710e+02	1.37300e+03	-1.86841e-02	4.76500e+02
1375	4.78696e+02	1.37500e+03	-1.87248e-02	4.77500e+02
1377	4.79681e+02	1.37700e+03	-1.87602e-02	4.78500e+02
1379	4.80657e+02	1.37900e+03	-1.87818e-02	4.79500e+02
1381	4.81649e+02	1.38100e+03	-1.87732e-02	4.80500e+02
1383	4.82627e+02	1.38300e+03	-1.87648e-02	4.81500e+02
1385	4.83608e+02	1.38500e+03	-1.87608e-02	4.82500e+02
1387	4.84600e+02	1.38700e+03	-1.87897e-02	4.83500e+02
1389	4.85588e+02	1.38900e+03	-1.88541e-02	4.84500e+02
1391	4.86578e+02	1.39100e+03	-1.88906e-02	4.85500e+02
1393	4.87554e+02	1.39300e+03	-1.88999e-02	4.86500e+02
1395	4.88521e+02	1.39500e+03	-1.88993e-02	4.87500e+02
1397	4.89505e+02	1.39700e+03	-1.88731e-02	4.88500e+02
1399	4.90502e+02	1.39900e+03	-1.88612e-02	4.89500e+02
1401	4.91489e+02	1.40100e+03	-1.88645e-02	4.90500e+02
1403	4.92467e+02	1.40300e+03	-1.88867e-02	4.91500e+02
1405	4.93477e+02	1.40500e+03	-1.89523e-02	4.92500e+02
1407	4.94517e+02	1.40700e+03	-1.90220e-02	4.93500e+02
1409	4.95545e+02	1.40900e+03	-1.91011e-02	4.94500e+02
1411	4.96555e+02	1.41100e+03	-1.91488e-02	4.95500e+02
1413	4.97579e+02	1.41300e+03	-1.91546e-02	4.96500e+02
1415	4.98599e+02	1.41500e+03	-1.91649e-02	4.97500e+02
1417	4.99678e+02	1.41700e+03	-1.91603e-02	4.98500e+02
1419	5.00681e+02	1.41900e+03	-1.91655e-02	4.99500e+02
1421	5.01660e+02	1.42100e+03	-1.91802e-02	5.00500e+02
1423	5.02634e+02	1.42300e+03	-1.91987e-02	5.01500e+02
1425	5.03649e+02	1.42500e+03	-1.92294e-02	5.02500e+02
1427	5.04598e+02	1.42700e+03	-1.92604e-02	5.03500e+02
1429	5.05551e+02	1.42900e+03	-1.92887e-02	5.04500e+02
1431	5.06520e+02	1.43100e+03	-1.92988e-02	5.05500e+02
1433	5.07486e+02	1.43300e+03	-1.92715e-02	5.06500e+02
1435	5.08471e+02	1.43500e+03	-1.92371e-02	5.07500e+02
1437	5.09422e+02	1.43700e+03	-1.91914e-02	5.08500e+02
1439	5.10383e+02	1.43900e+03	-1.91739e-02	5.09500e+02
1441	5.11357e+02	1.44100e+03	-1.91911e-02	5.10500e+02
1443	5.12336e+02	1.44300e+03	-1.92020e-02	5.11500e+02
1445	5.13317e+02	1.44500e+03	-1.92243e-02	5.12500e+02
1447	5.14289e+02	1.44700e+03	-1.92613e-02	5.13500e+02
1449	5.15277e+02	1.44900e+03	-1.93547e-02	5.14500e+02
1451	5.16258e+02	1.45100e+03	-1.94636e-02	5.15500e+02
1453	5.17231e+02	1.45300e+03	-1.95531e-02	5.16500e+02
1455	5.18208e+02	1.45500e+03	-1.95536e-02	5.17500e+02
1457	5.19189e+02	1.45700e+03	-1.94247e-02	5.18500e+02
1459	5.20174e+02	1.45900e+03	-1.93266e-02	5.19500e+02
1461	5.21158e+02	1.46100e+03	-1.92386e-02	5.20500e+02
1463	5.22141e+02	1.46300e+03	-1.91965e-02	5.21500e+02
1465	5.23132e+02	1.46500e+03	-1.92327e-02	5.22500e+02
1467	5.24126e+02	1.46700e+03	-1.92629e-02	5.23500e+02
1469	5.25119e+02	1.46900e+03	-1.93140e-02	5.24500e+02
1471	5.26110e+02	1.47100e+03	-1.93598e-02	5.25500e+02
1473	5.27101e+02	1.47300e+03	-1.94037e-02	5.26500e+02
1475	5.28075e+02	1.47500e+03	-1.94464e-02	5.27500e+02
1477	5.29056e+02	1.47700e+03	-1.94791e-02	5.28500e+02
1479	5.30037e+02	1.47900e+03	-1.95033e-02	5.29500e+02
1481	5.31016e+02	1.48100e+03	-1.95073e-02	5.30500e+02
1483	5.32002e+02	1.48300e+03	-1.95050e-02	5.31500e+02
1485	5.32972e+02	1.48500e+03	-1.94869e-02	5.32500e+02
1487	5.33949e+02	1.48700e+03	-1.94719e-02	5.33500e+02
1489	5.34928e+02	1.48900e+03	-1.94468e-02	5.34500e+02
1491	5.35907e+02	1.49100e+03	-1.94225e-02	5.35500e+02
1493	5.36887e+02	1.49300e+03	-1.94136e-02	5.36500e+02
1495	5.37874e+02	1.49500e+03	-1.94312e-02	5.37500e+02
1497	5.38850e+02	1.49700e+03	-1.94938e-02	5.38500e+02
1499	5.39836e+02	1.49900e+03	-1.95527e-02	5.39500e+02
1501	5.40801e+02	1.50100e+03	-1.96120e-02	5.40500e+02
1503	5.41804e+02	1.50300e+03	-1.96394e-02	5.41500e+02
1505	5.42787e+02	1.50500e+03	-1.96190e-02	5.42500e+02
1507	5.43791e+02	1.50700e+03	-1.95971e-02	5.43500e+02
1509	5.44791e+02	1.50900e+03	-1.95596e-02	5.44500e+02
1511	5.45778e+02	1.51100e+03	-1.95447e-02	5.45500e+02
1513	5.46772e+02	1.51300e+03	-1.95625e-02	5.46500e+02
1515	5.47763e+02	1.51500e+03	-1.95876e-02	5.47500e+02
1517	5.48771e+02	1.51700e+03	-1.96328e-02	5.48500e+02
1519	5.49805e+02	1.51900e+03	-1.96617e-02	5.49500e+02
1521	5.50850e+02	1.52100e+03	-1.96735e-02	5.50500e+02
1523	5.51884e+02	1.52300e+03	-1.96837e-02	5.51500e+02
1525	5.52984e+02	1.52500e+03	-1.96896e-02	5.52500e+02
1527	5.54235e+02	1.52700e+03	-1.97037e-02	5.53500e+02
1529	5.56122e+02	1.52900e+03	-1.97447e-02	5.54500e+02
1531	5.56888e+02	1.53100e+03	-1.97961e-02	5.55500e+02
1533	5.57757e+02	1.53300e+03	-1.98543e-02	5.56500e+02
1535	5.58651e+02	1.53500e+03	-1.98694e-02	5.57500e+02
1537	5.59588e+02	1.53700e+03	-1.97928e-02	5.58500e+02
1539	5.60553e+02	1.53900e+03	-1.96981e-02	5.59500e+02
1541	5.61503e+02	1.54100e+03	-1.95665e-02	5.60500e+02
1543	5.62468e+02	1.54300e+03	-1.94991e-02	5.61500e+02
1545	5.63429e+02	1.54500e+03	-1.95203e-02	5.62500e+02
1547	5.64393e+02	1.54700e+03	-1.95442e-02	5.63500e+02
1549	5.65356e+02	1.54900e+03	-1.96069e-02	5.64500e+02
1551	5.66328e+02	1.55100e+03	-1.96375e-02	5.65500e+02
1553	5.67295e+02	1.55300e+03	-1.96305e-02	5.66500e+02
1555	5.68256e+02	1.55500e+03	-1.96154e-02	5.67500e+02
1557	5.69239e+02	1.55700e+03	-1.95908e-02	5.68500e+02
1559	5.70218e+02	1.55900e+03	-1.95959e-02	5.69500e+02
1561	5.71196e+02	1.56100e+03	-1.96311e-02	5.70500e+02
1563	5.72185e+02	1.56300e+03	-1.96593e-02	5.71500e+02
1565	5.73166e+02	1.56500e+03	-1.96888e-02	5.72500e+02
1567	5.74141e+02	1.56700e+03	-1.97139e-02	5.73500e+02
1569	5.75129e+02	1.56900e+03	-1.97231e-02	5.74500e+02
1571	5.76118e+02	1.57100e+03	-1.97207e-02	5.75500e+02
1573	5.77103e+02	1.57300e+03	-1.96898e-02	5.76500e+02
1575	5.78089e+02	1.57500e+03	-1.96507e-02	5.77500e+02
1577	5.79074e+02	1.57700e+03	-1.95959e-02	5.78500e+02
1579	5.80066e+02	1.57900e+03	-1.95627e-02	5.79500e+02
1581	5.81063e+02	1.58100e+03	-1.95622e-02	5.80500e+02
1583	5.82057e+02	1.58300e+03	-1.95745e-02	5.81500e+02
1585	5.83049e+02	1.58500e+03	-1.96145e-02	5.82500e+02
1587	5.84029e+02	1.58700e+03	-1.96361e-02	5.83500e+02
1589	5.85005e+02	1.58900e+03	-1.96370e-02	5.84500e+02
1591	5.85987e+02	1.59100e+03	-1.96251e-02	5.85500e+02
1593	5.86967e+02	1.59300e+03	-1.95886e-02	5.86500e+02
1595	5.87959e+02	1.59500e+03	-1.95675e-02	5.87500e+02
1597	5.88941e+02	1.59700e+03	-1.95629e-02	5.88500e+02
1599	5.89907e+02	1.59900e+03	-1.95710e-02	5.89500e+02
1601	5.90896e+02	1.60100e+03	-1.96057e-02	5.90500e+02
1603	5.91866e+02	1.60300e+03	-1.96344e-02	5.91500e+02
1605	5.92842e+02	1.60500e+03	-1.96648e-02	5.92500e+02
1607	5.93827e+02	1.60700e+03	-1.96883e-02	5.93500e+02
1609	5.94798e+02	1.60900e+03	-1.97073e-02	5.94500e+02
1611	5.95775e+02	1.61100e+03	-1.97366e-02	5.95500e+02
1613	5.96753e+02	1.61300e+03	-1.97739e-02	5.96500e+02
1615	5.97740e+02	1.61500e+03	-1.98078e-02	5.97500e+02
1617	5.98738e+02	1.61700e+03	-1.98378e-02	5.98500e+02
1619	5.99711e+02	1.61900e+03	-1.98643e-02	5.99500e+02
1621	6.00704e+02	1.62100e+03	-1.98907e-02	6.00500e+02
1623	6.01694e+02	1.62300e+03	-1.99244e-02	6.01500e+02
1625	6.02688e+02	1.62500e+03	-1.99578e-02	6.02500e+02
1627	6.03686e+02	1.62700e+03	-1.99732e-02	6.03500e+02
1629	6.04677e+02	1.62900e+03	-1.99574e-02	6.04500e+02
1631	6.05663e+02	1.63100e+03	-1.99420e-02	6.05500e+02
1633	6.06663e+02	1.63300e+03	-1.99165e-02	6.06500e+02
1635	6.07660e+02	1.63500e+03	-1.99070e-02	6.07500e+02
1637	6.08662e+02	1.63700e+03	-1.99143e-02	6.08500e+02
1639	6.09669e+02	1.63900e+03	-1.99193e-02	6.09500e+02
1641	6.10647e+02	1.64100e+03	-1.99259e-02	6.10500e+02
1643	6.11642e+02	1.64300e+03	-1.99252e-02	6.11500e+02
1645	6.12619e+02	1.64500e+03	-1.99155e-02	6.12500e+02
1647	6.13610e+02	1.64700e+03	-1.99077e-02	6.13500e+02
1649	6.14593e+02	1.64900e+03	-1.98896e-02	6.14500e+02
1651	6.15604e+02	1.65100e+03	-1.98631e-02	6.15500e+02
1653	6.16597e+02	1.65300e+03	-1.98176e-02	6.16500e+02
1655	6.17566e+02	1.65500e+03	-1.97772e-02	6.17500e+02
1657	6.18552e+02	1.65700e+03	-1.97465e-02	6.18500e+02
1659	6.19527e+02	1.65900e+03	-1.97378e-02	6.19500e+02
1661	6.20501e+02	1.66100e+03	-1.97749e-02	6.20500e+02
1663	6.21470e+02	1.66300e+03	-1.98190e-02	6.21500e+02
1665	6.22434e+02	1.66500e+03	-1.98892e-02	6.22500e+02
1667	6.23384e+02	1.66700e+03	-1.99472e-02	6.23500e+02
1669	6.24363e+02	1.66900e+03	-1.99872e-02	6.24500e+02
1671	6.25342e+02	1.67100e+03	-2.00057e-02	6.25500e+02
1673	6.26312e+02	1.67300e+03	-1.99890e-02	6.26500e+02
1675	6.27279e+02	1.67500e+03	-1.99807e-02	6.27500e+02
1677	6.28238e+02	1.67700e+03	-1.99749e-02	6.28500e+02
1679	6.29202e+02	1.67900e+03	-1.99851e-02	6.29500e+02
1681	6.30186e+02	1.68100e+03	-2.00132e-02	6.30500e+02
1683	6.31157e+02	1.68300e+03	-2.00296e-02	6.31500e+02
1685	6.32144e+02	1.68500e+03	-2.00281e-02	6.32500e+02
1687	6.33121e+02	1.68700e+03	-2.00209e-02	6.33500e+02
1689	6.34104e+02	1.68900e+03	-1.99989e-02	6.34500e+02
1691	6.35099e+02	1.69100e+03	-1.99896e-02	6.35500e+02
1693	6.36090e+02	1.69300e+03	-1.99947e-02	6.36500e+02
1695	6.37070e+02	1.69500e+03	-2.00017e-02	6.37500e+02
1697	6.38045e+02	1.69700e+03	-2.00138e-02	6.38500e+02
1699	6.39021e+02	1.69900e+03	-2.00188e-02	6.39500e+02
1701	6.40003e+02	1.70100e+03	-2.00163e-02	6.40500e+02
1703	6.40987e+02	1.70300e+03	-2.00117e-02	6.41500e+02
1705	6.41952e+02	1.70500e+03	-2.00010e-02	6.42500e+02
1707	6.42940e+02	1.70700e+03	-1.99929e-02	6.43500e+02
1709	6.43922e+02	1.70900e+03	-1.99909e-02	6.44500e+02
1711	6.44908e+02	1.71100e+03	-2.00016e-02	6.45500e+02
1713	6.45879e+02	1.71300e+03	-2.00389e-02	6.46500e+02
1715	6.46846e+02	1.71500e+03	-2.00836e-02	6.47500e+02
1717	6.47826e+02	1.71700e+03	-2.01587e-02	6.48500e+02
1719	6.48807e+02	1.71900e+03	-2.02412e-02	6.49500e+02
1721	6.49774e+02	1.72100e+03	-2.03427e-02	6.50500e+02
1723	6.50749e+02	1.72300e+03	-2.04102e-02	6.51500e+02
1725	6.51738e+02	1.72500e+03	-2.03891e-02	6.52500e+02
1727	6.52708e+02	1.72700e+03	-2.03129e-02	6.53500e+02
1729	6.53687e+02	1.72900e+03	-2.01225e-02	6.54500e+02
1731	6.54670e+02	1.73100e+03	-1.99688e-02	6.55500e+02
1733	6.55656e+02	1.73300e+03	-1.98233e-02	6.56500e+02
1735	6.56642e+02	1.73500e+03	-1.97086e-02	6.57500e+02
1737	6.57611e+02	1.73700e+03	-1.96733e-02	6.58500e+02
1739	6.58582e+02	1.73900e+03	-1.96696e-02	6.59500e+02
1741	6.59565e+02	1.74100e+03	-1.97625e-02	6.60500e+02
1743	6.60531e+02	1.74300e+03	-1.98541e-02	6.61500e+02
1745	6.61492e+02	1.74500e+03	-1.99765e-02	6.62500e+02
1747	6.62470e+02	1.74700e+03	-2.00710e-02	6.63500e+02
1749	6.63455e+02	1.74900e+03	-2.01343e-02	6.64500e+02
1751	6.64442e+02	1.75100e+03	-2.01807e-02	6.65500e+02
1753	6.65426e+02	1.75300e+03	-2.01624e-02	6.66500e+02
1755	6.66397e+02	1.75500e+03	-2.01250e-02	6.67500e+02
1757	6.67364e+02	1.75700e+03	-2.00524e-02	6.68500e+02
1759	6.68332e+02	1.75900e+03	-2.00261e-02	6.69500e+02
1761	6.69321e+02	1.76100e+03	-2.00519e-02	6.70500e+02
1763	6.70292e+02	1.76300e+03	-2.00832e-02	6.71500e+02
1765	6.71276e+02	1.76500e+03	-2.01394e-02	6.72500e+02
1767	6.72247e+02	1.76700e+03	-2.01683e-02	6.73500e+02
1769	6.73231e+02	1.76900e+03	-2.01672e-02	6.74500e+02
1771	6.74215e+02	1.77100e+03	-2.01666e-02	6.75500e+02
1773	6.75201e+02	1.77300e+03	-2.01558e-02	6.76500e+02
1775	6.76187e+02	1.77500e+03	-2.01583e-02	6.77500e+02
1777	6.77170e+02	1.77700e+03	-2.01788e-02	6.78500e+02
1779	6.78162e+02	1.77900e+03	-2.01999e-02	6.79500e+02
1781	6.79153e+02	1.78100e+03	-2.02250e-02	6.80500e+02
1783	6.80135e+02	1.78300e+03	-2.02496e-02	6.81500e+02
1785	6.81126e+02	1.78500e+03	-2.02933e-02	6.82500e+02
1787	6.82117e+02	1.78700e+03	-2.03516e-02	6.83500e+02
1789	6.83107e+02	1.78900e+03	-2.04130e-02	6.84500e+02
1791	6.84092e+02	1.79100e+03	-2.04237e-02	6.85500e+02
1793	6.85087e+02	1.79300e+03	-2.03222e-02	6.86500e+02
1795	6.85748e+02	1.79500e+03	-2.01887e-02	6.87500e+02
1797	6.86192e+02	1.79700e+03	-1.99835e-02	6.88500e+02
1799	6.86919e+02	1.79900e+03	-1.98322e-02	6.89500e+02
1801	6.87646e+02	1.80100e+03	-1.97490e-02	6.90500e+02
1803	6.88305e+02	1.80300e+03	-1.97097e-02	6.91500e+02
1805	6.88938e+02	1.80500e+03	-1.97490e-02	6.92500e+02
1807	6.89519e+02	1.80700e+03	-1.97817e-02	6.93500e+02
1809	6.90067e+02	1.80900e+03	-1.98443e-02	6.94500e+02
1811	6.90574e+02	1.81100e+03	-1.98998e-02	6.95500e+02
1813	6.91065e+02	1.81300e+03	-1.99511e-02	6.96500e+02
1815	6.91518e+02	1.81500e+03	-1.99890e-02	6.97500e+02
1817	6.91937e+02	1.81700e+03	-1.99979e-02	6.98500e+02
1819	6.92335e+02	1.81900e+03	-1.99924e-02	6.99500e+02
1820	6.92528e+02	1.82000e+03	-1.99731e-02	7.00000e+02