File: Experiments/TUBS/tga_nonisotherm/tga_dynamic_n2_dyn30_powdertubs_3mg_r1.txt
index	ts	t	weight	tr
[#]	[°C]	[s]	[mg]	[°C]
683	1.31837e+02	6.83000e+02	2.99354e+00	1.31500e+02
685	1.32856e+02	6.85000e+02	2.99349e+00	1.32500e+02
687	1.33886e+02	6.87000e+02	2.99344e+00	1.33500e+02
689	1.34889e+02	6.89000e+02	2.99341e+00	1.34500e+02
691	1.35910e+02	6.91000e+02	2.99338e+00	1.35500e+02
693	1.36930e+02	6.93000e+02	2.99334e+00	1.36500e+02
695	1.37937e+02	6.95000e+02	2.99330e+00	1.37500e+02
697	1.38955e+02	6.97000e+02	2.99324e+00	1.38500e+02
699	1.39988e+02	6.99000e+02	2.99318e+00	1.39500e+02
701	1.40992e+02	7.01000e+02	2.99311e+00	1.40500e+02
703	1.42022e+02	7.03000e+02	2.99305e+00	1.41500e+02
705	1.43032e+02	7.05000e+02	2.99300e+00	1.42500e+02
707	1.44058e+02	7.07000e+02	2.99294e+00	1.43500e+02
709	1.45068e+02	7.09000e+02	2.99289e+00	1.44500e+02
711	1.46096e+02	7.11000e+02	2.99285e+00	1.45500e+02
713	1.47118e+02	7.13000e+02	2.99282e+00	1.46500e+02
715	1.48140e+02	7.15000e+02	2.99279e+00	1.47500e+02
717	1.49152e+02	7.17000e+02	2.99275e+00	1.48500e+02
719	1.50169e+02	7.19000e+02	2.99270e+00	1.49500e+02
721	1.51185e+02	7.21000e+02	2.99260e+00	1.50500e+02
723	1.52237e+02	7.23000e+02	2.99248e+00	1.51500e+02
725	1.53240e+02	7.25000e+02	2.99233e+00	1.52500e+02
727	1.54272e+02	7.27000e+02	2.99217e+00	1.53500e+02
729	1.55283e+02	7.29000e+02	2.99200e+00	1.54500e+02
731	1.56296e+02	7.31000e+02	2.99183e+00	1.55500e+02
733	1.57321e+02	7.33000e+02	2.99165e+00	1.56500e+02
735	1.58344e+02	7.35000e+02	2.99147e+00	1.57500e+02
737	1.59357e+02	7.37000e+02	2.99129e+00	1.58500e+02
739	1.60394e+02	7.39000e+02	2.99110e+00	1.59500e+02
741	1.61414e+02	7.41000e+02	2.99090e+00	1.60500e+02
743	1.62435e+02	7.43000e+02	2.99070e+00	1.61500e+02
745	1.63445e+02	7.45000e+02	2.99047e+00	1.62500e+02
747	1.64475e+02	7.47000e+02	2.99025e+00	1.63500e+02
749	1.65498e+02	7.49000e+02	2.99002e+00	1.64500e+02
751	1.66526e+02	7.51000e+02	2.98978e+00	1.65500e+02
753	1.67547e+02	7.53000e+02	2.98951e+00	1.66500e+02
755	1.68566e+02	7.55000e+02	2.98922e+00	1.67500e+02
757	1.69599e+02	7.57000e+02	2.98888e+00	1.68500e+02
759	1.70618e+02	7.59000e+02	2.98853e+00	1.69500e+02
761	1.71638e+02	7.61000e+02	2.98814e+00	1.70500e+02
763	1.72660e+02	7.63000e+02	2.98775e+00	1.71500e+02
765	1.73685e+02	7.65000e+02	2.98734e+00	1.72500e+02
767	1.74701e+02	7.67000e+02	2.98693e+00	1.73500e+02
769	1.75733e+02	7.69000e+02	2.98652e+00	1.74500e+02
771	1.76763e+02	7.71000e+02	2.98610e+00	1.75500e+02
773	1.77784e+02	7.73000e+02	2.98564e+00	1.76500e+02
775	1.78810e+02	7.75000e+02	2.98515e+00	1.77500e+02
777	1.79831e+02	7.77000e+02	2.98458e+00	1.78500e+02
779	1.80856e+02	7.79000e+02	2.98397e+00	1.79500e+02
781	1.81870e+02	7.81000e+02	2.98325e+00	1.80500e+02
783	1.82910e+02	7.83000e+02	2.98254e+00	1.81500e+02
785	1.83933e+02	7.85000e+02	2.98176e+00	1.82500e+02
787	1.84954e+02	7.87000e+02	2.98097e+00	1.83500e+02
789	1.85990e+02	7.89000e+02	2.98010e+00	1.84500e+02
791	1.87008e+02	7.91000e+02	2.97918e+00	1.85500e+02
793	1.88037e+02	7.93000e+02	2.97812e+00	1.86500e+02
795	1.89061e+02	7.95000e+02	2.97703e+00	1.87500e+02
797	1.90092e+02	7.97000e+02	2.97581e+00	1.88500e+02
799	1.91121e+02	7.99000e+02	2.97458e+00	1.89500e+02
801	1.92148e+02	8.01000e+02	2.97323e+00	1.90500e+02
803	1.93174e+02	8.03000e+02	2.97185e+00	1.91500e+02
805	1.94202e+02	8.05000e+02	2.97035e+00	1.92500e+02
807	1.95247e+02	8.07000e+02	2.96884e+00	1.93500e+02
809	1.96264e+02	8.09000e+02	2.96723e+00	1.94500e+02
811	1.97292e+02	8.11000e+02	2.96561e+00	1.95500e+02
813	1.98320e+02	8.13000e+02	2.96393e+00	1.96500e+02
815	1.99365e+02	8.15000e+02	2.96225e+00	1.97500e+02
817	2.00389e+02	8.17000e+02	2.96053e+00	1.98500e+02
819	2.01416e+02	8.19000e+02	2.95879e+00	1.99500e+02
821	2.02447e+02	8.21000e+02	2.95700e+00	2.00500e+02
823	2.03479e+02	8.23000e+02	2.95518e+00	2.01500e+02
825	2.04501e+02	8.25000e+02	2.95332e+00	2.02500e+02
827	2.05537e+02	8.27000e+02	2.95147e+00	2.03500e+02
829	2.06553e+02	8.29000e+02	2.94965e+00	2.04500e+02
831	2.07599e+02	8.31000e+02	2.94784e+00	2.05500e+02
833	2.08634e+02	8.33000e+02	2.94607e+00	2.06500e+02
835	2.09646e+02	8.35000e+02	2.94430e+00	2.07500e+02
837	2.10675e+02	8.37000e+02	2.94257e+00	2.08500e+02
839	2.11718e+02	8.39000e+02	2.94085e+00	2.09500e+02
841	2.12747e+02	8.41000e+02	2.93918e+00	2.10500e+02
843	2.13779e+02	8.43000e+02	2.93754e+00	2.11500e+02
845	2.14801e+02	8.45000e+02	2.93597e+00	2.12500e+02
847	2.15821e+02	8.47000e+02	2.93443e+00	2.13500e+02
849	2.16847e+02	8.49000e+02	2.93297e+00	2.14500e+02
851	2.17871e+02	8.51000e+02	2.93154e+00	2.15500e+02
853	2.18875e+02	8.53000e+02	2.93019e+00	2.16500e+02
855	2.19895e+02	8.55000e+02	2.92888e+00	2.17500e+02
857	2.20905e+02	8.57000e+02	2.92766e+00	2.18500e+02
859	2.21931e+02	8.59000e+02	2.92645e+00	2.19500e+02
861	2.22963e+02	8.61000e+02	2.92531e+00	2.20500e+02
863	2.23974e+02	8.63000e+02	2.92419e+00	2.21500e+02
865	2.25010e+02	8.65000e+02	2.92314e+00	2.22500e+02
867	2.26037e+02	8.67000e+02	2.92212e+00	2.23500e+02
869	2.27068e+02	8.69000e+02	2.92117e+00	2.24500e+02
871	2.28091e+02	8.71000e+02	2.92021e+00	2.25500e+02
873	2.29114e+02	8.73000e+02	2.91928e+00	2.26500e+02
875	2.30137e+02	8.75000e+02	2.91834e+00	2.27500e+02
877	2.31140e+02	8.77000e+02	2.91744e+00	2.28500e+02
879	2.32146e+02	8.79000e+02	2.91656e+00	2.29500e+02
881	2.33174e+02	8.81000e+02	2.91573e+00	2.30500e+02
883	2.34186e+02	8.83000e+02	2.91491e+00	2.31500e+02
885	2.35187e+02	8.85000e+02	2.91412e+00	2.32500e+02
887	2.36190e+02	8.87000e+02	2.91334e+00	2.33500e+02
889	2.37215e+02	8.89000e+02	2.91259e+00	2.34500e+02
891	2.38228e+02	8.91000e+02	2.91186e+00	2.35500e+02
893	2.39246e+02	8.93000e+02	2.91117e+00	2.36500e+02
895	2.40229e+02	8.95000e+02	2.91049e+00	2.37500e+02
897	2.41234e+02	8.97000e+02	2.90985e+00	2.38500e+02
899	2.42231e+02	8.99000e+02	2.90922e+00	2.39500e+02
901	2.43240e+02	9.01000e+02	2.90860e+00	2.40500e+02
903	2.44261e+02	9.03000e+02	2.90797e+00	2.41500e+02
905	2.45257e+02	9.05000e+02	2.90733e+00	2.42500e+02
907	2.46290e+02	9.07000e+02	2.90668e+00	2.43500e+02
909	2.47310e+02	9.09000e+02	2.90601e+00	2.44500e+02
911	2.48346e+02	9.11000e+02	2.90536e+00	2.45500e+02
913	2.49369e+02	9.13000e+02	2.90473e+00	2.46500e+02
915	2.50407e+02	9.15000e+02	2.90411e+00	2.47500e+02
917	2.51402e+02	9.17000e+02	2.90353e+00	2.48500e+02
919	2.52400e+02	9.19000e+02	2.90296e+00	2.49500e+02
921	2.53414e+02	9.21000e+02	2.90241e+00	2.50500e+02
923	2.54429e+02	9.23000e+02	2.90186e+00	2.51500e+02
925	2.55452e+02	9.25000e+02	2.90131e+00	2.52500e+02
927	2.56461e+02	9.27000e+02	2.90075e+00	2.53500e+02
929	2.57480e+02	9.29000e+02	2.90016e+00	2.54500e+02
931	2.58502e+02	9.31000e+02	2.89957e+00	2.55500e+02
933	2.59519e+02	9.33000e+02	2.89895e+00	2.56500e+02
935	2.60541e+02	9.35000e+02	2.89833e+00	2.57500e+02
937	2.61574e+02	9.37000e+02	2.89771e+00	2.58500e+02
939	2.62579e+02	9.39000e+02	2.89711e+00	2.59500e+02
941	2.63596e+02	9.41000e+02	2.89653e+00	2.60500e+02
943	2.64618e+02	9.43000e+02	2.89593e+00	2.61500e+02
945	2.65650e+02	9.45000e+02	2.89533e+00	2.62500e+02
947	2.66670e+02	9.47000e+02	2.89473e+00	2.63500e+02
949	2.67687e+02	9.49000e+02	2.89412e+00	2.64500e+02
951	2.68698e+02	9.51000e+02	2.89350e+00	2.65500e+02
953	2.69719e+02	9.53000e+02	2.89285e+00	2.66500e+02
955	2.70698e+02	9.55000e+02	2.89218e+00	2.67500e+02
957	2.71695e+02	9.57000e+02	2.89144e+00	2.68500e+02
959	2.72733e+02	9.59000e+02	2.89070e+00	2.69500e+02
961	2.73743e+02	9.61000e+02	2.88991e+00	2.70500e+02
963	2.74739e+02	9.63000e+02	2.88912e+00	2.71500e+02
965	2.75765e+02	9.65000e+02	2.88830e+00	2.72500e+02
967	2.76773e+02	9.67000e+02	2.88748e+00	2.73500e+02
969	2.77794e+02	9.69000e+02	2.88663e+00	2.74500e+02
971	2.78816e+02	9.71000e+02	2.88577e+00	2.75500e+02
973	2.79834e+02	9.73000e+02	2.88485e+00	2.76500e+02
975	2.80878e+02	9.75000e+02	2.88390e+00	2.77500e+02
977	2.81883e+02	9.77000e+02	2.88286e+00	2.78500e+02
979	2.82924e+02	9.79000e+02	2.88180e+00	2.79500e+02
981	2.83942e+02	9.81000e+02	2.88067e+00	2.80500e+02
983	2.84961e+02	9.83000e+02	2.87954e+00	2.81500e+02
985	2.85980e+02	9.85000e+02	2.87836e+00	2.82500e+02
987	2.86969e+02	9.87000e+02	2.87716e+00	2.83500e+02
989	2.87960e+02	9.89000e+02	2.87589e+00	2.84500e+02
991	2.88986e+02	9.91000e+02	2.87459e+00	2.85500e+02
993	2.89980e+02	9.93000e+02	2.87320e+00	2.86500e+02
995	2.90988e+02	9.95000e+02	2.87178e+00	2.87500e+02
997	2.91998e+02	9.97000e+02	2.87024e+00	2.88500e+02
999	2.93010e+02	9.99000e+02	2.86867e+00	2.89500e+02
1001	2.94033e+02	1.00100e+03	2.86695e+00	2.90500e+02
1003	2.95050e+02	1.00300e+03	2.86517e+00	2.91500e+02
1005	2.96066e+02	1.00500e+03	2.86321e+00	2.92500e+02
1007	2.97057e+02	1.00700e+03	2.86121e+00	2.93500e+02
1009	2.98023e+02	1.00900e+03	2.85906e+00	2.94500e+02
1011	2.99031e+02	1.01100e+03	2.85690e+00	2.95500e+02
1013	3.00026e+02	1.01300e+03	2.85461e+00	2.96500e+02
1015	3.01017e+02	1.01500e+03	2.85229e+00	2.97500e+02
1017	3.02017e+02	1.01700e+03	2.84983e+00	2.98500e+02
1019	3.02984e+02	1.01900e+03	2.84731e+00	2.99500e+02
1021	3.03947e+02	1.02100e+03	2.84461e+00	3.00500e+02
1023	3.04916e+02	1.02300e+03	2.84188e+00	3.01500e+02
1025	3.05915e+02	1.02500e+03	2.83899e+00	3.02500e+02
1027	3.06876e+02	1.02700e+03	2.83608e+00	3.03500e+02
1029	3.07846e+02	1.02900e+03	2.83302e+00	3.04500e+02
1031	3.08806e+02	1.03100e+03	2.82992e+00	3.05500e+02
1033	3.09770e+02	1.03300e+03	2.82667e+00	3.06500e+02
1035	3.10741e+02	1.03500e+03	2.82339e+00	3.07500e+02
1037	3.11695e+02	1.03700e+03	2.81996e+00	3.08500e+02
1039	3.12647e+02	1.03900e+03	2.81651e+00	3.09500e+02
1041	3.13590e+02	1.04100e+03	2.81291e+00	3.10500e+02
1043	3.14543e+02	1.04300e+03	2.80931e+00	3.11500e+02
1045	3.15471e+02	1.04500e+03	2.80560e+00	3.12500e+02
1047	3.16420e+02	1.04700e+03	2.80188e+00	3.13500e+02
1049	3.17410e+02	1.04900e+03	2.79807e+00	3.14500e+02
1051	3.18373e+02	1.05100e+03	2.79426e+00	3.15500e+02
1053	3.19329e+02	1.05300e+03	2.79039e+00	3.16500e+02
1055	3.20264e+02	1.05500e+03	2.78651e+00	3.17500e+02
1057	3.21214e+02	1.05700e+03	2.78256e+00	3.18500e+02
1059	3.22155e+02	1.05900e+03	2.77854e+00	3.19500e+02
1061	3.23106e+02	1.06100e+03	2.77437e+00	3.20500e+02
1063	3.24027e+02	1.06300e+03	2.77014e+00	3.21500e+02
1065	3.24989e+02	1.06500e+03	2.76570e+00	3.22500e+02
1067	3.25965e+02	1.06700e+03	2.76120e+00	3.23500e+02
1069	3.26939e+02	1.06900e+03	2.75648e+00	3.24500e+02
1071	3.27922e+02	1.07100e+03	2.75173e+00	3.25500e+02
1073	3.28894e+02	1.07300e+03	2.74683e+00	3.26500e+02
1075	3.29906e+02	1.07500e+03	2.74195e+00	3.27500e+02
1077	3.30895e+02	1.07700e+03	2.73703e+00	3.28500e+02
1079	3.31903e+02	1.07900e+03	2.73209e+00	3.29500e+02
1081	3.32902e+02	1.08100e+03	2.72708e+00	3.30500e+02
1083	3.33908e+02	1.08300e+03	2.72199e+00	3.31500e+02
1085	3.34911e+02	1.08500e+03	2.71669e+00	3.32500e+02
1087	3.35919e+02	1.08700e+03	2.71126e+00	3.33500e+02
1089	3.36924e+02	1.08900e+03	2.70547e+00	3.34500e+02
1091	3.37915e+02	1.09100e+03	2.69954e+00	3.35500e+02
1093	3.38918e+02	1.09300e+03	2.69310e+00	3.36500e+02
1095	3.39916e+02	1.09500e+03	2.68649e+00	3.37500e+02
1097	3.40922e+02	1.09700e+03	2.67927e+00	3.38500e+02
1099	3.41909e+02	1.09900e+03	2.67185e+00	3.39500e+02
1101	3.42915e+02	1.10100e+03	2.66369e+00	3.40500e+02
1103	3.43913e+02	1.10300e+03	2.65529e+00	3.41500e+02
1105	3.44907e+02	1.10500e+03	2.64604e+00	3.42500e+02
1107	3.45918e+02	1.10700e+03	2.63652e+00	3.43500e+02
1109	3.46914e+02	1.10900e+03	2.62600e+00	3.44500e+02
1111	3.47927e+02	1.11100e+03	2.61520e+00	3.45500e+02
1113	3.48931e+02	1.11300e+03	2.60328e+00	3.46500e+02
1115	3.49923e+02	1.11500e+03	2.59102e+00	3.47500e+02
1117	3.50928e+02	1.11700e+03	2.57750e+00	3.48500e+02
1119	3.51928e+02	1.11900e+03	2.56361e+00	3.49500e+02
1121	3.52934e+02	1.12100e+03	2.54827e+00	3.50500e+02
1123	3.53929e+02	1.12300e+03	2.53253e+00	3.51500e+02
1125	3.54909e+02	1.12500e+03	2.51520e+00	3.52500e+02
1127	3.55878e+02	1.12700e+03	2.49747e+00	3.53500e+02
1129	3.56855e+02	1.12900e+03	2.47809e+00	3.54500e+02
1131	3.57825e+02	1.13100e+03	2.45827e+00	3.55500e+02
1133	3.58810e+02	1.13300e+03	2.43664e+00	3.56500e+02
1135	3.59774e+02	1.13500e+03	2.41452e+00	3.57500e+02
1137	3.60767e+02	1.13700e+03	2.39044e+00	3.58500e+02
1139	3.61764e+02	1.13900e+03	2.36586e+00	3.59500e+02
1141	3.62728e+02	1.14100e+03	2.33920e+00	3.60500e+02
1143	3.63689e+02	1.14300e+03	2.31200e+00	3.61500e+02
1145	3.64653e+02	1.14500e+03	2.28265e+00	3.62500e+02
1147	3.65619e+02	1.14700e+03	2.25284e+00	3.63500e+02
1149	3.66589e+02	1.14900e+03	2.22090e+00	3.64500e+02
1151	3.67569e+02	1.15100e+03	2.18845e+00	3.65500e+02
1153	3.68537e+02	1.15300e+03	2.15386e+00	3.66500e+02
1155	3.69504e+02	1.15500e+03	2.11878e+00	3.67500e+02
1157	3.70491e+02	1.15700e+03	2.08155e+00	3.68500e+02
1159	3.71473e+02	1.15900e+03	2.04377e+00	3.69500e+02
1161	3.72455e+02	1.16100e+03	2.00381e+00	3.70500e+02
1163	3.73423e+02	1.16300e+03	1.96337e+00	3.71500e+02
1165	3.74396e+02	1.16500e+03	1.92082e+00	3.72500e+02
1167	3.75397e+02	1.16700e+03	1.87784e+00	3.73500e+02
1169	3.76392e+02	1.16900e+03	1.83295e+00	3.74500e+02
1171	3.77366e+02	1.17100e+03	1.78777e+00	3.75500e+02
1173	3.78361e+02	1.17300e+03	1.74105e+00	3.76500e+02
1175	3.79353e+02	1.17500e+03	1.69418e+00	3.77500e+02
1177	3.80337e+02	1.17700e+03	1.64613e+00	3.78500e+02
1179	3.81328e+02	1.17900e+03	1.59791e+00	3.79500e+02
1181	3.82315e+02	1.18100e+03	1.54869e+00	3.80500e+02
1183	3.83344e+02	1.18300e+03	1.49922e+00	3.81500e+02
1185	3.84357e+02	1.18500e+03	1.44869e+00	3.82500e+02
1187	3.85364e+02	1.18700e+03	1.39785e+00	3.83500e+02
1189	3.86363e+02	1.18900e+03	1.34585e+00	3.84500e+02
1191	3.87389e+02	1.19100e+03	1.29365e+00	3.85500e+02
1193	3.88410e+02	1.19300e+03	1.24041e+00	3.86500e+02
1195	3.89439e+02	1.19500e+03	1.18701e+00	3.87500e+02
1197	3.90437e+02	1.19700e+03	1.13310e+00	3.88500e+02
1199	3.91445e+02	1.19900e+03	1.07962e+00	3.89500e+02
1201	3.92448e+02	1.20100e+03	1.02682e+00	3.90500e+02
1203	3.93459e+02	1.20300e+03	9.74737e-01	3.91500e+02
1205	3.94465e+02	1.20500e+03	9.24345e-01	3.92500e+02
1207	3.95486e+02	1.20700e+03	8.74514e-01	3.93500e+02
1209	3.96506e+02	1.20900e+03	8.26698e-01	3.94500e+02
1211	3.97519e+02	1.21100e+03	7.79439e-01	3.95500e+02
1213	3.98526e+02	1.21300e+03	7.34402e-01	3.96500e+02
1215	3.99556e+02	1.21500e+03	6.89978e-01	3.97500e+02
1217	4.00582e+02	1.21700e+03	6.48008e-01	3.98500e+02
1219	4.01602e+02	1.21900e+03	6.06734e-01	3.99500e+02
1221	4.02606e+02	1.22100e+03	5.68135e-01	4.00500e+02
1223	4.03613e+02	1.22300e+03	5.30217e-01	4.01500e+02
1225	4.04627e+02	1.22500e+03	4.95071e-01	4.02500e+02
1227	4.05725e+02	1.22700e+03	4.60600e-01	4.03500e+02
1229	4.06765e+02	1.22900e+03	4.28910e-01	4.04500e+02
1231	4.07804e+02	1.23100e+03	3.97848e-01	4.05500e+02
1233	4.08848e+02	1.23300e+03	3.69516e-01	4.06500e+02
1235	4.09816e+02	1.23500e+03	3.41805e-01	4.07500e+02
1237	4.10825e+02	1.23700e+03	3.16735e-01	4.08500e+02
1239	4.11850e+02	1.23900e+03	2.92213e-01	4.09500e+02
1241	4.12870e+02	1.24100e+03	2.70166e-01	4.10500e+02
1243	4.13873e+02	1.24300e+03	2.48623e-01	4.11500e+02
1245	4.14892e+02	1.24500e+03	2.29382e-01	4.12500e+02
1247	4.15892e+02	1.24700e+03	2.10585e-01	4.13500e+02
1249	4.16899e+02	1.24900e+03	1.93898e-01	4.14500e+02
1251	4.17931e+02	1.25100e+03	1.77629e-01	4.15500e+02
1253	4.18963e+02	1.25300e+03	1.63294e-01	4.16500e+02
1255	4.19967e+02	1.25500e+03	1.49318e-01	4.17500e+02
1257	4.20970e+02	1.25700e+03	1.37098e-01	4.18500e+02
1259	4.22003e+02	1.25900e+03	1.25206e-01	4.19500e+02
1261	4.23051e+02	1.26100e+03	1.14883e-01	4.20500e+02
1263	4.24098e+02	1.26300e+03	1.04829e-01	4.21500e+02
1265	4.25113e+02	1.26500e+03	9.61382e-02	4.22500e+02
1267	4.26143e+02	1.26700e+03	8.76736e-02	4.23500e+02
1269	4.27141e+02	1.26900e+03	8.03770e-02	4.24500e+02
1271	4.28166e+02	1.27100e+03	7.32705e-02	4.25500e+02
1273	4.29193e+02	1.27300e+03	6.71422e-02	4.26500e+02
1275	4.30238e+02	1.27500e+03	6.11562e-02	4.27500e+02
1277	4.31238e+02	1.27700e+03	5.59804e-02	4.28500e+02
1279	4.32246e+02	1.27900e+03	5.09451e-02	4.29500e+02
1281	4.33243e+02	1.28100e+03	4.66186e-02	4.30500e+02
1283	4.34247e+02	1.28300e+03	4.24149e-02	4.31500e+02
1285	4.35244e+02	1.28500e+03	3.88163e-02	4.32500e+02
1287	4.36240e+02	1.28700e+03	3.53037e-02	4.33500e+02
1289	4.37221e+02	1.28900e+03	3.22731e-02	4.34500e+02
1291	4.38221e+02	1.29100e+03	2.93059e-02	4.35500e+02
1293	4.39214e+02	1.29300e+03	2.67097e-02	4.36500e+02
1295	4.40224e+02	1.29500e+03	2.41610e-02	4.37500e+02
1297	4.41219e+02	1.29700e+03	2.19099e-02	4.38500e+02
1299	4.42211e+02	1.29900e+03	1.97078e-02	4.39500e+02
1301	4.43210e+02	1.30100e+03	1.77643e-02	4.40500e+02
1303	4.44192e+02	1.30300e+03	1.58643e-02	4.41500e+02
1305	4.45171e+02	1.30500e+03	1.41901e-02	4.42500e+02
1307	4.46156e+02	1.30700e+03	1.25539e-02	4.43500e+02
1309	4.47144e+02	1.30900e+03	1.11021e-02	4.44500e+02
1311	4.48127e+02	1.31100e+03	9.67894e-03	4.45500e+02
1313	4.49132e+02	1.31300e+03	8.42615e-03	4.46500e+02
1315	4.50117e+02	1.31500e+03	7.22444e-03	4.47500e+02
1317	4.51119e+02	1.31700e+03	6.20522e-03	4.48500e+02
1319	4.52128e+02	1.31900e+03	5.22429e-03	4.49500e+02
1321	4.53135e+02	1.32100e+03	4.41436e-03	4.50500e+02
1323	4.54132e+02	1.32300e+03	3.64335e-03	4.51500e+02
1325	4.55117e+02	1.32500e+03	3.04433e-03	4.52500e+02
1327	4.56131e+02	1.32700e+03	2.49051e-03	4.53500e+02
1329	4.57139e+02	1.32900e+03	2.09443e-03	4.54500e+02
1331	4.58156e+02	1.33100e+03	1.70968e-03	4.55500e+02
1333	4.59151e+02	1.33300e+03	1.44684e-03	4.56500e+02
1335	4.60160e+02	1.33500e+03	1.19756e-03	4.57500e+02
1337	4.61149e+02	1.33700e+03	1.03992e-03	4.58500e+02
1339	4.62131e+02	1.33900e+03	8.88813e-04	4.59500e+02
1341	4.63123e+02	1.34100e+03	8.04086e-04	4.60500e+02
1343	4.64100e+02	1.34300e+03	7.15486e-04	4.61500e+02
1345	4.65081e+02	1.34500e+03	6.42232e-04	4.62500e+02
1347	4.66062e+02	1.34700e+03	5.48107e-04	4.63500e+02
1349	4.67043e+02	1.34900e+03	4.35930e-04	4.64500e+02
1351	4.68016e+02	1.35100e+03	3.33367e-04	4.65500e+02
1353	4.69005e+02	1.35300e+03	2.29264e-04	4.66500e+02
1355	4.69991e+02	1.35500e+03	1.22732e-04	4.67500e+02
1357	4.70973e+02	1.35700e+03	1.49451e-05	4.68500e+02
1359	4.71967e+02	1.35900e+03	-8.33961e-05	4.69500e+02
1361	4.72937e+02	1.36100e+03	-1.59906e-04	4.70500e+02
1363	4.73909e+02	1.36300e+03	-2.19094e-04	4.71500e+02
1365	4.74900e+02	1.36500e+03	-2.43348e-04	4.72500e+02
1367	4.75869e+02	1.36700e+03	-2.68547e-04	4.73500e+02
1369	4.76840e+02	1.36900e+03	-2.82993e-04	4.74500e+02
1371	4.77813e+02	1.37100e+03	-3.04288e-04	4.75500e+02
1373	4.78780e+02	1.37300e+03	-3.39041e-04	4.76500e+02
1375	4.79748e+02	1.37500e+03	-3.89209e-04	4.77500e+02
1377	4.80705e+02	1.37700e+03	-4.66338e-04	4.78500e+02
1379	4.81678e+02	1.37900e+03	-5.37325e-04	4.79500e+02
1381	4.82636e+02	1.38100e+03	-6.01589e-04	4.80500e+02
1383	4.83620e+02	1.38300e+03	-6.49285e-04	4.81500e+02
1385	4.84574e+02	1.38500e+03	-6.77712e-04	4.82500e+02
1387	4.85528e+02	1.38700e+03	-7.16294e-04	4.83500e+02
1389	4.86505e+02	1.38900e+03	-7.62654e-04	4.84500e+02
1391	4.87466e+02	1.39100e+03	-8.10815e-04	4.85500e+02
1393	4.88430e+02	1.39300e+03	-8.58093e-04	4.86500e+02
1395	4.89395e+02	1.39500e+03	-8.99909e-04	4.87500e+02
1397	4.90370e+02	1.39700e+03	-9.21383e-04	4.88500e+02
1399	4.91342e+02	1.39900e+03	-9.39068e-04	4.89500e+02
1401	4.92304e+02	1.40100e+03	-9.57078e-04	4.90500e+02
1403	4.93281e+02	1.40300e+03	-1.00040e-03	4.91500e+02
1405	4.94260e+02	1.40500e+03	-1.08596e-03	4.92500e+02
1407	4.95234e+02	1.40700e+03	-1.17351e-03	4.93500e+02
1409	4.96221e+02	1.40900e+03	-1.27027e-03	4.94500e+02
1411	4.97190e+02	1.41100e+03	-1.34228e-03	4.95500e+02
1413	4.98177e+02	1.41300e+03	-1.38685e-03	4.96500e+02
1415	4.99148e+02	1.41500e+03	-1.43304e-03	4.97500e+02
1417	5.00124e+02	1.41700e+03	-1.45983e-03	4.98500e+02
1419	5.01116e+02	1.41900e+03	-1.47694e-03	4.99500e+02
1421	5.02089e+02	1.42100e+03	-1.48500e-03	5.00500e+02
1423	5.03074e+02	1.42300e+03	-1.51448e-03	5.01500e+02
1425	5.04048e+02	1.42500e+03	-1.57501e-03	5.02500e+02
1427	5.05039e+02	1.42700e+03	-1.63878e-03	5.03500e+02
1429	5.06016e+02	1.42900e+03	-1.70455e-03	5.04500e+02
1431	5.06997e+02	1.43100e+03	-1.74475e-03	5.05500e+02
1433	5.07982e+02	1.43300e+03	-1.74233e-03	5.06500e+02
1435	5.08974e+02	1.43500e+03	-1.74835e-03	5.07500e+02
1437	5.09969e+02	1.43700e+03	-1.75821e-03	5.08500e+02
1439	5.10958e+02	1.43900e+03	-1.78742e-03	5.09500e+02
1441	5.11936e+02	1.44100e+03	-1.83976e-03	5.10500e+02
1443	5.12927e+02	1.44300e+03	-1.87853e-03	5.11500e+02
1445	5.13928e+02	1.44500e+03	-1.92646e-03	5.12500e+02
1447	5.14918e+02	1.44700e+03	-2.00930e-03	5.13500e+02
1449	5.15907e+02	1.44900e+03	-2.15661e-03	5.14500e+02
1451	5.16907e+02	1.45100e+03	-2.29057e-03	5.15500e+02
1453	5.17904e+02	1.45300e+03	-2.36912e-03	5.16500e+02
1455	5.18887e+02	1.45500e+03	-2.35327e-03	5.17500e+02
1457	5.19879e+02	1.45700e+03	-2.18912e-03	5.18500e+02
1459	5.20867e+02	1.45900e+03	-2.07378e-03	5.19500e+02
1461	5.21850e+02	1.46100e+03	-1.99472e-03	5.20500e+02
1463	5.22844e+02	1.46300e+03	-1.96670e-03	5.21500e+02
1465	5.23844e+02	1.46500e+03	-2.02147e-03	5.22500e+02
1467	5.24841e+02	1.46700e+03	-2.05733e-03	5.23500e+02
1469	5.25833e+02	1.46900e+03	-2.11184e-03	5.24500e+02
1471	5.26819e+02	1.47100e+03	-2.17527e-03	5.25500e+02
1473	5.27811e+02	1.47300e+03	-2.25218e-03	5.26500e+02
1475	5.28805e+02	1.47500e+03	-2.31977e-03	5.27500e+02
1477	5.29815e+02	1.47700e+03	-2.37714e-03	5.28500e+02
1479	5.30791e+02	1.47900e+03	-2.42479e-03	5.29500e+02
1481	5.31763e+02	1.48100e+03	-2.45345e-03	5.30500e+02
1483	5.32748e+02	1.48300e+03	-2.48521e-03	5.31500e+02
1485	5.33731e+02	1.48500e+03	-2.51610e-03	5.32500e+02
1487	5.34713e+02	1.48700e+03	-2.54137e-03	5.33500e+02
1489	5.35711e+02	1.48900e+03	-2.55810e-03	5.34500e+02
1491	5.36677e+02	1.49100e+03	-2.57471e-03	5.35500e+02
1493	5.37683e+02	1.49300e+03	-2.60470e-03	5.36500e+02
1495	5.38675e+02	1.49500e+03	-2.64975e-03	5.37500e+02
1497	5.39639e+02	1.49700e+03	-2.71925e-03	5.38500e+02
1499	5.40629e+02	1.49900e+03	-2.77643e-03	5.39500e+02
1501	5.41606e+02	1.50100e+03	-2.81540e-03	5.40500e+02
1503	5.42609e+02	1.50300e+03	-2.84315e-03	5.41500e+02
1505	5.43613e+02	1.50500e+03	-2.84550e-03	5.42500e+02
1507	5.44619e+02	1.50700e+03	-2.86088e-03	5.43500e+02
1509	5.45629e+02	1.50900e+03	-2.88190e-03	5.44500e+02
1511	5.46644e+02	1.51100e+03	-2.91237e-03	5.45500e+02
1513	5.47668e+02	1.51300e+03	-2.96096e-03	5.46500e+02
1515	5.48747e+02	1.51500e+03	-3.00566e-03	5.47500e+02
1517	5.49827e+02	1.51700e+03	-3.04756e-03	5.48500e+02
1519	5.50975e+02	1.51900e+03	-3.07928e-03	5.49500e+02
1521	5.52157e+02	1.52100e+03	-3.09898e-03	5.50500e+02
1523	5.53168e+02	1.52300e+03	-3.12341e-03	5.51500e+02
1525	5.54174e+02	1.52500e+03	-3.15449e-03	5.52500e+02
1527	5.55192e+02	1.52700e+03	-3.20092e-03	5.53500e+02
1529	5.56205e+02	1.52900e+03	-3.29705e-03	5.54500e+02
1531	5.57228e+02	1.53100e+03	-3.41414e-03	5.55500e+02
1533	5.58279e+02	1.53300e+03	-3.55846e-03	5.56500e+02
1535	5.59288e+02	1.53500e+03	-3.63979e-03	5.57500e+02
1537	5.60293e+02	1.53700e+03	-3.59441e-03	5.58500e+02
1539	5.61303e+02	1.53900e+03	-3.50928e-03	5.59500e+02
1541	5.62345e+02	1.54100e+03	-3.34688e-03	5.60500e+02
1543	5.63373e+02	1.54300e+03	-3.27366e-03	5.61500e+02
1545	5.64369e+02	1.54500e+03	-3.30234e-03	5.62500e+02
1547	5.65395e+02	1.54700e+03	-3.34143e-03	5.63500e+02
1549	5.66379e+02	1.54900e+03	-3.43236e-03	5.64500e+02
1551	5.67396e+02	1.55100e+03	-3.49276e-03	5.65500e+02
1553	5.68394e+02	1.55300e+03	-3.53361e-03	5.66500e+02
1555	5.69362e+02	1.55500e+03	-3.57492e-03	5.67500e+02
1557	5.70367e+02	1.55700e+03	-3.61483e-03	5.68500e+02
1559	5.71353e+02	1.55900e+03	-3.66308e-03	5.69500e+02
1561	5.72368e+02	1.56100e+03	-3.72875e-03	5.70500e+02
1563	5.73381e+02	1.56300e+03	-3.79179e-03	5.71500e+02
1565	5.74397e+02	1.56500e+03	-3.85219e-03	5.72500e+02
1567	5.75450e+02	1.56700e+03	-3.89699e-03	5.73500e+02
1569	5.76621e+02	1.56900e+03	-3.92064e-03	5.74500e+02
1571	5.77992e+02	1.57100e+03	-3.94772e-03	5.75500e+02
1573	5.78556e+02	1.57300e+03	-3.96518e-03	5.76500e+02
1575	5.79380e+02	1.57500e+03	-3.98209e-03	5.77500e+02
1577	5.80232e+02	1.57700e+03	-3.99333e-03	5.78500e+02
1579	5.81150e+02	1.57900e+03	-4.00735e-03	5.79500e+02
1581	5.82079e+02	1.58100e+03	-4.02961e-03	5.80500e+02
1583	5.83015e+02	1.58300e+03	-4.06056e-03	5.81500e+02
1585	5.83974e+02	1.58500e+03	-4.09863e-03	5.82500e+02
1587	5.84941e+02	1.58700e+03	-4.12231e-03	5.83500e+02
1589	5.85901e+02	1.58900e+03	-4.12434e-03	5.84500e+02
1591	5.86863e+02	1.59100e+03	-4.12027e-03	5.85500e+02
1593	5.87829e+02	1.59300e+03	-4.10374e-03	5.86500e+02
1595	5.88792e+02	1.59500e+03	-4.10478e-03	5.87500e+02
1597	5.89766e+02	1.59700e+03	-4.12339e-03	5.88500e+02
1599	5.90737e+02	1.59900e+03	-4.14848e-03	5.89500e+02
1601	5.91701e+02	1.60100e+03	-4.19197e-03	5.90500e+02
1603	5.92677e+02	1.60300e+03	-4.23581e-03	5.91500e+02
1605	5.93650e+02	1.60500e+03	-4.28068e-03	5.92500e+02
1607	5.94598e+02	1.60700e+03	-4.31292e-03	5.93500e+02
1609	5.95570e+02	1.60900e+03	-4.31955e-03	5.94500e+02
1611	5.96527e+02	1.61100e+03	-4.31769e-03	5.95500e+02
1613	5.97498e+02	1.61300e+03	-4.29704e-03	5.96500e+02
1615	5.98460e+02	1.61500e+03	-4.29185e-03	5.97500e+02
1617	5.99428e+02	1.61700e+03	-4.31131e-03	5.98500e+02
1619	6.00412e+02	1.61900e+03	-4.34917e-03	5.99500e+02
1621	6.01399e+02	1.62100e+03	-4.42952e-03	6.00500e+02
1623	6.02379e+02	1.62300e+03	-4.49943e-03	6.01500e+02
1625	6.03350e+02	1.62500e+03	-4.56173e-03	6.02500e+02
1627	6.04341e+02	1.62700e+03	-4.58987e-03	6.03500e+02
1629	6.05305e+02	1.62900e+03	-4.57570e-03	6.04500e+02
1631	6.06283e+02	1.63100e+03	-4.57947e-03	6.05500e+02
1633	6.07256e+02	1.63300e+03	-4.59242e-03	6.06500e+02
1635	6.08243e+02	1.63500e+03	-4.62178e-03	6.07500e+02
1637	6.09222e+02	1.63700e+03	-4.67387e-03	6.08500e+02
1639	6.10202e+02	1.63900e+03	-4.70981e-03	6.09500e+02
1641	6.11169e+02	1.64100e+03	-4.73344e-03	6.10500e+02
1643	6.12152e+02	1.64300e+03	-4.76085e-03	6.11500e+02
1645	6.13138e+02	1.64500e+03	-4.78692e-03	6.12500e+02
1647	6.14101e+02	1.64700e+03	-4.81393e-03	6.13500e+02
1649	6.15095e+02	1.64900e+03	-4.83601e-03	6.14500e+02
1651	6.16036e+02	1.65100e+03	-4.85106e-03	6.15500e+02
1653	6.17020e+02	1.65300e+03	-4.85204e-03	6.16500e+02
1655	6.17994e+02	1.65500e+03	-4.85642e-03	6.17500e+02
1657	6.18989e+02	1.65700e+03	-4.86251e-03	6.18500e+02
1659	6.19955e+02	1.65900e+03	-4.87609e-03	6.19500e+02
1661	6.20956e+02	1.66100e+03	-4.90881e-03	6.20500e+02
1663	6.21943e+02	1.66300e+03	-4.95164e-03	6.21500e+02
1665	6.22940e+02	1.66500e+03	-5.00442e-03	6.22500e+02
1667	6.23929e+02	1.66700e+03	-5.04249e-03	6.23500e+02
1669	6.24915e+02	1.66900e+03	-5.06021e-03	6.24500e+02
1671	6.25883e+02	1.67100e+03	-5.07127e-03	6.25500e+02
1673	6.26861e+02	1.67300e+03	-5.06861e-03	6.26500e+02
1675	6.27858e+02	1.67500e+03	-5.08137e-03	6.27500e+02
1677	6.28894e+02	1.67700e+03	-5.12106e-03	6.28500e+02
1679	6.29919e+02	1.67900e+03	-5.16852e-03	6.29500e+02
1681	6.30877e+02	1.68100e+03	-5.22586e-03	6.30500e+02
1683	6.31847e+02	1.68300e+03	-5.25884e-03	6.31500e+02
1685	6.32839e+02	1.68500e+03	-5.26164e-03	6.32500e+02
1687	6.33822e+02	1.68700e+03	-5.26691e-03	6.33500e+02
1689	6.34822e+02	1.68900e+03	-5.26817e-03	6.34500e+02
1691	6.35837e+02	1.69100e+03	-5.27921e-03	6.35500e+02
1693	6.36843e+02	1.69300e+03	-5.29647e-03	6.36500e+02
1695	6.37856e+02	1.69500e+03	-5.30163e-03	6.37500e+02
1697	6.38854e+02	1.69700e+03	-5.29217e-03	6.38500e+02
1699	6.39822e+02	1.69900e+03	-5.27497e-03	6.39500e+02
1701	6.40803e+02	1.70100e+03	-5.24373e-03	6.40500e+02
1703	6.41798e+02	1.70300e+03	-5.21962e-03	6.41500e+02
1705	6.42793e+02	1.70500e+03	-5.21120e-03	6.42500e+02
1707	6.43794e+02	1.70700e+03	-5.21714e-03	6.43500e+02
1709	6.44842e+02	1.70900e+03	-5.25225e-03	6.44500e+02
1711	6.45889e+02	1.71100e+03	-5.28597e-03	6.45500e+02
1713	6.46938e+02	1.71300e+03	-5.32703e-03	6.46500e+02
1715	6.47977e+02	1.71500e+03	-5.35859e-03	6.47500e+02
1717	6.49098e+02	1.71700e+03	-5.40185e-03	6.48500e+02
1719	6.50457e+02	1.71900e+03	-5.47786e-03	6.49500e+02
1721	6.51573e+02	1.72100e+03	-5.60613e-03	6.50500e+02
1723	6.52649e+02	1.72300e+03	-5.71924e-03	6.51500e+02
1725	6.53730e+02	1.72500e+03	-5.77545e-03	6.52500e+02
1727	6.54741e+02	1.72700e+03	-5.74781e-03	6.53500e+02
1729	6.55813e+02	1.72900e+03	-5.56457e-03	6.54500e+02
1731	6.56840e+02	1.73100e+03	-5.39491e-03	6.55500e+02
1733	6.57788e+02	1.73300e+03	-5.20379e-03	6.56500e+02
1735	6.58754e+02	1.73500e+03	-5.07928e-03	6.57500e+02
1737	6.59665e+02	1.73700e+03	-5.06369e-03	6.58500e+02
1739	6.60589e+02	1.73900e+03	-5.07471e-03	6.59500e+02
1741	6.61511e+02	1.74100e+03	-5.17582e-03	6.60500e+02
1743	6.62438e+02	1.74300e+03	-5.25411e-03	6.61500e+02
1745	6.63388e+02	1.74500e+03	-5.34977e-03	6.62500e+02
1747	6.64333e+02	1.74700e+03	-5.44381e-03	6.63500e+02
1749	6.65254e+02	1.74900e+03	-5.51715e-03	6.64500e+02
1751	6.66218e+02	1.75100e+03	-5.56381e-03	6.65500e+02
1753	6.67186e+02	1.75300e+03	-5.55001e-03	6.66500e+02
1755	6.68175e+02	1.75500e+03	-5.51982e-03	6.67500e+02
1757	6.69152e+02	1.75700e+03	-5.44429e-03	6.68500e+02
1759	6.70141e+02	1.75900e+03	-5.39613e-03	6.69500e+02
1761	6.71102e+02	1.76100e+03	-5.37971e-03	6.70500e+02
1763	6.72053e+02	1.76300e+03	-5.37713e-03	6.71500e+02
1765	6.73024e+02	1.76500e+03	-5.40099e-03	6.72500e+02
1767	6.74003e+02	1.76700e+03	-5.40595e-03	6.73500e+02
1769	6.74974e+02	1.76900e+03	-5.39548e-03	6.74500e+02
1771	6.75923e+02	1.77100e+03	-5.39026e-03	6.75500e+02
1773	6.76908e+02	1.77300e+03	-5.38744e-03	6.76500e+02
1775	6.77875e+02	1.77500e+03	-5.40320e-03	6.77500e+02
1777	6.78848e+02	1.77700e+03	-5.46630e-03	6.78500e+02
1779	6.79794e+02	1.77900e+03	-5.53269e-03	6.79500e+02
1781	6.80772e+02	1.78100e+03	-5.60317e-03	6.80500e+02
1783	6.81740e+02	1.78300e+03	-5.64990e-03	6.81500e+02
1785	6.82716e+02	1.78500e+03	-5.69530e-03	6.82500e+02
1787	6.83664e+02	1.78700e+03	-5.76557e-03	6.83500e+02
1789	6.84640e+02	1.78900e+03	-5.83661e-03	6.84500e+02
1791	6.85607e+02	1.79100e+03	-5.84918e-03	6.85500e+02
1793	6.86583e+02	1.79300e+03	-5.74314e-03	6.86500e+02
1795	6.87301e+02	1.79500e+03	-5.61045e-03	6.87500e+02
1797	6.87696e+02	1.79700e+03	-5.40949e-03	6.88500e+02
1799	6.88361e+02	1.79900e+03	-5.26958e-03	6.89500e+02
1801	6.89006e+02	1.80100e+03	-5.19303e-03	6.90500e+02
1803	6.89616e+02	1.80300e+03	-5.15826e-03	6.91500e+02
1805	6.90173e+02	1.80500e+03	-5.19477e-03	6.92500e+02
1807	6.90700e+02	1.80700e+03	-5.22325e-03	6.93500e+02
1809	6.91177e+02	1.80900e+03	-5.27566e-03	6.94500e+02
1811	6.91626e+02	1.81100e+03	-5.31774e-03	6.95500e+02
1813	6.92059e+02	1.81300e+03	-5.35303e-03	6.96500e+02
1815	6.92451e+02	1.81500e+03	-5.37764e-03	6.97500e+02
1817	6.92830e+02	1.81700e+03	-5.36948e-03	6.98500e+02
1819	6.93196e+02	1.81900e+03	-5.34675e-03	6.99500e+02
1820	6.93364e+02	1.82000e+03	-5.32145e-03	7.00000e+02