File: Experiments/TUBS/tga_nonisotherm/tga_dynamic_n2_dyn5_powder_1mg_r2.txt
index	ts	t	weight	tr
[#]	[°C]	[s]	[mg]	[°C]
1083	1.30283e+02	1.08300e+03	1.03931e+00	1.30250e+02
1091	1.30958e+02	1.09100e+03	1.03914e+00	1.30917e+02
1099	1.31630e+02	1.09900e+03	1.03910e+00	1.31583e+02
1107	1.32293e+02	1.10700e+03	1.03895e+00	1.32250e+02
1115	1.32967e+02	1.11500e+03	1.03893e+00	1.32917e+02
1123	1.33610e+02	1.12300e+03	1.03890e+00	1.33583e+02
1131	1.34295e+02	1.13100e+03	1.03884e+00	1.34250e+02
1139	1.34968e+02	1.13900e+03	1.03879e+00	1.34917e+02
1147	1.35634e+02	1.14700e+03	1.03873e+00	1.35583e+02
1155	1.36298e+02	1.15500e+03	1.03861e+00	1.36250e+02
1163	1.36961e+02	1.16300e+03	1.03849e+00	1.36917e+02
1171	1.37629e+02	1.17100e+03	1.03846e+00	1.37583e+02
1179	1.38304e+02	1.17900e+03	1.03852e+00	1.38250e+02
1187	1.38981e+02	1.18700e+03	1.03834e+00	1.38917e+02
1195	1.39632e+02	1.19500e+03	1.03818e+00	1.39583e+02
1203	1.40297e+02	1.20300e+03	1.03795e+00	1.40250e+02
1211	1.40970e+02	1.21100e+03	1.03795e+00	1.40917e+02
1219	1.41646e+02	1.21900e+03	1.03782e+00	1.41583e+02
1227	1.42292e+02	1.22700e+03	1.03760e+00	1.42250e+02
1235	1.42975e+02	1.23500e+03	1.03750e+00	1.42917e+02
1243	1.43644e+02	1.24300e+03	1.03748e+00	1.43583e+02
1251	1.44306e+02	1.25100e+03	1.03735e+00	1.44250e+02
1259	1.44984e+02	1.25900e+03	1.03717e+00	1.44917e+02
1267	1.45638e+02	1.26700e+03	1.03695e+00	1.45583e+02
1275	1.46317e+02	1.27500e+03	1.03672e+00	1.46250e+02
1283	1.46972e+02	1.28300e+03	1.03652e+00	1.46917e+02
1291	1.47651e+02	1.29100e+03	1.03636e+00	1.47583e+02
1299	1.48306e+02	1.29900e+03	1.03629e+00	1.48250e+02
1307	1.48980e+02	1.30700e+03	1.03610e+00	1.48917e+02
1315	1.49649e+02	1.31500e+03	1.03598e+00	1.49583e+02
1323	1.50316e+02	1.32300e+03	1.03578e+00	1.50250e+02
1331	1.50988e+02	1.33100e+03	1.03542e+00	1.50917e+02
1339	1.51651e+02	1.33900e+03	1.03528e+00	1.51583e+02
1347	1.52319e+02	1.34700e+03	1.03520e+00	1.52250e+02
1355	1.53007e+02	1.35500e+03	1.03502e+00	1.52917e+02
1363	1.53662e+02	1.36300e+03	1.03483e+00	1.53583e+02
1371	1.54333e+02	1.37100e+03	1.03464e+00	1.54250e+02
1379	1.54984e+02	1.37900e+03	1.03432e+00	1.54917e+02
1387	1.55666e+02	1.38700e+03	1.03408e+00	1.55583e+02
1395	1.56336e+02	1.39500e+03	1.03383e+00	1.56250e+02
1403	1.57013e+02	1.40300e+03	1.03352e+00	1.56917e+02
1411	1.57663e+02	1.41100e+03	1.03321e+00	1.57583e+02
1419	1.58351e+02	1.41900e+03	1.03290e+00	1.58250e+02
1427	1.59005e+02	1.42700e+03	1.03265e+00	1.58917e+02
1435	1.59680e+02	1.43500e+03	1.03246e+00	1.59583e+02
1443	1.60353e+02	1.44300e+03	1.03198e+00	1.60250e+02
1451	1.61010e+02	1.45100e+03	1.03137e+00	1.60917e+02
1459	1.61700e+02	1.45900e+03	1.03083e+00	1.61583e+02
1467	1.62356e+02	1.46700e+03	1.03025e+00	1.62250e+02
1475	1.63030e+02	1.47500e+03	1.02972e+00	1.62917e+02
1483	1.63711e+02	1.48300e+03	1.02918e+00	1.63583e+02
1491	1.64394e+02	1.49100e+03	1.02855e+00	1.64250e+02
1499	1.65045e+02	1.49900e+03	1.02790e+00	1.64917e+02
1507	1.65724e+02	1.50700e+03	1.02725e+00	1.65583e+02
1515	1.66382e+02	1.51500e+03	1.02657e+00	1.66250e+02
1523	1.67053e+02	1.52300e+03	1.02581e+00	1.66917e+02
1531	1.67731e+02	1.53100e+03	1.02503e+00	1.67583e+02
1539	1.68390e+02	1.53900e+03	1.02421e+00	1.68250e+02
1547	1.69074e+02	1.54700e+03	1.02330e+00	1.68917e+02
1555	1.69734e+02	1.55500e+03	1.02241e+00	1.69583e+02
1563	1.70400e+02	1.56300e+03	1.02148e+00	1.70250e+02
1571	1.71062e+02	1.57100e+03	1.02042e+00	1.70917e+02
1579	1.71732e+02	1.57900e+03	1.01954e+00	1.71583e+02
1587	1.72412e+02	1.58700e+03	1.01852e+00	1.72250e+02
1595	1.73067e+02	1.59500e+03	1.01736e+00	1.72917e+02
1603	1.73744e+02	1.60300e+03	1.01641e+00	1.73583e+02
1611	1.74414e+02	1.61100e+03	1.01542e+00	1.74250e+02
1619	1.75077e+02	1.61900e+03	1.01436e+00	1.74917e+02
1627	1.75746e+02	1.62700e+03	1.01352e+00	1.75583e+02
1635	1.76404e+02	1.63500e+03	1.01252e+00	1.76250e+02
1643	1.77077e+02	1.64300e+03	1.01160e+00	1.76917e+02
1651	1.77746e+02	1.65100e+03	1.01073e+00	1.77583e+02
1659	1.78417e+02	1.65900e+03	1.00988e+00	1.78250e+02
1667	1.79085e+02	1.66700e+03	1.00909e+00	1.78917e+02
1675	1.79763e+02	1.67500e+03	1.00833e+00	1.79583e+02
1683	1.80419e+02	1.68300e+03	1.00755e+00	1.80250e+02
1691	1.81096e+02	1.69100e+03	1.00681e+00	1.80917e+02
1699	1.81757e+02	1.69900e+03	1.00611e+00	1.81583e+02
1707	1.82423e+02	1.70700e+03	1.00537e+00	1.82250e+02
1715	1.83096e+02	1.71500e+03	1.00477e+00	1.82917e+02
1723	1.83770e+02	1.72300e+03	1.00420e+00	1.83583e+02
1731	1.84432e+02	1.73100e+03	1.00374e+00	1.84250e+02
1739	1.85105e+02	1.73900e+03	1.00327e+00	1.84917e+02
1747	1.85776e+02	1.74700e+03	1.00268e+00	1.85583e+02
1755	1.86433e+02	1.75500e+03	1.00231e+00	1.86250e+02
1763	1.87114e+02	1.76300e+03	1.00200e+00	1.86917e+02
1771	1.87769e+02	1.77100e+03	1.00163e+00	1.87583e+02
1779	1.88443e+02	1.77900e+03	1.00128e+00	1.88250e+02
1787	1.89120e+02	1.78700e+03	1.00093e+00	1.88917e+02
1795	1.89775e+02	1.79500e+03	1.00065e+00	1.89583e+02
1803	1.90439e+02	1.80300e+03	1.00068e+00	1.90250e+02
1811	1.91121e+02	1.81100e+03	1.00035e+00	1.90917e+02
1819	1.91779e+02	1.81900e+03	1.00014e+00	1.91583e+02
1827	1.92447e+02	1.82700e+03	9.99974e-01	1.92250e+02
1835	1.93115e+02	1.83500e+03	9.99794e-01	1.92917e+02
1843	1.93789e+02	1.84300e+03	9.99589e-01	1.93583e+02
1851	1.94456e+02	1.85100e+03	9.99440e-01	1.94250e+02
1859	1.95128e+02	1.85900e+03	9.99235e-01	1.94917e+02
1867	1.95796e+02	1.86700e+03	9.99124e-01	1.95583e+02
1875	1.96461e+02	1.87500e+03	9.98873e-01	1.96250e+02
1883	1.97114e+02	1.88300e+03	9.98753e-01	1.96917e+02
1891	1.97797e+02	1.89100e+03	9.98612e-01	1.97583e+02
1899	1.98471e+02	1.89900e+03	9.98309e-01	1.98250e+02
1907	1.99130e+02	1.90700e+03	9.98055e-01	1.98917e+02
1915	1.99808e+02	1.91500e+03	9.97968e-01	1.99583e+02
1923	2.00460e+02	1.92300e+03	9.97873e-01	2.00250e+02
1931	2.01132e+02	1.93100e+03	9.97814e-01	2.00917e+02
1939	2.01804e+02	1.93900e+03	9.97630e-01	2.01583e+02
1947	2.02464e+02	1.94700e+03	9.97442e-01	2.02250e+02
1955	2.03141e+02	1.95500e+03	9.97209e-01	2.02917e+02
1963	2.03811e+02	1.96300e+03	9.97081e-01	2.03583e+02
1971	2.04478e+02	1.97100e+03	9.97032e-01	2.04250e+02
1979	2.05142e+02	1.97900e+03	9.96850e-01	2.04917e+02
1987	2.05810e+02	1.98700e+03	9.96622e-01	2.05583e+02
1995	2.06484e+02	1.99500e+03	9.96458e-01	2.06250e+02
2003	2.07156e+02	2.00300e+03	9.96455e-01	2.06917e+02
2011	2.07823e+02	2.01100e+03	9.96354e-01	2.07583e+02
2019	2.08490e+02	2.01900e+03	9.96269e-01	2.08250e+02
2027	2.09162e+02	2.02700e+03	9.96192e-01	2.08917e+02
2035	2.09828e+02	2.03500e+03	9.95993e-01	2.09583e+02
2043	2.10495e+02	2.04300e+03	9.95872e-01	2.10250e+02
2051	2.11156e+02	2.05100e+03	9.95836e-01	2.10917e+02
2059	2.11827e+02	2.05900e+03	9.95739e-01	2.11583e+02
2067	2.12503e+02	2.06700e+03	9.95618e-01	2.12250e+02
2075	2.13159e+02	2.07500e+03	9.95502e-01	2.12917e+02
2083	2.13851e+02	2.08300e+03	9.95492e-01	2.13583e+02
2091	2.14505e+02	2.09100e+03	9.95420e-01	2.14250e+02
2099	2.15163e+02	2.09900e+03	9.95310e-01	2.14917e+02
2107	2.15838e+02	2.10700e+03	9.95272e-01	2.15583e+02
2115	2.16511e+02	2.11500e+03	9.95183e-01	2.16250e+02
2123	2.17173e+02	2.12300e+03	9.95106e-01	2.16917e+02
2131	2.17834e+02	2.13100e+03	9.95084e-01	2.17583e+02
2139	2.18509e+02	2.13900e+03	9.94914e-01	2.18250e+02
2147	2.19171e+02	2.14700e+03	9.94749e-01	2.18917e+02
2155	2.19847e+02	2.15500e+03	9.94784e-01	2.19583e+02
2163	2.20505e+02	2.16300e+03	9.94724e-01	2.20250e+02
2171	2.21166e+02	2.17100e+03	9.94592e-01	2.20917e+02
2179	2.21838e+02	2.17900e+03	9.94753e-01	2.21583e+02
2187	2.22509e+02	2.18700e+03	9.94577e-01	2.22250e+02
2195	2.23179e+02	2.19500e+03	9.94551e-01	2.22917e+02
2203	2.23838e+02	2.20300e+03	9.94439e-01	2.23583e+02
2211	2.24526e+02	2.21100e+03	9.94461e-01	2.24250e+02
2219	2.25175e+02	2.21900e+03	9.94535e-01	2.24917e+02
2227	2.25854e+02	2.22700e+03	9.94482e-01	2.25583e+02
2235	2.26516e+02	2.23500e+03	9.94241e-01	2.26250e+02
2243	2.27179e+02	2.24300e+03	9.94241e-01	2.26917e+02
2251	2.27851e+02	2.25100e+03	9.94287e-01	2.27583e+02
2259	2.28513e+02	2.25900e+03	9.94184e-01	2.28250e+02
2267	2.29180e+02	2.26700e+03	9.94070e-01	2.28917e+02
2275	2.29848e+02	2.27500e+03	9.93968e-01	2.29583e+02
2283	2.30511e+02	2.28300e+03	9.94014e-01	2.30250e+02
2291	2.31187e+02	2.29100e+03	9.93931e-01	2.30917e+02
2299	2.31861e+02	2.29900e+03	9.93905e-01	2.31583e+02
2307	2.32525e+02	2.30700e+03	9.93803e-01	2.32250e+02
2315	2.33198e+02	2.31500e+03	9.93658e-01	2.32917e+02
2323	2.33860e+02	2.32300e+03	9.93678e-01	2.33583e+02
2331	2.34530e+02	2.33100e+03	9.93677e-01	2.34250e+02
2339	2.35191e+02	2.33900e+03	9.93619e-01	2.34917e+02
2347	2.35859e+02	2.34700e+03	9.93510e-01	2.35583e+02
2355	2.36522e+02	2.35500e+03	9.93337e-01	2.36250e+02
2363	2.37185e+02	2.36300e+03	9.93313e-01	2.36917e+02
2371	2.37857e+02	2.37100e+03	9.93385e-01	2.37583e+02
2379	2.38534e+02	2.37900e+03	9.93414e-01	2.38250e+02
2387	2.39193e+02	2.38700e+03	9.93284e-01	2.38917e+02
2395	2.39858e+02	2.39500e+03	9.93255e-01	2.39583e+02
2403	2.40527e+02	2.40300e+03	9.93237e-01	2.40250e+02
2411	2.41185e+02	2.41100e+03	9.93123e-01	2.40917e+02
2419	2.41853e+02	2.41900e+03	9.93176e-01	2.41583e+02
2427	2.42519e+02	2.42700e+03	9.93047e-01	2.42250e+02
2435	2.43193e+02	2.43500e+03	9.92827e-01	2.42917e+02
2443	2.43867e+02	2.44300e+03	9.92637e-01	2.43583e+02
2451	2.44531e+02	2.45100e+03	9.92556e-01	2.44250e+02
2459	2.45194e+02	2.45900e+03	9.92732e-01	2.44917e+02
2467	2.45867e+02	2.46700e+03	9.92477e-01	2.45583e+02
2475	2.46535e+02	2.47500e+03	9.92319e-01	2.46250e+02
2483	2.47195e+02	2.48300e+03	9.92209e-01	2.46917e+02
2491	2.47859e+02	2.49100e+03	9.92119e-01	2.47583e+02
2499	2.48531e+02	2.49900e+03	9.92157e-01	2.48250e+02
2507	2.49203e+02	2.50700e+03	9.92142e-01	2.48917e+02
2515	2.49862e+02	2.51500e+03	9.92034e-01	2.49583e+02
2523	2.50530e+02	2.52300e+03	9.91850e-01	2.50250e+02
2531	2.51202e+02	2.53100e+03	9.91653e-01	2.50917e+02
2539	2.51858e+02	2.53900e+03	9.91534e-01	2.51583e+02
2547	2.52519e+02	2.54700e+03	9.91379e-01	2.52250e+02
2555	2.53192e+02	2.55500e+03	9.91289e-01	2.52917e+02
2563	2.53866e+02	2.56300e+03	9.91134e-01	2.53583e+02
2571	2.54536e+02	2.57100e+03	9.90973e-01	2.54250e+02
2579	2.55204e+02	2.57900e+03	9.90847e-01	2.54917e+02
2587	2.55863e+02	2.58700e+03	9.90704e-01	2.55583e+02
2595	2.56541e+02	2.59500e+03	9.90577e-01	2.56250e+02
2603	2.57203e+02	2.60300e+03	9.90304e-01	2.56917e+02
2611	2.57869e+02	2.61100e+03	9.90108e-01	2.57583e+02
2619	2.58534e+02	2.61900e+03	9.89951e-01	2.58250e+02
2627	2.59200e+02	2.62700e+03	9.89808e-01	2.58917e+02
2635	2.59867e+02	2.63500e+03	9.89670e-01	2.59583e+02
2643	2.60533e+02	2.64300e+03	9.89522e-01	2.60250e+02
2651	2.61194e+02	2.65100e+03	9.89293e-01	2.60917e+02
2659	2.61867e+02	2.65900e+03	9.89025e-01	2.61583e+02
2667	2.62527e+02	2.66700e+03	9.88860e-01	2.62250e+02
2675	2.63197e+02	2.67500e+03	9.88634e-01	2.62917e+02
2683	2.63864e+02	2.68300e+03	9.88474e-01	2.63583e+02
2691	2.64517e+02	2.69100e+03	9.88153e-01	2.64250e+02
2699	2.65189e+02	2.69900e+03	9.87769e-01	2.64917e+02
2707	2.65859e+02	2.70700e+03	9.87530e-01	2.65583e+02
2715	2.66522e+02	2.71500e+03	9.87271e-01	2.66250e+02
2723	2.67184e+02	2.72300e+03	9.86868e-01	2.66917e+02
2731	2.67843e+02	2.73100e+03	9.86484e-01	2.67583e+02
2739	2.68519e+02	2.73900e+03	9.86193e-01	2.68250e+02
2747	2.69178e+02	2.74700e+03	9.85917e-01	2.68917e+02
2755	2.69845e+02	2.75500e+03	9.85596e-01	2.69583e+02
2763	2.70511e+02	2.76300e+03	9.85117e-01	2.70250e+02
2771	2.71180e+02	2.77100e+03	9.84677e-01	2.70917e+02
2779	2.71849e+02	2.77900e+03	9.84273e-01	2.71583e+02
2787	2.72512e+02	2.78700e+03	9.83893e-01	2.72250e+02
2795	2.73182e+02	2.79500e+03	9.83479e-01	2.72917e+02
2803	2.73841e+02	2.80300e+03	9.82915e-01	2.73583e+02
2811	2.74516e+02	2.81100e+03	9.82399e-01	2.74250e+02
2819	2.75183e+02	2.81900e+03	9.81927e-01	2.74917e+02
2827	2.75844e+02	2.82700e+03	9.81389e-01	2.75583e+02
2835	2.76519e+02	2.83500e+03	9.80632e-01	2.76250e+02
2843	2.77177e+02	2.84300e+03	9.80015e-01	2.76917e+02
2851	2.77838e+02	2.85100e+03	9.79363e-01	2.77583e+02
2859	2.78508e+02	2.85900e+03	9.78626e-01	2.78250e+02
2867	2.79165e+02	2.86700e+03	9.77925e-01	2.78917e+02
2875	2.79853e+02	2.87500e+03	9.77164e-01	2.79583e+02
2883	2.80507e+02	2.88300e+03	9.76345e-01	2.80250e+02
2891	2.81185e+02	2.89100e+03	9.75583e-01	2.80917e+02
2899	2.81840e+02	2.89900e+03	9.74849e-01	2.81583e+02
2907	2.82518e+02	2.90700e+03	9.74113e-01	2.82250e+02
2915	2.83169e+02	2.91500e+03	9.73237e-01	2.82917e+02
2923	2.83829e+02	2.92300e+03	9.72345e-01	2.83583e+02
2931	2.84509e+02	2.93100e+03	9.71344e-01	2.84250e+02
2939	2.85174e+02	2.93900e+03	9.70351e-01	2.84917e+02
2947	2.85844e+02	2.94700e+03	9.69499e-01	2.85583e+02
2955	2.86503e+02	2.95500e+03	9.68483e-01	2.86250e+02
2963	2.87169e+02	2.96300e+03	9.67402e-01	2.86917e+02
2971	2.87846e+02	2.97100e+03	9.66436e-01	2.87583e+02
2979	2.88503e+02	2.97900e+03	9.65342e-01	2.88250e+02
2987	2.89173e+02	2.98700e+03	9.64311e-01	2.88917e+02
2995	2.89832e+02	2.99500e+03	9.63116e-01	2.89583e+02
3003	2.90494e+02	3.00300e+03	9.62015e-01	2.90250e+02
3011	2.91158e+02	3.01100e+03	9.61031e-01	2.90917e+02
3019	2.91828e+02	3.01900e+03	9.59889e-01	2.91583e+02
3027	2.92496e+02	3.02700e+03	9.58633e-01	2.92250e+02
3035	2.93165e+02	3.03500e+03	9.57438e-01	2.92917e+02
3043	2.93820e+02	3.04300e+03	9.56416e-01	2.93583e+02
3051	2.94505e+02	3.05100e+03	9.55332e-01	2.94250e+02
3059	2.95160e+02	3.05900e+03	9.54265e-01	2.94917e+02
3067	2.95826e+02	3.06700e+03	9.53168e-01	2.95583e+02
3075	2.96493e+02	3.07500e+03	9.52019e-01	2.96250e+02
3083	2.97164e+02	3.08300e+03	9.50741e-01	2.96917e+02
3091	2.97828e+02	3.09100e+03	9.49540e-01	2.97583e+02
3099	2.98483e+02	3.09900e+03	9.48420e-01	2.98250e+02
3107	2.99148e+02	3.10700e+03	9.47377e-01	2.98917e+02
3115	2.99809e+02	3.11500e+03	9.46137e-01	2.99583e+02
3123	3.00486e+02	3.12300e+03	9.44965e-01	3.00250e+02
3131	3.01149e+02	3.13100e+03	9.43906e-01	3.00917e+02
3139	3.01818e+02	3.13900e+03	9.42766e-01	3.01583e+02
3147	3.02480e+02	3.14700e+03	9.41579e-01	3.02250e+02
3155	3.03144e+02	3.15500e+03	9.40408e-01	3.02917e+02
3163	3.03821e+02	3.16300e+03	9.39239e-01	3.03583e+02
3171	3.04474e+02	3.17100e+03	9.38098e-01	3.04250e+02
3179	3.05137e+02	3.17900e+03	9.36799e-01	3.04917e+02
3187	3.05804e+02	3.18700e+03	9.35558e-01	3.05583e+02
3195	3.06473e+02	3.19500e+03	9.34386e-01	3.06250e+02
3203	3.07130e+02	3.20300e+03	9.33022e-01	3.06917e+02
3211	3.07799e+02	3.21100e+03	9.31617e-01	3.07583e+02
3219	3.08461e+02	3.21900e+03	9.30168e-01	3.08250e+02
3227	3.09119e+02	3.22700e+03	9.28759e-01	3.08917e+02
3235	3.09777e+02	3.23500e+03	9.27318e-01	3.09583e+02
3243	3.10454e+02	3.24300e+03	9.25844e-01	3.10250e+02
3251	3.11122e+02	3.25100e+03	9.24268e-01	3.10917e+02
3259	3.11783e+02	3.25900e+03	9.22439e-01	3.11583e+02
3267	3.12447e+02	3.26700e+03	9.20964e-01	3.12250e+02
3275	3.13114e+02	3.27500e+03	9.19318e-01	3.12917e+02
3283	3.13779e+02	3.28300e+03	9.17395e-01	3.13583e+02
3291	3.14451e+02	3.29100e+03	9.15477e-01	3.14250e+02
3299	3.15097e+02	3.29900e+03	9.13512e-01	3.14917e+02
3307	3.15774e+02	3.30700e+03	9.11449e-01	3.15583e+02
3315	3.16427e+02	3.31500e+03	9.09282e-01	3.16250e+02
3323	3.17107e+02	3.32300e+03	9.07080e-01	3.16917e+02
3331	3.17762e+02	3.33100e+03	9.04709e-01	3.17583e+02
3339	3.18427e+02	3.33900e+03	9.02189e-01	3.18250e+02
3347	3.19094e+02	3.34700e+03	8.99538e-01	3.18917e+02
3355	3.19769e+02	3.35500e+03	8.96940e-01	3.19583e+02
3363	3.20415e+02	3.36300e+03	8.94123e-01	3.20250e+02
3371	3.21077e+02	3.37100e+03	8.91162e-01	3.20917e+02
3379	3.21750e+02	3.37900e+03	8.87947e-01	3.21583e+02
3387	3.22416e+02	3.38700e+03	8.84779e-01	3.22250e+02
3395	3.23077e+02	3.39500e+03	8.81278e-01	3.22917e+02
3403	3.23744e+02	3.40300e+03	8.77678e-01	3.23583e+02
3411	3.24405e+02	3.41100e+03	8.74101e-01	3.24250e+02
3419	3.25073e+02	3.41900e+03	8.70220e-01	3.24917e+02
3427	3.25735e+02	3.42700e+03	8.66226e-01	3.25583e+02
3435	3.26387e+02	3.43500e+03	8.61947e-01	3.26250e+02
3443	3.27060e+02	3.44300e+03	8.57445e-01	3.26917e+02
3451	3.27722e+02	3.45100e+03	8.52739e-01	3.27583e+02
3459	3.28394e+02	3.45900e+03	8.47789e-01	3.28250e+02
3467	3.29058e+02	3.46700e+03	8.42688e-01	3.28917e+02
3475	3.29716e+02	3.47500e+03	8.37486e-01	3.29583e+02
3483	3.30381e+02	3.48300e+03	8.32001e-01	3.30250e+02
3491	3.31049e+02	3.49100e+03	8.26354e-01	3.30917e+02
3499	3.31721e+02	3.49900e+03	8.20522e-01	3.31583e+02
3507	3.32372e+02	3.50700e+03	8.14385e-01	3.32250e+02
3515	3.33042e+02	3.51500e+03	8.07908e-01	3.32917e+02
3523	3.33706e+02	3.52300e+03	8.01207e-01	3.33583e+02
3531	3.34369e+02	3.53100e+03	7.94359e-01	3.34250e+02
3539	3.35023e+02	3.53900e+03	7.87227e-01	3.34917e+02
3547	3.35690e+02	3.54700e+03	7.80013e-01	3.35583e+02
3555	3.36355e+02	3.55500e+03	7.72384e-01	3.36250e+02
3563	3.37021e+02	3.56300e+03	7.64479e-01	3.36917e+02
3571	3.37694e+02	3.57100e+03	7.56518e-01	3.37583e+02
3579	3.38354e+02	3.57900e+03	7.48296e-01	3.38250e+02
3587	3.39007e+02	3.58700e+03	7.39726e-01	3.38917e+02
3595	3.39683e+02	3.59500e+03	7.30929e-01	3.39583e+02
3603	3.40354e+02	3.60300e+03	7.21963e-01	3.40250e+02
3611	3.41011e+02	3.61100e+03	7.12887e-01	3.40917e+02
3619	3.41674e+02	3.61900e+03	7.03619e-01	3.41583e+02
3627	3.42342e+02	3.62700e+03	6.94062e-01	3.42250e+02
3635	3.43003e+02	3.63500e+03	6.84281e-01	3.42917e+02
3643	3.43653e+02	3.64300e+03	6.74421e-01	3.43583e+02
3651	3.44334e+02	3.65100e+03	6.64315e-01	3.44250e+02
3659	3.44991e+02	3.65900e+03	6.54030e-01	3.44917e+02
3667	3.45663e+02	3.66700e+03	6.43536e-01	3.45583e+02
3675	3.46330e+02	3.67500e+03	6.32862e-01	3.46250e+02
3683	3.46983e+02	3.68300e+03	6.22014e-01	3.46917e+02
3691	3.47651e+02	3.69100e+03	6.10979e-01	3.47583e+02
3699	3.48317e+02	3.69900e+03	5.99970e-01	3.48250e+02
3707	3.48987e+02	3.70700e+03	5.88917e-01	3.48917e+02
3715	3.49646e+02	3.71500e+03	5.77758e-01	3.49583e+02
3723	3.50315e+02	3.72300e+03	5.66397e-01	3.50250e+02
3731	3.50972e+02	3.73100e+03	5.55149e-01	3.50917e+02
3739	3.51638e+02	3.73900e+03	5.43766e-01	3.51583e+02
3747	3.52308e+02	3.74700e+03	5.32326e-01	3.52250e+02
3755	3.52970e+02	3.75500e+03	5.20835e-01	3.52917e+02
3763	3.53642e+02	3.76300e+03	5.09269e-01	3.53583e+02
3771	3.54293e+02	3.77100e+03	4.97739e-01	3.54250e+02
3779	3.54966e+02	3.77900e+03	4.86252e-01	3.54917e+02
3787	3.55627e+02	3.78700e+03	4.74675e-01	3.55583e+02
3795	3.56284e+02	3.79500e+03	4.63156e-01	3.56250e+02
3803	3.56949e+02	3.80300e+03	4.51543e-01	3.56917e+02
3811	3.57622e+02	3.81100e+03	4.40003e-01	3.57583e+02
3819	3.58278e+02	3.81900e+03	4.28316e-01	3.58250e+02
3827	3.58955e+02	3.82700e+03	4.16535e-01	3.58917e+02
3835	3.59620e+02	3.83500e+03	4.04912e-01	3.59583e+02
3843	3.60283e+02	3.84300e+03	3.93255e-01	3.60250e+02
3851	3.60946e+02	3.85100e+03	3.81772e-01	3.60917e+02
3859	3.61620e+02	3.85900e+03	3.70291e-01	3.61583e+02
3867	3.62282e+02	3.86700e+03	3.58934e-01	3.62250e+02
3875	3.62942e+02	3.87500e+03	3.47821e-01	3.62917e+02
3883	3.63610e+02	3.88300e+03	3.36749e-01	3.63583e+02
3891	3.64274e+02	3.89100e+03	3.26027e-01	3.64250e+02
3899	3.64947e+02	3.89900e+03	3.15369e-01	3.64917e+02
3907	3.65618e+02	3.90700e+03	3.04845e-01	3.65583e+02
3915	3.66279e+02	3.91500e+03	2.94706e-01	3.66250e+02
3923	3.66947e+02	3.92300e+03	2.84779e-01	3.66917e+02
3931	3.67602e+02	3.93100e+03	2.75061e-01	3.67583e+02
3939	3.68266e+02	3.93900e+03	2.65562e-01	3.68250e+02
3947	3.68933e+02	3.94700e+03	2.56253e-01	3.68917e+02
3955	3.69597e+02	3.95500e+03	2.47245e-01	3.69583e+02
3963	3.70263e+02	3.96300e+03	2.38535e-01	3.70250e+02
3971	3.70929e+02	3.97100e+03	2.30058e-01	3.70917e+02
3979	3.71592e+02	3.97900e+03	2.21771e-01	3.71583e+02
3987	3.72267e+02	3.98700e+03	2.13797e-01	3.72250e+02
3995	3.72929e+02	3.99500e+03	2.06052e-01	3.72917e+02
4003	3.73606e+02	4.00300e+03	1.98511e-01	3.73583e+02
4011	3.74261e+02	4.01100e+03	1.91341e-01	3.74250e+02
4019	3.74929e+02	4.01900e+03	1.84334e-01	3.74917e+02
4027	3.75603e+02	4.02700e+03	1.77621e-01	3.75583e+02
4035	3.76267e+02	4.03500e+03	1.71213e-01	3.76250e+02
4043	3.76934e+02	4.04300e+03	1.64989e-01	3.76917e+02
4051	3.77594e+02	4.05100e+03	1.59034e-01	3.77583e+02
4059	3.78267e+02	4.05900e+03	1.53454e-01	3.78250e+02
4067	3.78937e+02	4.06700e+03	1.47890e-01	3.78917e+02
4075	3.79597e+02	4.07500e+03	1.42791e-01	3.79583e+02
4083	3.80268e+02	4.08300e+03	1.37836e-01	3.80250e+02
4091	3.80928e+02	4.09100e+03	1.33043e-01	3.80917e+02
4099	3.81587e+02	4.09900e+03	1.28554e-01	3.81583e+02
4107	3.82260e+02	4.10700e+03	1.24327e-01	3.82250e+02
4115	3.82930e+02	4.11500e+03	1.20244e-01	3.82917e+02
4123	3.83592e+02	4.12300e+03	1.16262e-01	3.83583e+02
4131	3.84253e+02	4.13100e+03	1.12537e-01	3.84250e+02
4139	3.84924e+02	4.13900e+03	1.09108e-01	3.84917e+02
4147	3.85588e+02	4.14700e+03	1.05816e-01	3.85583e+02
4155	3.86273e+02	4.15500e+03	1.02631e-01	3.86250e+02
4163	3.86919e+02	4.16300e+03	9.96418e-02	3.86917e+02
4171	3.87585e+02	4.17100e+03	9.69931e-02	3.87583e+02
4179	3.88248e+02	4.17900e+03	9.44749e-02	3.88250e+02
4187	3.88915e+02	4.18700e+03	9.21227e-02	3.88917e+02
4195	3.89589e+02	4.19500e+03	8.99148e-02	3.89583e+02
4203	3.90242e+02	4.20300e+03	8.78364e-02	3.90250e+02
4211	3.90906e+02	4.21100e+03	8.56893e-02	3.90917e+02
4219	3.91574e+02	4.21900e+03	8.35533e-02	3.91583e+02
4227	3.92235e+02	4.22700e+03	8.16161e-02	3.92250e+02
4235	3.92903e+02	4.23500e+03	8.02137e-02	3.92917e+02
4243	3.93578e+02	4.24300e+03	7.87980e-02	3.93583e+02
4251	3.94244e+02	4.25100e+03	7.73397e-02	3.94250e+02
4259	3.94900e+02	4.25900e+03	7.59401e-02	3.94917e+02
4267	3.95557e+02	4.26700e+03	7.46967e-02	3.95583e+02
4275	3.96229e+02	4.27500e+03	7.36208e-02	3.96250e+02
4283	3.96902e+02	4.28300e+03	7.26247e-02	3.96917e+02
4291	3.97558e+02	4.29100e+03	7.16538e-02	3.97583e+02
4299	3.98222e+02	4.29900e+03	7.07644e-02	3.98250e+02
4307	3.98887e+02	4.30700e+03	7.00073e-02	3.98917e+02
4315	3.99543e+02	4.31500e+03	6.90488e-02	3.99583e+02
4323	4.00206e+02	4.32300e+03	6.82957e-02	4.00250e+02
4331	4.00872e+02	4.33100e+03	6.76231e-02	4.00917e+02
4339	4.01535e+02	4.33900e+03	6.68718e-02	4.01583e+02
4347	4.02196e+02	4.34700e+03	6.63071e-02	4.02250e+02
4355	4.02874e+02	4.35500e+03	6.58737e-02	4.02917e+02
4363	4.03531e+02	4.36300e+03	6.53525e-02	4.03583e+02
4371	4.04192e+02	4.37100e+03	6.47887e-02	4.04250e+02
4379	4.04849e+02	4.37900e+03	6.43742e-02	4.04917e+02
4387	4.05515e+02	4.38700e+03	6.40306e-02	4.05583e+02
4395	4.06186e+02	4.39500e+03	6.36501e-02	4.06250e+02
4403	4.06846e+02	4.40300e+03	6.32740e-02	4.06917e+02
4411	4.07510e+02	4.41100e+03	6.28850e-02	4.07583e+02
4419	4.08170e+02	4.41900e+03	6.25591e-02	4.08250e+02
4427	4.08840e+02	4.42700e+03	6.23040e-02	4.08917e+02
4435	4.09508e+02	4.43500e+03	6.20577e-02	4.09583e+02
4443	4.10163e+02	4.44300e+03	6.18190e-02	4.10250e+02
4451	4.10829e+02	4.45100e+03	6.16188e-02	4.10917e+02
4459	4.11492e+02	4.45900e+03	6.13394e-02	4.11583e+02
4467	4.12152e+02	4.46700e+03	6.11568e-02	4.12250e+02
4475	4.12814e+02	4.47500e+03	6.11500e-02	4.12917e+02
4483	4.13483e+02	4.48300e+03	6.09511e-02	4.13583e+02
4491	4.14153e+02	4.49100e+03	6.08780e-02	4.14250e+02
4499	4.14812e+02	4.49900e+03	6.07919e-02	4.14917e+02
4507	4.15460e+02	4.50700e+03	6.07842e-02	4.15583e+02
4515	4.16130e+02	4.51500e+03	6.07723e-02	4.16250e+02
4523	4.16800e+02	4.52300e+03	6.06608e-02	4.16917e+02
4531	4.17462e+02	4.53100e+03	6.05788e-02	4.17583e+02
4539	4.18124e+02	4.53900e+03	6.04575e-02	4.18250e+02
4547	4.18773e+02	4.54700e+03	6.04171e-02	4.18917e+02
4555	4.19450e+02	4.55500e+03	6.04153e-02	4.19583e+02
4563	4.20116e+02	4.56300e+03	6.03044e-02	4.20250e+02
4571	4.20770e+02	4.57100e+03	6.01571e-02	4.20917e+02
4579	4.21436e+02	4.57900e+03	6.01344e-02	4.21583e+02
4587	4.22103e+02	4.58700e+03	6.02023e-02	4.22250e+02
4595	4.22750e+02	4.59500e+03	6.02874e-02	4.22917e+02
4603	4.23425e+02	4.60300e+03	6.02633e-02	4.23583e+02
4611	4.24088e+02	4.61100e+03	6.01273e-02	4.24250e+02
4619	4.24752e+02	4.61900e+03	6.01428e-02	4.24917e+02
4627	4.25409e+02	4.62700e+03	6.03621e-02	4.25583e+02
4635	4.26076e+02	4.63500e+03	6.02515e-02	4.26250e+02
4643	4.26745e+02	4.64300e+03	6.00593e-02	4.26917e+02
4651	4.27398e+02	4.65100e+03	5.95585e-02	4.27583e+02
4659	4.28066e+02	4.65900e+03	5.96763e-02	4.28250e+02
4667	4.28726e+02	4.66700e+03	6.06951e-02	4.28917e+02
4675	4.29372e+02	4.67500e+03	6.04646e-02	4.29583e+02
4683	4.30048e+02	4.68300e+03	6.02433e-02	4.30250e+02
4691	4.30714e+02	4.69100e+03	6.02201e-02	4.30917e+02
4699	4.31375e+02	4.69900e+03	5.98962e-02	4.31583e+02
4707	4.32033e+02	4.70700e+03	6.00192e-02	4.32250e+02
4715	4.32694e+02	4.71500e+03	6.00239e-02	4.32917e+02
4723	4.33360e+02	4.72300e+03	5.93715e-02	4.33583e+02
4731	4.34031e+02	4.73100e+03	5.98367e-02	4.34250e+02
4739	4.34692e+02	4.73900e+03	6.03762e-02	4.34917e+02
4747	4.35359e+02	4.74700e+03	6.00767e-02	4.35583e+02
4755	4.36014e+02	4.75500e+03	5.99647e-02	4.36250e+02
4763	4.36687e+02	4.76300e+03	5.99748e-02	4.36917e+02
4771	4.37341e+02	4.77100e+03	5.99664e-02	4.37583e+02
4779	4.38000e+02	4.77900e+03	6.01402e-02	4.38250e+02
4787	4.38660e+02	4.78700e+03	6.00875e-02	4.38917e+02
4795	4.39317e+02	4.79500e+03	5.98843e-02	4.39583e+02
4803	4.39998e+02	4.80300e+03	5.98537e-02	4.40250e+02
4811	4.40650e+02	4.81100e+03	5.99388e-02	4.40917e+02
4819	4.41322e+02	4.81900e+03	5.94695e-02	4.41583e+02
4827	4.41986e+02	4.82700e+03	5.93314e-02	4.42250e+02
4835	4.42637e+02	4.83500e+03	5.96815e-02	4.42917e+02
4843	4.43308e+02	4.84300e+03	6.00421e-02	4.43583e+02
4851	4.43965e+02	4.85100e+03	6.02659e-02	4.44250e+02
4859	4.44632e+02	4.85900e+03	5.99773e-02	4.44917e+02
4867	4.45290e+02	4.86700e+03	5.98918e-02	4.45583e+02
4875	4.45942e+02	4.87500e+03	5.99888e-02	4.46250e+02
4883	4.46605e+02	4.88300e+03	5.99475e-02	4.46917e+02
4891	4.47260e+02	4.89100e+03	5.98792e-02	4.47583e+02
4899	4.47935e+02	4.89900e+03	5.98790e-02	4.48250e+02
4907	4.48596e+02	4.90700e+03	5.97527e-02	4.48917e+02
4915	4.49257e+02	4.91500e+03	5.97738e-02	4.49583e+02
4923	4.49927e+02	4.92300e+03	5.98351e-02	4.50250e+02
4931	4.50592e+02	4.93100e+03	5.98118e-02	4.50917e+02
4939	4.51249e+02	4.93900e+03	5.98101e-02	4.51583e+02
4947	4.51911e+02	4.94700e+03	5.97674e-02	4.52250e+02
4955	4.52577e+02	4.95500e+03	5.96489e-02	4.52917e+02
4963	4.53226e+02	4.96300e+03	5.96440e-02	4.53583e+02
4971	4.53892e+02	4.97100e+03	5.97706e-02	4.54250e+02
4979	4.54555e+02	4.97900e+03	5.97713e-02	4.54917e+02
4987	4.55217e+02	4.98700e+03	5.96855e-02	4.55583e+02
4995	4.55880e+02	4.99500e+03	5.96474e-02	4.56250e+02
5003	4.56548e+02	5.00300e+03	5.96385e-02	4.56917e+02
5011	4.57214e+02	5.01100e+03	5.97081e-02	4.57583e+02
5019	4.57870e+02	5.01900e+03	5.97660e-02	4.58250e+02
5027	4.58530e+02	5.02700e+03	5.97137e-02	4.58917e+02
5035	4.59192e+02	5.03500e+03	5.96901e-02	4.59583e+02
5043	4.59848e+02	5.04300e+03	5.98109e-02	4.60250e+02
5051	4.60521e+02	5.05100e+03	5.98102e-02	4.60917e+02
5059	4.61178e+02	5.05900e+03	5.98394e-02	4.61583e+02
5067	4.61832e+02	5.06700e+03	5.98261e-02	4.62250e+02
5075	4.62499e+02	5.07500e+03	5.96788e-02	4.62917e+02
5083	4.63167e+02	5.08300e+03	5.97463e-02	4.63583e+02
5091	4.63824e+02	5.09100e+03	5.98445e-02	4.64250e+02
5099	4.64489e+02	5.09900e+03	5.98499e-02	4.64917e+02
5107	4.65156e+02	5.10700e+03	5.98293e-02	4.65583e+02
5115	4.65809e+02	5.11500e+03	5.98455e-02	4.66250e+02
5123	4.66481e+02	5.12300e+03	5.99408e-02	4.66917e+02
5131	4.67142e+02	5.13100e+03	5.99793e-02	4.67583e+02
5139	4.67791e+02	5.13900e+03	5.99866e-02	4.68250e+02
5147	4.68457e+02	5.14700e+03	5.98919e-02	4.68917e+02
5155	4.69134e+02	5.15500e+03	5.98173e-02	4.69583e+02
5163	4.69788e+02	5.16300e+03	5.98151e-02	4.70250e+02
5171	4.70447e+02	5.17100e+03	5.97719e-02	4.70917e+02
5179	4.71107e+02	5.17900e+03	5.97108e-02	4.71583e+02
5187	4.71767e+02	5.18700e+03	5.97080e-02	4.72250e+02
5195	4.72432e+02	5.19500e+03	5.97951e-02	4.72917e+02
5203	4.73089e+02	5.20300e+03	5.98571e-02	4.73583e+02
5211	4.73759e+02	5.21100e+03	5.99050e-02	4.74250e+02
5219	4.74425e+02	5.21900e+03	5.98316e-02	4.74917e+02
5227	4.75084e+02	5.22700e+03	5.98926e-02	4.75583e+02
5235	4.75743e+02	5.23500e+03	5.99963e-02	4.76250e+02
5243	4.76403e+02	5.24300e+03	5.99850e-02	4.76917e+02
5251	4.77069e+02	5.25100e+03	5.99226e-02	4.77583e+02
5259	4.77725e+02	5.25900e+03	5.98884e-02	4.78250e+02
5267	4.78390e+02	5.26700e+03	5.98806e-02	4.78917e+02
5275	4.79040e+02	5.27500e+03	5.98321e-02	4.79583e+02
5283	4.79696e+02	5.28300e+03	5.97635e-02	4.80250e+02
5291	4.80363e+02	5.29100e+03	5.96856e-02	4.80917e+02
5299	4.81035e+02	5.29900e+03	5.97754e-02	4.81583e+02
5307	4.81690e+02	5.30700e+03	5.98678e-02	4.82250e+02
5315	4.82357e+02	5.31500e+03	5.98392e-02	4.82917e+02
5323	4.83013e+02	5.32300e+03	5.98528e-02	4.83583e+02
5331	4.83679e+02	5.33100e+03	5.98777e-02	4.84250e+02
5339	4.84342e+02	5.33900e+03	5.99448e-02	4.84917e+02
5347	4.85014e+02	5.34700e+03	5.99164e-02	4.85583e+02
5355	4.85664e+02	5.35500e+03	5.98384e-02	4.86250e+02
5363	4.86328e+02	5.36300e+03	5.97990e-02	4.86917e+02
5371	4.86983e+02	5.37100e+03	5.98119e-02	4.87583e+02
5379	4.87648e+02	5.37900e+03	5.98774e-02	4.88250e+02
5387	4.88307e+02	5.38700e+03	5.98185e-02	4.88917e+02
5395	4.88967e+02	5.39500e+03	5.98713e-02	4.89583e+02
5403	4.89644e+02	5.40300e+03	5.98231e-02	4.90250e+02
5411	4.90299e+02	5.41100e+03	5.99298e-02	4.90917e+02
5419	4.90960e+02	5.41900e+03	5.99310e-02	4.91583e+02
5427	4.91629e+02	5.42700e+03	5.99199e-02	4.92250e+02
5435	4.92284e+02	5.43500e+03	5.99288e-02	4.92917e+02
5443	4.92943e+02	5.44300e+03	5.98683e-02	4.93583e+02
5451	4.93606e+02	5.45100e+03	5.98420e-02	4.94250e+02
5459	4.94264e+02	5.45900e+03	5.98399e-02	4.94917e+02
5467	4.94928e+02	5.46700e+03	5.99024e-02	4.95583e+02
5475	4.95591e+02	5.47500e+03	5.99095e-02	4.96250e+02
5483	4.96247e+02	5.48300e+03	5.99194e-02	4.96917e+02
5491	4.96925e+02	5.49100e+03	5.98436e-02	4.97583e+02
5499	4.97574e+02	5.49900e+03	5.98776e-02	4.98250e+02
5507	4.98239e+02	5.50700e+03	6.00113e-02	4.98917e+02
5515	4.98909e+02	5.51500e+03	5.99223e-02	4.99583e+02
5523	4.99574e+02	5.52300e+03	5.98650e-02	5.00250e+02
5531	5.00235e+02	5.53100e+03	5.99514e-02	5.00917e+02
5539	5.00897e+02	5.53900e+03	6.00128e-02	5.01583e+02
5547	5.01569e+02	5.54700e+03	6.00429e-02	5.02250e+02
5555	5.02228e+02	5.55500e+03	6.00461e-02	5.02917e+02
5563	5.02890e+02	5.56300e+03	6.00588e-02	5.03583e+02
5571	5.03558e+02	5.57100e+03	6.00051e-02	5.04250e+02
5579	5.04224e+02	5.57900e+03	6.00713e-02	5.04917e+02
5587	5.04883e+02	5.58700e+03	6.00159e-02	5.05583e+02
5595	5.05538e+02	5.59500e+03	5.98885e-02	5.06250e+02
5603	5.06207e+02	5.60300e+03	5.98962e-02	5.06917e+02
5611	5.06875e+02	5.61100e+03	5.98579e-02	5.07583e+02
5619	5.07527e+02	5.61900e+03	5.99224e-02	5.08250e+02
5627	5.08194e+02	5.62700e+03	5.99131e-02	5.08917e+02
5635	5.08862e+02	5.63500e+03	5.99887e-02	5.09583e+02
5643	5.09530e+02	5.64300e+03	5.99773e-02	5.10250e+02
5651	5.10193e+02	5.65100e+03	6.00384e-02	5.10917e+02
5659	5.10849e+02	5.65900e+03	6.00357e-02	5.11583e+02
5667	5.11513e+02	5.66700e+03	5.99940e-02	5.12250e+02
5675	5.12183e+02	5.67500e+03	5.99345e-02	5.12917e+02
5683	5.12852e+02	5.68300e+03	6.00317e-02	5.13583e+02
5691	5.13505e+02	5.69100e+03	6.01260e-02	5.14250e+02
5699	5.14176e+02	5.69900e+03	6.00826e-02	5.14917e+02
5707	5.14845e+02	5.70700e+03	6.01228e-02	5.15583e+02
5715	5.15505e+02	5.71500e+03	6.01525e-02	5.16250e+02
5723	5.16169e+02	5.72300e+03	6.02017e-02	5.16917e+02
5731	5.16835e+02	5.73100e+03	6.01821e-02	5.17583e+02
5739	5.17496e+02	5.73900e+03	6.02044e-02	5.18250e+02
5747	5.18161e+02	5.74700e+03	6.01177e-02	5.18917e+02
5755	5.18822e+02	5.75500e+03	6.01009e-02	5.19583e+02
5763	5.19489e+02	5.76300e+03	6.00628e-02	5.20250e+02
5771	5.20164e+02	5.77100e+03	6.01080e-02	5.20917e+02
5779	5.20821e+02	5.77900e+03	6.01055e-02	5.21583e+02
5787	5.21486e+02	5.78700e+03	6.02307e-02	5.22250e+02
5795	5.22139e+02	5.79500e+03	6.02005e-02	5.22917e+02
5803	5.22813e+02	5.80300e+03	6.01691e-02	5.23583e+02
5811	5.23480e+02	5.81100e+03	6.01594e-02	5.24250e+02
5819	5.24139e+02	5.81900e+03	6.01544e-02	5.24917e+02
5827	5.24799e+02	5.82700e+03	6.02310e-02	5.25583e+02
5835	5.25461e+02	5.83500e+03	6.01645e-02	5.26250e+02
5843	5.26136e+02	5.84300e+03	6.01096e-02	5.26917e+02
5851	5.26809e+02	5.85100e+03	6.01666e-02	5.27583e+02
5859	5.27473e+02	5.85900e+03	6.01427e-02	5.28250e+02
5867	5.28128e+02	5.86700e+03	6.01484e-02	5.28917e+02
5875	5.28790e+02	5.87500e+03	6.00134e-02	5.29583e+02
5883	5.29461e+02	5.88300e+03	6.00749e-02	5.30250e+02
5891	5.30131e+02	5.89100e+03	6.03920e-02	5.30917e+02
5899	5.30784e+02	5.89900e+03	6.04875e-02	5.31583e+02
5907	5.31458e+02	5.90700e+03	6.02825e-02	5.32250e+02
5915	5.32125e+02	5.91500e+03	6.02723e-02	5.32917e+02
5923	5.32791e+02	5.92300e+03	6.02456e-02	5.33583e+02
5931	5.33455e+02	5.93100e+03	6.02777e-02	5.34250e+02
5939	5.34116e+02	5.93900e+03	6.02816e-02	5.34917e+02
5947	5.34789e+02	5.94700e+03	6.03181e-02	5.35583e+02
5955	5.35451e+02	5.95500e+03	6.02494e-02	5.36250e+02
5963	5.36111e+02	5.96300e+03	6.03229e-02	5.36917e+02
5971	5.36771e+02	5.97100e+03	6.03391e-02	5.37583e+02
5979	5.37421e+02	5.97900e+03	6.01680e-02	5.38250e+02
5987	5.38099e+02	5.98700e+03	6.02207e-02	5.38917e+02
5995	5.38767e+02	5.99500e+03	6.03580e-02	5.39583e+02
6003	5.39434e+02	6.00300e+03	6.02928e-02	5.40250e+02
6011	5.40103e+02	6.01100e+03	6.02979e-02	5.40917e+02
6019	5.40766e+02	6.01900e+03	6.03701e-02	5.41583e+02
6027	5.41430e+02	6.02700e+03	6.03720e-02	5.42250e+02
6035	5.42092e+02	6.03500e+03	6.02993e-02	5.42917e+02
6043	5.42756e+02	6.04300e+03	6.02290e-02	5.43583e+02
6051	5.43413e+02	6.05100e+03	6.02497e-02	5.44250e+02
6059	5.44084e+02	6.05900e+03	6.02584e-02	5.44917e+02
6067	5.44754e+02	6.06700e+03	6.03188e-02	5.45583e+02
6075	5.45420e+02	6.07500e+03	6.04014e-02	5.46250e+02
6083	5.46092e+02	6.08300e+03	6.04263e-02	5.46917e+02
6091	5.46754e+02	6.09100e+03	6.03833e-02	5.47583e+02
6099	5.47420e+02	6.09900e+03	6.03533e-02	5.48250e+02
6107	5.48078e+02	6.10700e+03	6.03219e-02	5.48917e+02
6115	5.48741e+02	6.11500e+03	6.04298e-02	5.49583e+02
6123	5.49411e+02	6.12300e+03	6.04545e-02	5.50250e+02
6131	5.50068e+02	6.13100e+03	6.04087e-02	5.50917e+02
6139	5.50741e+02	6.13900e+03	6.04246e-02	5.51583e+02
6147	5.51411e+02	6.14700e+03	6.03775e-02	5.52250e+02
6155	5.52079e+02	6.15500e+03	6.03851e-02	5.52917e+02
6163	5.52734e+02	6.16300e+03	6.03987e-02	5.53583e+02
6171	5.53409e+02	6.17100e+03	6.04360e-02	5.54250e+02
6179	5.54065e+02	6.17900e+03	6.04458e-02	5.54917e+02
6187	5.54740e+02	6.18700e+03	6.05114e-02	5.55583e+02
6195	5.55408e+02	6.19500e+03	6.04418e-02	5.56250e+02
6203	5.56068e+02	6.20300e+03	6.04357e-02	5.56917e+02
6211	5.56730e+02	6.21100e+03	6.04890e-02	5.57583e+02
6219	5.57393e+02	6.21900e+03	6.05527e-02	5.58250e+02
6227	5.58066e+02	6.22700e+03	6.05303e-02	5.58917e+02
6235	5.58727e+02	6.23500e+03	6.04320e-02	5.59583e+02
6243	5.59398e+02	6.24300e+03	6.04317e-02	5.60250e+02
6251	5.60066e+02	6.25100e+03	6.03541e-02	5.60917e+02
6259	5.60732e+02	6.25900e+03	6.02704e-02	5.61583e+02
6267	5.61404e+02	6.26700e+03	6.03581e-02	5.62250e+02
6275	5.62061e+02	6.27500e+03	6.04138e-02	5.62917e+02
6283	5.62730e+02	6.28300e+03	6.02663e-02	5.63583e+02
6291	5.63394e+02	6.29100e+03	6.03048e-02	5.64250e+02
6299	5.64061e+02	6.29900e+03	6.02909e-02	5.64917e+02
6307	5.64727e+02	6.30700e+03	6.02110e-02	5.65583e+02
6315	5.65389e+02	6.31500e+03	6.01973e-02	5.66250e+02
6323	5.66063e+02	6.32300e+03	6.03169e-02	5.66917e+02
6331	5.66718e+02	6.33100e+03	6.03314e-02	5.67583e+02
6339	5.67393e+02	6.33900e+03	6.02770e-02	5.68250e+02
6347	5.68065e+02	6.34700e+03	6.02556e-02	5.68917e+02
6355	5.68725e+02	6.35500e+03	6.03138e-02	5.69583e+02
6363	5.69388e+02	6.36300e+03	6.04252e-02	5.70250e+02
6371	5.70065e+02	6.37100e+03	6.05012e-02	5.70917e+02
6379	5.70729e+02	6.37900e+03	6.05328e-02	5.71583e+02
6387	5.71396e+02	6.38700e+03	6.04684e-02	5.72250e+02
6395	5.72067e+02	6.39500e+03	6.04386e-02	5.72917e+02
6403	5.72735e+02	6.40300e+03	6.03437e-02	5.73583e+02
6411	5.73399e+02	6.41100e+03	6.03439e-02	5.74250e+02
6419	5.74067e+02	6.41900e+03	6.03614e-02	5.74917e+02
6427	5.74731e+02	6.42700e+03	6.04432e-02	5.75583e+02
6435	5.75396e+02	6.43500e+03	6.04651e-02	5.76250e+02
6443	5.76060e+02	6.44300e+03	6.04758e-02	5.76917e+02
6451	5.76731e+02	6.45100e+03	6.05094e-02	5.77583e+02
6459	5.77396e+02	6.45900e+03	6.05526e-02	5.78250e+02
6467	5.78063e+02	6.46700e+03	6.05984e-02	5.78917e+02
6475	5.78731e+02	6.47500e+03	6.05432e-02	5.79583e+02
6483	5.79402e+02	6.48300e+03	6.05825e-02	5.80250e+02
6491	5.80063e+02	6.49100e+03	6.05857e-02	5.80917e+02
6499	5.80735e+02	6.49900e+03	6.06432e-02	5.81583e+02
6507	5.81404e+02	6.50700e+03	6.06057e-02	5.82250e+02
6515	5.82064e+02	6.51500e+03	6.06495e-02	5.82917e+02
6523	5.82723e+02	6.52300e+03	6.06468e-02	5.83583e+02
6531	5.83394e+02	6.53100e+03	6.06816e-02	5.84250e+02
6539	5.84056e+02	6.53900e+03	6.07110e-02	5.84917e+02
6547	5.84723e+02	6.54700e+03	6.07093e-02	5.85583e+02
6555	5.85391e+02	6.55500e+03	6.06428e-02	5.86250e+02
6563	5.86069e+02	6.56300e+03	6.06387e-02	5.86917e+02
6571	5.86719e+02	6.57100e+03	6.06380e-02	5.87583e+02
6579	5.87387e+02	6.57900e+03	6.05333e-02	5.88250e+02
6587	5.88056e+02	6.58700e+03	6.05463e-02	5.88917e+02
6595	5.88726e+02	6.59500e+03	6.04983e-02	5.89583e+02
6603	5.89394e+02	6.60300e+03	6.06473e-02	5.90250e+02
6611	5.90045e+02	6.61100e+03	6.06107e-02	5.90917e+02
6619	5.90719e+02	6.61900e+03	6.05445e-02	5.91583e+02
6627	5.91385e+02	6.62700e+03	6.06124e-02	5.92250e+02
6635	5.92047e+02	6.63500e+03	6.05176e-02	5.92917e+02
6643	5.92706e+02	6.64300e+03	6.05433e-02	5.93583e+02
6651	5.93380e+02	6.65100e+03	6.06354e-02	5.94250e+02
6659	5.94052e+02	6.65900e+03	6.06660e-02	5.94917e+02
6667	5.94712e+02	6.66700e+03	6.06334e-02	5.95583e+02
6675	5.95388e+02	6.67500e+03	6.05735e-02	5.96250e+02
6683	5.96043e+02	6.68300e+03	6.06174e-02	5.96917e+02
6691	5.96711e+02	6.69100e+03	6.05260e-02	5.97583e+02
6699	5.97379e+02	6.69900e+03	6.04598e-02	5.98250e+02
6707	5.98040e+02	6.70700e+03	6.05364e-02	5.98917e+02
6715	5.98718e+02	6.71500e+03	6.06336e-02	5.99583e+02
6723	5.99378e+02	6.72300e+03	6.06553e-02	6.00250e+02
6731	6.00053e+02	6.73100e+03	6.07102e-02	6.00917e+02
6739	6.00723e+02	6.73900e+03	6.05995e-02	6.01583e+02
6747	6.01380e+02	6.74700e+03	6.06047e-02	6.02250e+02
6755	6.02056e+02	6.75500e+03	6.05649e-02	6.02917e+02
6763	6.02724e+02	6.76300e+03	6.05249e-02	6.03583e+02
6771	6.03379e+02	6.77100e+03	6.05636e-02	6.04250e+02
6779	6.04059e+02	6.77900e+03	6.06554e-02	6.04917e+02
6787	6.04720e+02	6.78700e+03	6.07329e-02	6.05583e+02
6795	6.05388e+02	6.79500e+03	6.07383e-02	6.06250e+02
6803	6.06054e+02	6.80300e+03	6.07531e-02	6.06917e+02
6811	6.06726e+02	6.81100e+03	6.07395e-02	6.07583e+02
6819	6.07390e+02	6.81900e+03	6.07032e-02	6.08250e+02
6827	6.08060e+02	6.82700e+03	6.06703e-02	6.08917e+02
6835	6.08739e+02	6.83500e+03	6.06105e-02	6.09583e+02
6843	6.09402e+02	6.84300e+03	6.07339e-02	6.10250e+02
6851	6.10072e+02	6.85100e+03	6.07143e-02	6.10917e+02
6859	6.10737e+02	6.85900e+03	6.07492e-02	6.11583e+02
6867	6.11410e+02	6.86700e+03	6.06799e-02	6.12250e+02
6875	6.12070e+02	6.87500e+03	6.07048e-02	6.12917e+02
6883	6.12746e+02	6.88300e+03	6.06913e-02	6.13583e+02
6891	6.13415e+02	6.89100e+03	6.07075e-02	6.14250e+02
6899	6.14082e+02	6.89900e+03	6.06823e-02	6.14917e+02
6907	6.14744e+02	6.90700e+03	6.06746e-02	6.15583e+02
6915	6.15414e+02	6.91500e+03	6.05611e-02	6.16250e+02
6923	6.16086e+02	6.92300e+03	6.05326e-02	6.16917e+02
6931	6.16751e+02	6.93100e+03	6.06358e-02	6.17583e+02
6939	6.17425e+02	6.93900e+03	6.06269e-02	6.18250e+02
6947	6.18087e+02	6.94700e+03	6.06021e-02	6.18917e+02
6955	6.18748e+02	6.95500e+03	6.05348e-02	6.19583e+02
6963	6.19414e+02	6.96300e+03	6.05790e-02	6.20250e+02
6971	6.20082e+02	6.97100e+03	6.06097e-02	6.20917e+02
6979	6.20769e+02	6.97900e+03	6.07038e-02	6.21583e+02
6987	6.21424e+02	6.98700e+03	6.06771e-02	6.22250e+02
6995	6.22091e+02	6.99500e+03	6.06828e-02	6.22917e+02
7003	6.22764e+02	7.00300e+03	6.06395e-02	6.23583e+02
7011	6.23436e+02	7.01100e+03	6.05930e-02	6.24250e+02
7019	6.24104e+02	7.01900e+03	6.06590e-02	6.24917e+02
7027	6.24768e+02	7.02700e+03	6.06166e-02	6.25583e+02
7035	6.25427e+02	7.03500e+03	6.06591e-02	6.26250e+02
7043	6.26103e+02	7.04300e+03	6.05880e-02	6.26917e+02
7051	6.26772e+02	7.05100e+03	6.04784e-02	6.27583e+02
7059	6.27430e+02	7.05900e+03	6.05079e-02	6.28250e+02
7067	6.28100e+02	7.06700e+03	6.05939e-02	6.28917e+02
7075	6.28773e+02	7.07500e+03	6.06284e-02	6.29583e+02
7083	6.29433e+02	7.08300e+03	6.07532e-02	6.30250e+02
7091	6.30099e+02	7.09100e+03	6.07814e-02	6.30917e+02
7099	6.30761e+02	7.09900e+03	6.06945e-02	6.31583e+02
7107	6.31436e+02	7.10700e+03	6.07088e-02	6.32250e+02
7115	6.32115e+02	7.11500e+03	6.07166e-02	6.32917e+02
7123	6.32778e+02	7.12300e+03	6.06435e-02	6.33583e+02
7131	6.33440e+02	7.13100e+03	6.06690e-02	6.34250e+02
7139	6.34118e+02	7.13900e+03	6.06822e-02	6.34917e+02
7147	6.34782e+02	7.14700e+03	6.07418e-02	6.35583e+02
7155	6.35457e+02	7.15500e+03	6.05589e-02	6.36250e+02
7163	6.36125e+02	7.16300e+03	6.04741e-02	6.36917e+02
7171	6.36794e+02	7.17100e+03	6.06480e-02	6.37583e+02
7179	6.37466e+02	7.17900e+03	6.06520e-02	6.38250e+02
7187	6.38134e+02	7.18700e+03	6.05890e-02	6.38917e+02
7195	6.38801e+02	7.19500e+03	6.06279e-02	6.39583e+02
7203	6.39479e+02	7.20300e+03	6.06208e-02	6.40250e+02
7211	6.40136e+02	7.21100e+03	6.06637e-02	6.40917e+02
7219	6.40797e+02	7.21900e+03	6.06608e-02	6.41583e+02
7227	6.41466e+02	7.22700e+03	6.07650e-02	6.42250e+02
7235	6.42144e+02	7.23500e+03	6.07781e-02	6.42917e+02
7243	6.42804e+02	7.24300e+03	6.07329e-02	6.43583e+02
7251	6.43471e+02	7.25100e+03	6.07232e-02	6.44250e+02
7259	6.44144e+02	7.25900e+03	6.06849e-02	6.44917e+02
7267	6.44816e+02	7.26700e+03	6.06787e-02	6.45583e+02
7275	6.45487e+02	7.27500e+03	6.07389e-02	6.46250e+02
7283	6.46153e+02	7.28300e+03	6.06542e-02	6.46917e+02
7291	6.46826e+02	7.29100e+03	6.05823e-02	6.47583e+02
7299	6.47503e+02	7.29900e+03	6.06100e-02	6.48250e+02
7307	6.48172e+02	7.30700e+03	6.06058e-02	6.48917e+02
7315	6.48840e+02	7.31500e+03	6.05770e-02	6.49583e+02
7323	6.49498e+02	7.32300e+03	6.06331e-02	6.50250e+02
7331	6.50169e+02	7.33100e+03	6.07963e-02	6.50917e+02
7339	6.50842e+02	7.33900e+03	6.07431e-02	6.51583e+02
7347	6.51516e+02	7.34700e+03	6.06090e-02	6.52250e+02
7355	6.52180e+02	7.35500e+03	6.06756e-02	6.52917e+02
7363	6.52851e+02	7.36300e+03	6.06289e-02	6.53583e+02
7371	6.53509e+02	7.37100e+03	6.04947e-02	6.54250e+02
7379	6.54185e+02	7.37900e+03	6.04531e-02	6.54917e+02
7387	6.54851e+02	7.38700e+03	6.04675e-02	6.55583e+02
7395	6.55535e+02	7.39500e+03	6.05501e-02	6.56250e+02
7403	6.56196e+02	7.40300e+03	6.05487e-02	6.56917e+02
7411	6.56869e+02	7.41100e+03	6.05986e-02	6.57583e+02
7419	6.57533e+02	7.41900e+03	6.06400e-02	6.58250e+02
7427	6.58197e+02	7.42700e+03	6.05948e-02	6.58917e+02
7435	6.58875e+02	7.43500e+03	6.06072e-02	6.59583e+02
7443	6.59537e+02	7.44300e+03	6.06357e-02	6.60250e+02
7451	6.60210e+02	7.45100e+03	6.05831e-02	6.60917e+02
7459	6.60874e+02	7.45900e+03	6.06085e-02	6.61583e+02
7467	6.61539e+02	7.46700e+03	6.06771e-02	6.62250e+02
7475	6.62210e+02	7.47500e+03	6.06101e-02	6.62917e+02
7483	6.62881e+02	7.48300e+03	6.05977e-02	6.63583e+02
7491	6.63543e+02	7.49100e+03	6.05876e-02	6.64250e+02
7499	6.64218e+02	7.49900e+03	6.07024e-02	6.64917e+02
7507	6.64887e+02	7.50700e+03	6.06902e-02	6.65583e+02
7515	6.65550e+02	7.51500e+03	6.07512e-02	6.66250e+02
7523	6.66225e+02	7.52300e+03	6.07468e-02	6.66917e+02
7531	6.66893e+02	7.53100e+03	6.08635e-02	6.67583e+02
7539	6.67570e+02	7.53900e+03	6.09457e-02	6.68250e+02
7547	6.68239e+02	7.54700e+03	6.09544e-02	6.68917e+02
7555	6.68898e+02	7.55500e+03	6.09002e-02	6.69583e+02
7563	6.69576e+02	7.56300e+03	6.08367e-02	6.70250e+02
7571	6.70245e+02	7.57100e+03	6.08272e-02	6.70917e+02
7579	6.70918e+02	7.57900e+03	6.08061e-02	6.71583e+02
7587	6.71577e+02	7.58700e+03	6.08510e-02	6.72250e+02
7595	6.72247e+02	7.59500e+03	6.08840e-02	6.72917e+02
7603	6.72911e+02	7.60300e+03	6.09502e-02	6.73583e+02
7611	6.73586e+02	7.61100e+03	6.09312e-02	6.74250e+02
7619	6.74251e+02	7.61900e+03	6.09017e-02	6.74917e+02
7627	6.74912e+02	7.62700e+03	6.07798e-02	6.75583e+02
7635	6.75596e+02	7.63500e+03	6.07237e-02	6.76250e+02
7643	6.76264e+02	7.64300e+03	6.07958e-02	6.76917e+02
7651	6.76931e+02	7.65100e+03	6.08709e-02	6.77583e+02
7659	6.77604e+02	7.65900e+03	6.07751e-02	6.78250e+02
7667	6.78270e+02	7.66700e+03	6.08106e-02	6.78917e+02
7675	6.78937e+02	7.67500e+03	6.08266e-02	6.79583e+02
7683	6.79613e+02	7.68300e+03	6.08279e-02	6.80250e+02
7691	6.80276e+02	7.69100e+03	6.07367e-02	6.80917e+02
7699	6.80949e+02	7.69900e+03	6.07839e-02	6.81583e+02
7707	6.81631e+02	7.70700e+03	6.07857e-02	6.82250e+02
7715	6.82290e+02	7.71500e+03	6.08860e-02	6.82917e+02
7723	6.82957e+02	7.72300e+03	6.08628e-02	6.83583e+02
7731	6.83630e+02	7.73100e+03	6.08440e-02	6.84250e+02
7739	6.84298e+02	7.73900e+03	6.06941e-02	6.84917e+02
7747	6.84956e+02	7.74700e+03	6.07582e-02	6.85583e+02
7755	6.85632e+02	7.75500e+03	6.08819e-02	6.86250e+02
7763	6.86308e+02	7.76300e+03	6.08885e-02	6.86917e+02
7771	6.86975e+02	7.77100e+03	6.09401e-02	6.87583e+02
7779	6.87645e+02	7.77900e+03	6.08770e-02	6.88250e+02
7787	6.88317e+02	7.78700e+03	6.08453e-02	6.88917e+02
7795	6.88983e+02	7.79500e+03	6.09308e-02	6.89583e+02
7803	6.89651e+02	7.80300e+03	6.09312e-02	6.90250e+02
7811	6.90325e+02	7.81100e+03	6.09532e-02	6.90917e+02
7819	6.90997e+02	7.81900e+03	6.10010e-02	6.91583e+02
7827	6.91674e+02	7.82700e+03	6.10221e-02	6.92250e+02
7835	6.92340e+02	7.83500e+03	6.09585e-02	6.92917e+02
7843	6.93008e+02	7.84300e+03	6.09140e-02	6.93583e+02
7851	6.93676e+02	7.85100e+03	6.09213e-02	6.94250e+02
7859	6.94349e+02	7.85900e+03	6.08391e-02	6.94917e+02
7867	6.95016e+02	7.86700e+03	6.05909e-02	6.95583e+02
7875	6.95677e+02	7.87500e+03	6.06870e-02	6.96250e+02
7883	6.96350e+02	7.88300e+03	6.08032e-02	6.96917e+02
7891	6.97013e+02	7.89100e+03	6.07692e-02	6.97583e+02
7899	6.97531e+02	7.89900e+03	6.08500e-02	6.98250e+02
7907	6.97973e+02	7.90700e+03	6.09486e-02	6.98917e+02
7915	6.98332e+02	7.91500e+03	6.08104e-02	6.99583e+02
7920	6.98496e+02	7.92000e+03	6.07453e-02	7.00000e+02