File: Experiments/TUBS/tga_nonisotherm/tga_dynamic_n2low20_dyn30_powder_3mg_r2.txt
Index	Ts	t	Weight	Tr
[#]	[°C]	[s]	[mg]	[°C]
680	1.30283e+02	6.80000e+02	2.99793	130.0
682	1.31302e+02	6.82000e+02	2.99786	131.0
684	1.32303e+02	6.84000e+02	2.99776	132.0
686	1.33311e+02	6.86000e+02	2.99766	133.0
688	1.34332e+02	6.88000e+02	2.99755	134.0
690	1.35353e+02	6.90000e+02	2.99744	135.0
692	1.36380e+02	6.92000e+02	2.99731	136.0
694	1.37409e+02	6.94000e+02	2.99721	137.0
696	1.38429e+02	6.96000e+02	2.99713	138.0
698	1.39444e+02	6.98000e+02	2.99705	139.0
700	1.40459e+02	7.00000e+02	2.99697	140.0
702	1.41486e+02	7.02000e+02	2.99685	141.0
704	1.42505e+02	7.04000e+02	2.99665	142.0
706	1.43507e+02	7.06000e+02	2.99638	143.0
708	1.44535e+02	7.08000e+02	2.99599	144.0
710	1.45533e+02	7.10000e+02	2.99564	145.0
712	1.46549e+02	7.12000e+02	2.99535	146.0
714	1.47559e+02	7.14000e+02	2.99513	147.0
716	1.48564e+02	7.16000e+02	2.99499	148.0
718	1.49587e+02	7.18000e+02	2.99483	149.0
720	1.50601e+02	7.20000e+02	2.99464	150.0
722	1.51611e+02	7.22000e+02	2.99438	151.0
724	1.52637e+02	7.24000e+02	2.994	152.0
726	1.53649e+02	7.26000e+02	2.99355	153.0
728	1.54666e+02	7.28000e+02	2.99303	154.0
730	1.55669e+02	7.30000e+02	2.99251	155.0
732	1.56686e+02	7.32000e+02	2.99203	156.0
734	1.57711e+02	7.34000e+02	2.99157	157.0
736	1.58714e+02	7.36000e+02	2.99116	158.0
738	1.59749e+02	7.38000e+02	2.99077	159.0
740	1.60765e+02	7.40000e+02	2.99039	160.0
742	1.61769e+02	7.42000e+02	2.98999	161.0
744	1.62793e+02	7.44000e+02	2.98956	162.0
746	1.63818e+02	7.46000e+02	2.98912	163.0
748	1.64831e+02	7.48000e+02	2.98864	164.0
750	1.65840e+02	7.50000e+02	2.98816	165.0
752	1.66862e+02	7.52000e+02	2.98766	166.0
754	1.67892e+02	7.54000e+02	2.98719	167.0
756	1.68918e+02	7.56000e+02	2.98671	168.0
758	1.69931e+02	7.58000e+02	2.98622	169.0
760	1.70952e+02	7.60000e+02	2.98572	170.0
762	1.71960e+02	7.62000e+02	2.98522	171.0
764	1.72978e+02	7.64000e+02	2.9847	172.0
766	1.73998e+02	7.66000e+02	2.98414	173.0
768	1.75004e+02	7.68000e+02	2.98354	174.0
770	1.76019e+02	7.70000e+02	2.98291	175.0
772	1.77046e+02	7.72000e+02	2.98225	176.0
774	1.78056e+02	7.74000e+02	2.98157	177.0
776	1.79082e+02	7.76000e+02	2.98087	178.0
778	1.80113e+02	7.78000e+02	2.98016	179.0
780	1.81127e+02	7.80000e+02	2.97943	180.0
782	1.82145e+02	7.82000e+02	2.97868	181.0
784	1.83163e+02	7.84000e+02	2.9779	182.0
786	1.84187e+02	7.86000e+02	2.97711	183.0
788	1.85198e+02	7.88000e+02	2.97627	184.0
790	1.86215e+02	7.90000e+02	2.97538	185.0
792	1.87237e+02	7.92000e+02	2.9744	186.0
794	1.88269e+02	7.94000e+02	2.97337	187.0
796	1.89288e+02	7.96000e+02	2.97226	188.0
798	1.90304e+02	7.98000e+02	2.97107	189.0
800	1.91321e+02	8.00000e+02	2.96977	190.0
802	1.92353e+02	8.02000e+02	2.96838	191.0
804	1.93370e+02	8.04000e+02	2.96689	192.0
806	1.94380e+02	8.06000e+02	2.96535	193.0
808	1.95408e+02	8.08000e+02	2.96373	194.0
810	1.96424e+02	8.10000e+02	2.96207	195.0
812	1.97454e+02	8.12000e+02	2.96035	196.0
814	1.98472e+02	8.14000e+02	2.95858	197.0
816	1.99494e+02	8.16000e+02	2.95676	198.0
818	2.00505e+02	8.18000e+02	2.95491	199.0
820	2.01532e+02	8.20000e+02	2.95307	200.0
822	2.02546e+02	8.22000e+02	2.95126	201.0
824	2.03566e+02	8.24000e+02	2.9495	202.0
826	2.04592e+02	8.26000e+02	2.9478	203.0
828	2.05614e+02	8.28000e+02	2.94619	204.0
830	2.06628e+02	8.30000e+02	2.94465	205.0
832	2.07652e+02	8.32000e+02	2.9432	206.0
834	2.08683e+02	8.34000e+02	2.94179	207.0
836	2.09691e+02	8.36000e+02	2.94047	208.0
838	2.10716e+02	8.38000e+02	2.93924	209.0
840	2.11745e+02	8.40000e+02	2.93815	210.0
842	2.12767e+02	8.42000e+02	2.93715	211.0
844	2.13799e+02	8.44000e+02	2.93628	212.0
846	2.14825e+02	8.46000e+02	2.93548	213.0
848	2.15842e+02	8.48000e+02	2.93477	214.0
850	2.16881e+02	8.50000e+02	2.93406	215.0
852	2.17876e+02	8.52000e+02	2.93337	216.0
854	2.18905e+02	8.54000e+02	2.93273	217.0
856	2.19927e+02	8.56000e+02	2.93214	218.0
858	2.20960e+02	8.58000e+02	2.93156	219.0
860	2.21980e+02	8.60000e+02	2.931	220.0
862	2.22995e+02	8.62000e+02	2.93047	221.0
864	2.24022e+02	8.64000e+02	2.92996	222.0
866	2.25063e+02	8.66000e+02	2.92944	223.0
868	2.26074e+02	8.68000e+02	2.92891	224.0
870	2.27094e+02	8.70000e+02	2.92838	225.0
872	2.28139e+02	8.72000e+02	2.92785	226.0
874	2.29166e+02	8.74000e+02	2.92731	227.0
876	2.30194e+02	8.76000e+02	2.92677	228.0
878	2.31222e+02	8.78000e+02	2.92621	229.0
880	2.32263e+02	8.80000e+02	2.92563	230.0
882	2.33350e+02	8.82000e+02	2.92502	231.0
884	2.34378e+02	8.84000e+02	2.92436	232.0
886	2.35382e+02	8.86000e+02	2.92371	233.0
888	2.36405e+02	8.88000e+02	2.92305	234.0
890	2.37421e+02	8.90000e+02	2.92238	235.0
892	2.38448e+02	8.92000e+02	2.9217	236.0
894	2.39471e+02	8.94000e+02	2.92102	237.0
896	2.40507e+02	8.96000e+02	2.92037	238.0
898	2.41575e+02	8.98000e+02	2.91973	239.0
900	2.42606e+02	9.00000e+02	2.91908	240.0
902	2.43640e+02	9.02000e+02	2.91842	241.0
904	2.44683e+02	9.04000e+02	2.91774	242.0
906	2.45704e+02	9.06000e+02	2.91707	243.0
908	2.46727e+02	9.08000e+02	2.9164	244.0
910	2.47775e+02	9.10000e+02	2.91572	245.0
912	2.48825e+02	9.12000e+02	2.91502	246.0
914	2.49846e+02	9.14000e+02	2.91433	247.0
916	2.50863e+02	9.16000e+02	2.91366	248.0
918	2.51872e+02	9.18000e+02	2.913	249.0
920	2.52898e+02	9.20000e+02	2.91238	250.0
922	2.53909e+02	9.22000e+02	2.91177	251.0
924	2.54910e+02	9.24000e+02	2.91115	252.0
926	2.55918e+02	9.26000e+02	2.91051	253.0
928	2.56906e+02	9.28000e+02	2.90985	254.0
930	2.57917e+02	9.30000e+02	2.90923	255.0
932	2.58939e+02	9.32000e+02	2.90864	256.0
934	2.59949e+02	9.34000e+02	2.90806	257.0
936	2.60966e+02	9.36000e+02	2.90749	258.0
938	2.61981e+02	9.38000e+02	2.90692	259.0
940	2.62988e+02	9.40000e+02	2.90637	260.0
942	2.64009e+02	9.42000e+02	2.90579	261.0
944	2.65032e+02	9.44000e+02	2.90521	262.0
946	2.66038e+02	9.46000e+02	2.90462	263.0
948	2.67064e+02	9.48000e+02	2.90403	264.0
950	2.68069e+02	9.50000e+02	2.90342	265.0
952	2.69094e+02	9.52000e+02	2.90279	266.0
954	2.70094e+02	9.54000e+02	2.90214	267.0
956	2.71107e+02	9.56000e+02	2.90148	268.0
958	2.72115e+02	9.58000e+02	2.90079	269.0
960	2.73129e+02	9.60000e+02	2.90008	270.0
962	2.74142e+02	9.62000e+02	2.89937	271.0
964	2.75164e+02	9.64000e+02	2.89866	272.0
966	2.76175e+02	9.66000e+02	2.89794	273.0
968	2.77181e+02	9.68000e+02	2.89721	274.0
970	2.78195e+02	9.70000e+02	2.89647	275.0
972	2.79219e+02	9.72000e+02	2.89568	276.0
974	2.80235e+02	9.74000e+02	2.89485	277.0
976	2.81244e+02	9.76000e+02	2.89394	278.0
978	2.82262e+02	9.78000e+02	2.89299	279.0
980	2.83273e+02	9.80000e+02	2.89198	280.0
982	2.84304e+02	9.82000e+02	2.89094	281.0
984	2.85313e+02	9.84000e+02	2.88982	282.0
986	2.86325e+02	9.86000e+02	2.88863	283.0
988	2.87339e+02	9.88000e+02	2.88731	284.0
990	2.88351e+02	9.90000e+02	2.88591	285.0
992	2.89345e+02	9.92000e+02	2.88436	286.0
994	2.90339e+02	9.94000e+02	2.88273	287.0
996	2.91340e+02	9.96000e+02	2.88097	288.0
998	2.92343e+02	9.98000e+02	2.87911	289.0
1000	2.93366e+02	1.00000e+03	2.87709	290.0
1002	2.94371e+02	1.00200e+03	2.87499	291.0
1004	2.95380e+02	1.00400e+03	2.87276	292.0
1006	2.96413e+02	1.00600e+03	2.87044	293.0
1008	2.97429e+02	1.00800e+03	2.86796	294.0
1010	2.98446e+02	1.01000e+03	2.86535	295.0
1012	2.99474e+02	1.01200e+03	2.8625	296.0
1014	3.00511e+02	1.01400e+03	2.85954	297.0
1016	3.01512e+02	1.01600e+03	2.85637	298.0
1018	3.02530e+02	1.01800e+03	2.85308	299.0
1020	3.03524e+02	1.02000e+03	2.84959	300.0
1022	3.04534e+02	1.02200e+03	2.846	301.0
1024	3.05523e+02	1.02400e+03	2.84221	302.0
1026	3.06519e+02	1.02600e+03	2.83831	303.0
1028	3.07556e+02	1.02800e+03	2.83422	304.0
1030	3.08569e+02	1.03000e+03	2.83004	305.0
1032	3.09606e+02	1.03200e+03	2.82568	306.0
1034	3.10706e+02	1.03400e+03	2.82118	307.0
1036	3.11690e+02	1.03600e+03	2.81647	308.0
1038	3.12679e+02	1.03800e+03	2.81168	309.0
1040	3.13683e+02	1.04000e+03	2.80676	310.0
1042	3.14680e+02	1.04200e+03	2.80177	311.0
1044	3.15667e+02	1.04400e+03	2.79668	312.0
1046	3.16697e+02	1.04600e+03	2.79156	313.0
1048	3.17701e+02	1.04800e+03	2.78639	314.0
1050	3.18701e+02	1.05000e+03	2.78118	315.0
1052	3.19722e+02	1.05200e+03	2.77593	316.0
1054	3.20761e+02	1.05400e+03	2.77065	317.0
1056	3.21730e+02	1.05600e+03	2.76533	318.0
1058	3.22692e+02	1.05800e+03	2.75998	319.0
1060	3.23682e+02	1.06000e+03	2.75456	320.0
1062	3.24658e+02	1.06200e+03	2.74909	321.0
1064	3.25620e+02	1.06400e+03	2.74352	322.0
1066	3.26589e+02	1.06600e+03	2.73785	323.0
1068	3.27562e+02	1.06800e+03	2.73198	324.0
1070	3.28525e+02	1.07000e+03	2.72598	325.0
1072	3.29503e+02	1.07200e+03	2.71974	326.0
1074	3.30481e+02	1.07400e+03	2.71332	327.0
1076	3.31469e+02	1.07600e+03	2.70659	328.0
1078	3.32481e+02	1.07800e+03	2.69964	329.0
1080	3.33491e+02	1.08000e+03	2.69229	330.0
1082	3.34462e+02	1.08200e+03	2.68468	331.0
1084	3.35500e+02	1.08400e+03	2.67656	332.0
1086	3.36487e+02	1.08600e+03	2.66807	333.0
1088	3.37457e+02	1.08800e+03	2.65896	334.0
1090	3.38452e+02	1.09000e+03	2.64948	335.0
1092	3.39432e+02	1.09200e+03	2.63936	336.0
1094	3.40416e+02	1.09400e+03	2.62884	337.0
1096	3.41406e+02	1.09600e+03	2.61761	338.0
1098	3.42410e+02	1.09800e+03	2.60594	339.0
1100	3.43429e+02	1.10000e+03	2.59345	340.0
1102	3.44450e+02	1.10200e+03	2.58039	341.0
1104	3.45459e+02	1.10400e+03	2.56638	342.0
1106	3.46552e+02	1.10600e+03	2.55179	343.0
1108	3.47631e+02	1.10800e+03	2.53618	344.0
1110	3.48776e+02	1.11000e+03	2.51993	345.0
1112	3.49852e+02	1.11200e+03	2.50255	346.0
1114	3.50847e+02	1.11400e+03	2.48451	347.0
1116	3.51820e+02	1.11600e+03	2.4653	348.0
1118	3.52838e+02	1.11800e+03	2.44538	349.0
1120	3.53893e+02	1.12000e+03	2.42422	350.0
1122	3.54906e+02	1.12200e+03	2.40233	351.0
1124	3.55949e+02	1.12400e+03	2.37916	352.0
1126	3.57032e+02	1.12600e+03	2.3552	353.0
1128	3.58072e+02	1.12800e+03	2.32988	354.0
1130	3.59179e+02	1.13000e+03	2.30373	355.0
1132	3.60323e+02	1.13200e+03	2.2762	356.0
1134	3.61342e+02	1.13400e+03	2.24787	357.0
1136	3.62287e+02	1.13600e+03	2.21818	358.0
1138	3.63218e+02	1.13800e+03	2.18772	359.0
1140	3.64179e+02	1.14000e+03	2.15598	360.0
1142	3.65168e+02	1.14200e+03	2.12354	361.0
1144	3.66177e+02	1.14400e+03	2.08992	362.0
1146	3.67167e+02	1.14600e+03	2.0556	363.0
1148	3.68143e+02	1.14800e+03	2.02015	364.0
1150	3.69102e+02	1.15000e+03	1.98405	365.0
1152	3.70083e+02	1.15200e+03	1.94684	366.0
1154	3.71059e+02	1.15400e+03	1.90897	367.0
1156	3.72022e+02	1.15600e+03	1.86998	368.0
1158	3.72992e+02	1.15800e+03	1.83035	369.0
1160	3.73959e+02	1.16000e+03	1.78966	370.0
1162	3.74919e+02	1.16200e+03	1.74841	371.0
1164	3.75911e+02	1.16400e+03	1.70622	372.0
1166	3.76887e+02	1.16600e+03	1.66357	373.0
1168	3.77883e+02	1.16800e+03	1.6201	374.0
1170	3.78868e+02	1.17000e+03	1.5762	375.0
1172	3.79876e+02	1.17200e+03	1.53162	376.0
1174	3.80884e+02	1.17400e+03	1.48673	377.0
1176	3.81862e+02	1.17600e+03	1.44125	378.0
1178	3.82829e+02	1.17800e+03	1.39534	379.0
1180	3.83812e+02	1.18000e+03	1.34874	380.0
1182	3.84783e+02	1.18200e+03	1.30188	381.0
1184	3.85768e+02	1.18400e+03	1.25479	382.0
1186	3.86761e+02	1.18600e+03	1.20799	383.0
1188	3.87750e+02	1.18800e+03	1.16175	384.0
1190	3.88739e+02	1.19000e+03	1.11599	385.0
1192	3.89726e+02	1.19200e+03	1.07101	386.0
1194	3.90741e+02	1.19400e+03	1.02638	387.0
1196	3.91752e+02	1.19600e+03	0.982265	388.0
1198	3.92744e+02	1.19800e+03	0.938188	389.0
1200	3.93788e+02	1.20000e+03	0.894207	390.0
1202	3.94828e+02	1.20200e+03	0.850294	391.0
1204	3.95850e+02	1.20400e+03	0.806581	392.0
1206	3.96898e+02	1.20600e+03	0.763179	393.0
1208	3.97934e+02	1.20800e+03	0.720376	394.0
1210	3.98959e+02	1.21000e+03	0.678134	395.0
1212	4.00033e+02	1.21200e+03	0.636903	396.0
1214	4.01032e+02	1.21400e+03	0.596465	397.0
1216	4.02034e+02	1.21600e+03	0.557397	398.0
1218	4.02990e+02	1.21800e+03	0.519308	399.0
1220	4.03959e+02	1.22000e+03	0.482917	400.0
1222	4.04941e+02	1.22200e+03	0.447661	401.0
1224	4.05931e+02	1.22400e+03	0.414336	402.0
1226	4.06939e+02	1.22600e+03	0.382214	403.0
1228	4.07916e+02	1.22800e+03	0.352152	404.0
1230	4.08945e+02	1.23000e+03	0.323341	405.0
1232	4.09962e+02	1.23200e+03	0.296611	406.0
1234	4.10999e+02	1.23400e+03	0.271027	407.0
1236	4.12081e+02	1.23600e+03	0.24738	408.0
1238	4.13132e+02	1.23800e+03	0.224823	409.0
1240	4.14225e+02	1.24000e+03	0.204085	410.0
1242	4.15255e+02	1.24200e+03	0.184358	411.0
1244	4.16268e+02	1.24400e+03	0.166338	412.0
1246	4.17254e+02	1.24600e+03	0.149281	413.0
1248	4.18187e+02	1.24800e+03	0.133813	414.0
1250	4.19262e+02	1.25000e+03	0.119216	415.0
1252	4.20415e+02	1.25200e+03	0.106077	416.0
1254	4.21432e+02	1.25400e+03	0.0937578	417.0
1256	4.22461e+02	1.25600e+03	0.0827936	418.0
1258	4.23553e+02	1.25800e+03	0.0725539	419.0
1260	4.24601e+02	1.26000e+03	0.0635141	420.0
1262	4.25677e+02	1.26200e+03	0.0551096	421.0
1264	4.26600e+02	1.26400e+03	0.0477466	422.0
1266	4.27610e+02	1.26600e+03	0.0409278	423.0
1268	4.28626e+02	1.26800e+03	0.0350217	424.0
1270	4.29649e+02	1.27000e+03	0.0296092	425.0
1272	4.30625e+02	1.27200e+03	0.0250024	426.0
1274	4.31595e+02	1.27400e+03	0.0208046	427.0
1276	4.32616e+02	1.27600e+03	0.0172717	428.0
1278	4.33624e+02	1.27800e+03	0.0140506	429.0
1280	4.34650e+02	1.28000e+03	0.0113192	430.0
1282	4.35688e+02	1.28200e+03	0.00879723	431.0
1284	4.36655e+02	1.28400e+03	0.00662954	432.0
1286	4.37638e+02	1.28600e+03	0.00465918	433.0
1288	4.38651e+02	1.28800e+03	0.0030076	434.0
1290	4.39667e+02	1.29000e+03	0.00151748	435.0
1292	4.40648e+02	1.29200e+03	0.000292331	436.0
1294	4.41635e+02	1.29400e+03	-0.000799388	437.0
1296	4.42781e+02	1.29600e+03	-0.0016981	438.0
1298	4.43771e+02	1.29800e+03	-0.00253301	439.0
1300	4.44709e+02	1.30000e+03	-0.00325665	440.0
1302	4.45654e+02	1.30200e+03	-0.00392743	441.0
1304	4.46639e+02	1.30400e+03	-0.00451403	442.0
1306	4.47575e+02	1.30600e+03	-0.00506939	443.0
1308	4.48627e+02	1.30800e+03	-0.00556261	444.0
1310	4.49669e+02	1.31000e+03	-0.00600408	445.0
1312	4.50926e+02	1.31200e+03	-0.00635201	446.0
1314	4.51673e+02	1.31400e+03	-0.00664651	447.0
1316	4.52420e+02	1.31600e+03	-0.00686265	448.0
1318	4.53337e+02	1.31800e+03	-0.00705471	449.0
1320	4.54151e+02	1.32000e+03	-0.00719985	450.0
1322	4.55268e+02	1.32200e+03	-0.00733567	451.0
1324	4.56213e+02	1.32400e+03	-0.0074661	452.0
1326	4.57304e+02	1.32600e+03	-0.00760983	453.0
1328	4.58498e+02	1.32800e+03	-0.00775843	454.0
1330	4.59687e+02	1.33000e+03	-0.00788851	455.0
1332	4.60888e+02	1.33200e+03	-0.00798536	456.0
1334	4.61947e+02	1.33400e+03	-0.00804945	457.0
1336	4.62914e+02	1.33600e+03	-0.00806367	458.0
1338	4.63956e+02	1.33800e+03	-0.00806877	459.0
1340	4.64876e+02	1.34000e+03	-0.00807185	460.0
1342	4.65843e+02	1.34200e+03	-0.00808508	461.0
1344	4.66748e+02	1.34400e+03	-0.00811065	462.0
1346	4.67724e+02	1.34600e+03	-0.00814303	463.0
1348	4.68675e+02	1.34800e+03	-0.00818861	464.0
1350	4.69508e+02	1.35000e+03	-0.00823722	465.0
1352	4.70374e+02	1.35200e+03	-0.0082867	466.0
1354	4.71257e+02	1.35400e+03	-0.00834109	467.0
1356	4.72196e+02	1.35600e+03	-0.00841345	468.0
1358	4.73090e+02	1.35800e+03	-0.00850645	469.0
1360	4.73989e+02	1.36000e+03	-0.0086136	470.0
1362	4.74905e+02	1.36200e+03	-0.00869959	471.0
1364	4.75846e+02	1.36400e+03	-0.00876313	472.0
1366	4.76795e+02	1.36600e+03	-0.0088169	473.0
1368	4.77767e+02	1.36800e+03	-0.00885089	474.0
1370	4.78728e+02	1.37000e+03	-0.00886674	475.0
1372	4.79683e+02	1.37200e+03	-0.00886603	476.0
1374	4.80649e+02	1.37400e+03	-0.00888016	477.0
1376	4.81614e+02	1.37600e+03	-0.00889628	478.0
1378	4.82582e+02	1.37800e+03	-0.00889614	479.0
1380	4.83556e+02	1.38000e+03	-0.0088873	480.0
1382	4.84513e+02	1.38200e+03	-0.00889476	481.0
1384	4.85470e+02	1.38400e+03	-0.0089192	482.0
1386	4.86449e+02	1.38600e+03	-0.00893698	483.0
1388	4.87407e+02	1.38800e+03	-0.00893873	484.0
1390	4.88368e+02	1.39000e+03	-0.00894327	485.0
1392	4.89327e+02	1.39200e+03	-0.00895943	486.0
1394	4.90283e+02	1.39400e+03	-0.00898394	487.0
1396	4.91252e+02	1.39600e+03	-0.00902838	488.0
1398	4.92226e+02	1.39800e+03	-0.00909156	489.0
1400	4.93210e+02	1.40000e+03	-0.00916572	490.0
1402	4.94167e+02	1.40200e+03	-0.00922057	491.0
1404	4.95135e+02	1.40400e+03	-0.00926347	492.0
1406	4.96085e+02	1.40600e+03	-0.00931614	493.0
1408	4.97065e+02	1.40800e+03	-0.009375	494.0
1410	4.98023e+02	1.41000e+03	-0.00942512	495.0
1412	4.99002e+02	1.41200e+03	-0.00945472	496.0
1414	4.99959e+02	1.41400e+03	-0.00946458	497.0
1416	5.00922e+02	1.41600e+03	-0.00945648	498.0
1418	5.01910e+02	1.41800e+03	-0.00945512	499.0
1420	5.02897e+02	1.42000e+03	-0.00945125	500.0
1422	5.03863e+02	1.42200e+03	-0.00944235	501.0
1424	5.04818e+02	1.42400e+03	-0.00945559	502.0
1426	5.05805e+02	1.42600e+03	-0.00949675	503.0
1428	5.06830e+02	1.42800e+03	-0.0095467	504.0
1430	5.07805e+02	1.43000e+03	-0.00956859	505.0
1432	5.08809e+02	1.43200e+03	-0.00956666	506.0
1434	5.09783e+02	1.43400e+03	-0.00956602	507.0
1436	5.10723e+02	1.43600e+03	-0.00953962	508.0
1438	5.11685e+02	1.43800e+03	-0.00948614	509.0
1440	5.12654e+02	1.44000e+03	-0.00942559	510.0
1442	5.13646e+02	1.44200e+03	-0.00940058	511.0
1444	5.14618e+02	1.44400e+03	-0.00939508	512.0
1446	5.15584e+02	1.44600e+03	-0.00937203	513.0
1448	5.16524e+02	1.44800e+03	-0.00935681	514.0
1450	5.17489e+02	1.45000e+03	-0.00939096	515.0
1452	5.18451e+02	1.45200e+03	-0.00946204	516.0
1454	5.19416e+02	1.45400e+03	-0.00950552	517.0
1456	5.20397e+02	1.45600e+03	-0.00952716	518.0
1458	5.21383e+02	1.45800e+03	-0.00955865	519.0
1460	5.22357e+02	1.46000e+03	-0.00959153	520.0
1462	5.23309e+02	1.46200e+03	-0.00962226	521.0
1464	5.24302e+02	1.46400e+03	-0.00966385	522.0
1466	5.25285e+02	1.46600e+03	-0.00971007	523.0
1468	5.26262e+02	1.46800e+03	-0.00974517	524.0
1470	5.27268e+02	1.47000e+03	-0.0097565	525.0
1472	5.28254e+02	1.47200e+03	-0.0097369	526.0
1474	5.29242e+02	1.47400e+03	-0.00971269	527.0
1476	5.30230e+02	1.47600e+03	-0.00967978	528.0
1478	5.31225e+02	1.47800e+03	-0.00963152	529.0
1480	5.32208e+02	1.48000e+03	-0.00956616	530.0
1482	5.33194e+02	1.48200e+03	-0.00952513	531.0
1484	5.34182e+02	1.48400e+03	-0.00952748	532.0
1486	5.35159e+02	1.48600e+03	-0.00954899	533.0
1488	5.36146e+02	1.48800e+03	-0.00960314	534.0
1490	5.37102e+02	1.49000e+03	-0.00967107	535.0
1492	5.38097e+02	1.49200e+03	-0.00974749	536.0
1494	5.39078e+02	1.49400e+03	-0.0098114	537.0
1496	5.40048e+02	1.49600e+03	-0.00985165	538.0
1498	5.41019e+02	1.49800e+03	-0.00987885	539.0
1500	5.42036e+02	1.50000e+03	-0.00990146	540.0
1502	5.43044e+02	1.50200e+03	-0.00993408	541.0
1504	5.44027e+02	1.50400e+03	-0.0099636	542.0
1506	5.45046e+02	1.50600e+03	-0.00998937	543.0
1508	5.46035e+02	1.50800e+03	-0.0100084	544.0
1510	5.47011e+02	1.51000e+03	-0.0100193	545.0
1512	5.47992e+02	1.51200e+03	-0.0100207	546.0
1514	5.48947e+02	1.51400e+03	-0.0100287	547.0
1516	5.49914e+02	1.51600e+03	-0.0100424	548.0
1518	5.50857e+02	1.51800e+03	-0.0100639	549.0
1520	5.51780e+02	1.52000e+03	-0.0100917	550.0
1522	5.52708e+02	1.52200e+03	-0.0101053	551.0
1524	5.53647e+02	1.52400e+03	-0.0101161	552.0
1526	5.54609e+02	1.52600e+03	-0.0101309	553.0
1528	5.55575e+02	1.52800e+03	-0.0101209	554.0
1530	5.56552e+02	1.53000e+03	-0.0100784	555.0
1532	5.57542e+02	1.53200e+03	-0.0100173	556.0
1534	5.58525e+02	1.53400e+03	-0.00998741	557.0
1536	5.59515e+02	1.53600e+03	-0.0100054	558.0
1538	5.60505e+02	1.53800e+03	-0.0100359	559.0
1540	5.61492e+02	1.54000e+03	-0.0100868	560.0
1542	5.62494e+02	1.54200e+03	-0.0101459	561.0
1544	5.63494e+02	1.54400e+03	-0.0101978	562.0
1546	5.64471e+02	1.54600e+03	-0.010214	563.0
1548	5.65462e+02	1.54800e+03	-0.010204	564.0
1550	5.66453e+02	1.55000e+03	-0.010215	565.0
1552	5.67454e+02	1.55200e+03	-0.0102488	566.0
1554	5.68431e+02	1.55400e+03	-0.0102831	567.0
1556	5.69418e+02	1.55600e+03	-0.0103152	568.0
1558	5.70388e+02	1.55800e+03	-0.0103527	569.0
1560	5.71363e+02	1.56000e+03	-0.0103951	570.0
1562	5.72323e+02	1.56200e+03	-0.0104301	571.0
1564	5.73281e+02	1.56400e+03	-0.0104688	572.0
1566	5.74254e+02	1.56600e+03	-0.0105294	573.0
1568	5.75236e+02	1.56800e+03	-0.0105892	574.0
1570	5.76210e+02	1.57000e+03	-0.0106234	575.0
1572	5.77195e+02	1.57200e+03	-0.0106329	576.0
1574	5.78170e+02	1.57400e+03	-0.0106447	577.0
1576	5.79142e+02	1.57600e+03	-0.0106569	578.0
1578	5.80127e+02	1.57800e+03	-0.0106621	579.0
1580	5.81111e+02	1.58000e+03	-0.0106511	580.0
1582	5.82114e+02	1.58200e+03	-0.0106481	581.0
1584	5.83167e+02	1.58400e+03	-0.0106685	582.0
1586	5.84182e+02	1.58600e+03	-0.0106937	583.0
1588	5.85177e+02	1.58800e+03	-0.0107287	584.0
1590	5.86132e+02	1.59000e+03	-0.010781	585.0
1592	5.87087e+02	1.59200e+03	-0.0108452	586.0
1594	5.88089e+02	1.59400e+03	-0.0108885	587.0
1596	5.89148e+02	1.59600e+03	-0.0109028	588.0
1598	5.90230e+02	1.59800e+03	-0.0108932	589.0
1600	5.91332e+02	1.60000e+03	-0.0108664	590.0
1602	5.92667e+02	1.60200e+03	-0.0108612	591.0
1604	5.93959e+02	1.60400e+03	-0.010872	592.0
1606	5.95082e+02	1.60600e+03	-0.0108765	593.0
1608	5.96059e+02	1.60800e+03	-0.0108758	594.0
1610	5.97156e+02	1.61000e+03	-0.0108692	595.0
1612	5.98222e+02	1.61200e+03	-0.0108517	596.0
1614	5.99180e+02	1.61400e+03	-0.0108207	597.0
1616	6.00339e+02	1.61600e+03	-0.0107783	598.0
1618	6.01279e+02	1.61800e+03	-0.0107411	599.0
1620	6.02198e+02	1.62000e+03	-0.0106916	600.0
1622	6.03158e+02	1.62200e+03	-0.0106152	601.0
1624	6.04062e+02	1.62400e+03	-0.010531	602.0
1626	6.04956e+02	1.62600e+03	-0.0104935	603.0
1628	6.05931e+02	1.62800e+03	-0.0105236	604.0
1630	6.06914e+02	1.63000e+03	-0.0105779	605.0
1632	6.07867e+02	1.63200e+03	-0.0106593	606.0
1634	6.08803e+02	1.63400e+03	-0.0107385	607.0
1636	6.09743e+02	1.63600e+03	-0.0108248	608.0
1638	6.10694e+02	1.63800e+03	-0.010911	609.0
1640	6.11630e+02	1.64000e+03	-0.0109912	610.0
1642	6.12590e+02	1.64200e+03	-0.0110618	611.0
1644	6.13557e+02	1.64400e+03	-0.0110936	612.0
1646	6.14531e+02	1.64600e+03	-0.0110705	613.0
1648	6.15523e+02	1.64800e+03	-0.010982	614.0
1650	6.16506e+02	1.65000e+03	-0.0108817	615.0
1652	6.17499e+02	1.65200e+03	-0.0107717	616.0
1654	6.18467e+02	1.65400e+03	-0.0106833	617.0
1656	6.19450e+02	1.65600e+03	-0.0106425	618.0
1658	6.20445e+02	1.65800e+03	-0.0106605	619.0
1660	6.21460e+02	1.66000e+03	-0.0107735	620.0
1662	6.22432e+02	1.66200e+03	-0.0108934	621.0
1664	6.23426e+02	1.66400e+03	-0.011005	622.0
1666	6.24426e+02	1.66600e+03	-0.0110702	623.0
1668	6.25400e+02	1.66800e+03	-0.011063	624.0
1670	6.26375e+02	1.67000e+03	-0.0110476	625.0
1672	6.27344e+02	1.67200e+03	-0.0110386	626.0
1674	6.28325e+02	1.67400e+03	-0.0110548	627.0
1676	6.29300e+02	1.67600e+03	-0.0111039	628.0
1678	6.30294e+02	1.67800e+03	-0.0111416	629.0
1680	6.31257e+02	1.68000e+03	-0.0111438	630.0
1682	6.32236e+02	1.68200e+03	-0.0111258	631.0
1684	6.33205e+02	1.68400e+03	-0.0110923	632.0
1686	6.34163e+02	1.68600e+03	-0.0110679	633.0
1688	6.35130e+02	1.68800e+03	-0.0110489	634.0
1690	6.36101e+02	1.69000e+03	-0.0110132	635.0
1692	6.37067e+02	1.69200e+03	-0.0109782	636.0
1694	6.38048e+02	1.69400e+03	-0.0109847	637.0
1696	6.39034e+02	1.69600e+03	-0.0110396	638.0
1698	6.40032e+02	1.69800e+03	-0.0111091	639.0
1700	6.41045e+02	1.70000e+03	-0.0112064	640.0
1702	6.42058e+02	1.70200e+03	-0.0113014	641.0
1704	6.43067e+02	1.70400e+03	-0.0113806	642.0
1706	6.44059e+02	1.70600e+03	-0.0114366	643.0
1708	6.45049e+02	1.70800e+03	-0.0114736	644.0
1710	6.46026e+02	1.71000e+03	-0.0115183	645.0
1712	6.47028e+02	1.71200e+03	-0.0115475	646.0
1714	6.48051e+02	1.71400e+03	-0.0115426	647.0
1716	6.49133e+02	1.71600e+03	-0.0115047	648.0
1718	6.50171e+02	1.71800e+03	-0.0114882	649.0
1720	6.51235e+02	1.72000e+03	-0.0114906	650.0
1722	6.52257e+02	1.72200e+03	-0.0114811	651.0
1724	6.53358e+02	1.72400e+03	-0.0114714	652.0
1726	6.54769e+02	1.72600e+03	-0.0114863	653.0
1728	6.55347e+02	1.72800e+03	-0.0115252	654.0
1730	6.56088e+02	1.73000e+03	-0.0115484	655.0
1732	6.56922e+02	1.73200e+03	-0.0115513	656.0
1734	6.57864e+02	1.73400e+03	-0.0115536	657.0
1736	6.58800e+02	1.73600e+03	-0.0115682	658.0
1738	6.59764e+02	1.73800e+03	-0.0116145	659.0
1740	6.60727e+02	1.74000e+03	-0.0117079	660.0
1742	6.61705e+02	1.74200e+03	-0.0118185	661.0
1744	6.62668e+02	1.74400e+03	-0.011935	662.0
1746	6.63638e+02	1.74600e+03	-0.0120027	663.0
1748	6.64607e+02	1.74800e+03	-0.0119827	664.0
1750	6.65578e+02	1.75000e+03	-0.0119261	665.0
1752	6.66552e+02	1.75200e+03	-0.0118328	666.0
1754	6.67536e+02	1.75400e+03	-0.0117523	667.0
1756	6.68520e+02	1.75600e+03	-0.0116923	668.0
1758	6.69490e+02	1.75800e+03	-0.0116401	669.0
1760	6.70477e+02	1.76000e+03	-0.011607	670.0
1762	6.71465e+02	1.76200e+03	-0.0115887	671.0
1764	6.72449e+02	1.76400e+03	-0.0115925	672.0
1766	6.73437e+02	1.76600e+03	-0.0116031	673.0
1768	6.74412e+02	1.76800e+03	-0.0116305	674.0
1770	6.75393e+02	1.77000e+03	-0.011656	675.0
1772	6.76377e+02	1.77200e+03	-0.0116605	676.0
1774	6.77351e+02	1.77400e+03	-0.0116403	677.0
1776	6.78331e+02	1.77600e+03	-0.011599	678.0
1778	6.79323e+02	1.77800e+03	-0.0115802	679.0
1780	6.80307e+02	1.78000e+03	-0.011585	680.0
1782	6.81289e+02	1.78200e+03	-0.0115891	681.0
1784	6.82282e+02	1.78400e+03	-0.0115935	682.0
1786	6.83271e+02	1.78600e+03	-0.0115941	683.0
1788	6.84252e+02	1.78800e+03	-0.0115809	684.0
1790	6.85241e+02	1.79000e+03	-0.0115477	685.0
1792	6.86235e+02	1.79200e+03	-0.0114986	686.0
1794	6.87215e+02	1.79400e+03	-0.0114659	687.0
1796	6.87611e+02	1.79600e+03	-0.0114421	688.0
1798	6.88291e+02	1.79800e+03	-0.0114022	689.0
1800	6.89018e+02	1.80000e+03	-0.0113569	690.0
1802	6.89694e+02	1.80200e+03	-0.011351	691.0
1804	6.90322e+02	1.80400e+03	-0.0114029	692.0
1806	6.90912e+02	1.80600e+03	-0.0114725	693.0
1808	6.91463e+02	1.80800e+03	-0.0115681	694.0
1810	6.91979e+02	1.81000e+03	-0.0116501	695.0
1812	6.92459e+02	1.81200e+03	-0.0116988	696.0
1814	6.92917e+02	1.81400e+03	-0.0117101	697.0
1816	6.93340e+02	1.81600e+03	-0.0116669	698.0
1818	6.93735e+02	1.81800e+03	-0.0116225	699.0
1820	6.94114e+02	1.82000e+03	-0.0115796	700.0
1822	6.94468e+02	1.82200e+03	-0.0115454	700.0
1824	6.94807e+02	1.82400e+03	-0.0115214	700.0
1826	6.95114e+02	1.82600e+03	-0.0115034	700.0
1828	6.95414e+02	1.82800e+03	-0.0114982	700.0
1830	6.95693e+02	1.83000e+03	-0.0115004	700.0
1832	6.95951e+02	1.83200e+03	-0.0115125	700.0
1834	6.96203e+02	1.83400e+03	-0.0115336	700.0
1836	6.96437e+02	1.83600e+03	-0.0115638	700.0
1838	6.96667e+02	1.83800e+03	-0.011583	700.0
1840	6.96881e+02	1.84000e+03	-0.0115931	700.0
1842	6.97092e+02	1.84200e+03	-0.0115975	700.0
1844	6.97263e+02	1.84400e+03	-0.0116033	700.0
1846	6.97443e+02	1.84600e+03	-0.0116096	700.0
1848	6.97606e+02	1.84800e+03	-0.0116072	700.0
1850	6.97767e+02	1.85000e+03	-0.0115928	700.0
1852	6.97911e+02	1.85200e+03	-0.0115768	700.0
1854	6.98063e+02	1.85400e+03	-0.0115764	700.0
1856	6.98186e+02	1.85600e+03	-0.0116051	700.0
1858	6.98320e+02	1.85800e+03	-0.0116309	700.0
1860	6.98433e+02	1.86000e+03	-0.0116499	700.0
1862	6.98552e+02	1.86200e+03	-0.0116709	700.0
1864	6.98654e+02	1.86400e+03	-0.0116898	700.0
1866	6.98763e+02	1.86600e+03	-0.01171	700.0
1868	6.98859e+02	1.86800e+03	-0.0117322	700.0
1870	6.98949e+02	1.87000e+03	-0.0117526	700.0
1872	6.99030e+02	1.87200e+03	-0.011771	700.0
1874	6.99106e+02	1.87400e+03	-0.0117894	700.0
1876	6.99173e+02	1.87600e+03	-0.0118127	700.0
1878	6.99256e+02	1.87800e+03	-0.0118327	700.0
1880	6.99323e+02	1.88000e+03	-0.0118373	700.0
1882	6.99381e+02	1.88200e+03	-0.0118227	700.0
1884	6.99449e+02	1.88400e+03	-0.0117851	700.0
1886	6.99505e+02	1.88600e+03	-0.0117524	700.0
1888	6.99562e+02	1.88800e+03	-0.011728	700.0
1890	6.99617e+02	1.89000e+03	-0.01171	700.0
1892	6.99675e+02	1.89200e+03	-0.0117082	700.0
1894	6.99717e+02	1.89400e+03	-0.011723	700.0
1896	6.99778e+02	1.89600e+03	-0.0117502	700.0
1898	6.99820e+02	1.89800e+03	-0.0117703	700.0
1900	6.99857e+02	1.90000e+03	-0.0117799	700.0
1902	6.99898e+02	1.90200e+03	-0.0117863	700.0
1904	6.99948e+02	1.90400e+03	-0.0117882	700.0
1906	6.99976e+02	1.90600e+03	-0.0117894	700.0
1908	7.00025e+02	1.90800e+03	-0.0117897	700.0
1910	7.00056e+02	1.91000e+03	-0.01179	700.0
1912	7.00096e+02	1.91200e+03	-0.0117898	700.0
1914	7.00131e+02	1.91400e+03	-0.0117819	700.0
1916	7.00156e+02	1.91600e+03	-0.0117698	700.0
1918	7.00186e+02	1.91800e+03	-0.0117691	700.0
1920	7.00219e+02	1.92000e+03	-0.0117844	700.0
1922	7.00244e+02	1.92200e+03	-0.0118068	700.0
1924	7.00271e+02	1.92400e+03	-0.0118354	700.0
1926	7.00289e+02	1.92600e+03	-0.0118557	700.0
1928	7.00315e+02	1.92800e+03	-0.0118612	700.0
1930	7.00337e+02	1.93000e+03	-0.0118586	700.0
1932	7.00358e+02	1.93200e+03	-0.0118476	700.0
1934	7.00378e+02	1.93400e+03	-0.0118412	700.0
1936	7.00402e+02	1.93600e+03	-0.0118426	700.0
1938	7.00415e+02	1.93800e+03	-0.0118397	700.0
1940	7.00438e+02	1.94000e+03	-0.0118244	700.0
1942	7.00459e+02	1.94200e+03	-0.0117999	700.0
1944	7.00474e+02	1.94400e+03	-0.0117731	700.0
1946	7.00495e+02	1.94600e+03	-0.0117609	700.0
1948	7.00506e+02	1.94800e+03	-0.0117677	700.0
1950	7.00530e+02	1.95000e+03	-0.0117743	700.0
1952	7.00547e+02	1.95200e+03	-0.0117798	700.0
1954	7.00553e+02	1.95400e+03	-0.0117804	700.0
1956	7.00568e+02	1.95600e+03	-0.011772	700.0
1958	7.00580e+02	1.95800e+03	-0.0117585	700.0
1960	7.00594e+02	1.96000e+03	-0.0117404	700.0
1962	7.00600e+02	1.96200e+03	-0.0117293	700.0
1964	7.00612e+02	1.96400e+03	-0.0117279	700.0
1966	7.00617e+02	1.96600e+03	-0.0117287	700.0
1968	7.00633e+02	1.96800e+03	-0.0117428	700.0
1970	7.00638e+02	1.97000e+03	-0.0117654	700.0
1972	7.00657e+02	1.97200e+03	-0.0117968	700.0
1974	7.00657e+02	1.97400e+03	-0.0118161	700.0
1976	7.00672e+02	1.97600e+03	-0.0118238	700.0
1978	7.00679e+02	1.97800e+03	-0.0118498	700.0
1980	7.00693e+02	1.98000e+03	-0.0118981	700.0
1982	7.00700e+02	1.98200e+03	-0.0119482	700.0
1984	7.00696e+02	1.98400e+03	-0.0120032	700.0
1986	7.00709e+02	1.98600e+03	-0.0120544	700.0
1988	7.00723e+02	1.98800e+03	-0.0120963	700.0
1990	7.00730e+02	1.99000e+03	-0.0121201	700.0
1992	7.00734e+02	1.99200e+03	-0.0121084	700.0
1994	7.00728e+02	1.99400e+03	-0.0120813	700.0
1996	7.00741e+02	1.99600e+03	-0.0120403	700.0
1998	7.00741e+02	1.99800e+03	-0.0120116	700.0
2000	7.00752e+02	2.00000e+03	-0.0120009	700.0
2002	7.00758e+02	2.00200e+03	-0.0119987	700.0
2004	7.00764e+02	2.00400e+03	-0.0120169	700.0
2006	7.00772e+02	2.00600e+03	-0.0120402	700.0
2008	7.00775e+02	2.00800e+03	-0.0120718	700.0
2010	7.00783e+02	2.01000e+03	-0.0120993	700.0
2012	7.00788e+02	2.01200e+03	-0.0121192	700.0
2014	7.00792e+02	2.01400e+03	-0.012147	700.0
2016	7.00801e+02	2.01600e+03	-0.0121714	700.0
2018	7.00802e+02	2.01800e+03	-0.0121781	700.0
2020	7.00811e+02	2.02000e+03	-0.0121732	700.0
2022	7.00813e+02	2.02200e+03	-0.0121698	700.0
2024	7.00821e+02	2.02400e+03	-0.0121606	700.0
2026	7.00816e+02	2.02600e+03	-0.0121492	700.0
2028	7.00823e+02	2.02800e+03	-0.012141	700.0
2030	7.00825e+02	2.03000e+03	-0.012143	700.0
2032	7.00833e+02	2.03200e+03	-0.0121579	700.0
2034	7.00844e+02	2.03400e+03	-0.0121701	700.0
2036	7.00840e+02	2.03600e+03	-0.0121783	700.0
2038	7.00847e+02	2.03800e+03	-0.0121844	700.0
2040	7.00850e+02	2.04000e+03	-0.012189	700.0
2042	7.00846e+02	2.04200e+03	-0.0121887	700.0
2044	7.00858e+02	2.04400e+03	-0.0121805	700.0
2046	7.00853e+02	2.04600e+03	-0.0121762	700.0
2048	7.00865e+02	2.04800e+03	-0.0121771	700.0
2050	7.00860e+02	2.05000e+03	-0.0121855	700.0
2052	7.00867e+02	2.05200e+03	-0.0122048	700.0
2054	7.00872e+02	2.05400e+03	-0.0122263	700.0
2056	7.00879e+02	2.05600e+03	-0.0122482	700.0
2058	7.00877e+02	2.05800e+03	-0.0122655	700.0
2060	7.00873e+02	2.06000e+03	-0.0122798	700.0
2062	7.00881e+02	2.06200e+03	-0.0123055	700.0
2064	7.00882e+02	2.06400e+03	-0.0123381	700.0
2066	7.00883e+02	2.06600e+03	-0.0123682	700.0
2068	7.00890e+02	2.06800e+03	-0.0123957	700.0
2070	7.00882e+02	2.07000e+03	-0.0124247	700.0
2072	7.00894e+02	2.07200e+03	-0.0124567	700.0
2074	7.00889e+02	2.07400e+03	-0.0124839	700.0
2076	7.00898e+02	2.07600e+03	-0.0125088	700.0
2078	7.00902e+02	2.07800e+03	-0.0125399	700.0
2080	7.00908e+02	2.08000e+03	-0.0125741	700.0
2082	7.00903e+02	2.08200e+03	-0.0125993	700.0
2084	7.00906e+02	2.08400e+03	-0.0126073	700.0
2086	7.00910e+02	2.08600e+03	-0.0126041	700.0
2088	7.00915e+02	2.08800e+03	-0.0125894	700.0
2090	7.00911e+02	2.09000e+03	-0.0125806	700.0
2092	7.00918e+02	2.09200e+03	-0.0125789	700.0
2094	7.00924e+02	2.09400e+03	-0.0125714	700.0
2096	7.00922e+02	2.09600e+03	-0.0125666	700.0
2098	7.00927e+02	2.09800e+03	-0.0125666	700.0
2100	7.00936e+02	2.10000e+03	-0.0125605	700.0
2102	7.00933e+02	2.10200e+03	-0.0125501	700.0
2104	7.00935e+02	2.10400e+03	-0.0125477	700.0
2106	7.00932e+02	2.10600e+03	-0.0125686	700.0
2108	7.00939e+02	2.10800e+03	-0.0126157	700.0
2110	7.00938e+02	2.11000e+03	-0.0126545	700.0
2112	7.00952e+02	2.11200e+03	-0.0126827	700.0
2114	7.00945e+02	2.11400e+03	-0.0127153	700.0
2116	7.00940e+02	2.11600e+03	-0.0127445	700.0
2118	7.00950e+02	2.11800e+03	-0.0127679	700.0
2120	7.00939e+02	2.12000e+03	-0.0127852	700.0
2122	7.00947e+02	2.12200e+03	-0.0128035	700.0
2124	7.00946e+02	2.12400e+03	-0.0128231	700.0
2126	7.00958e+02	2.12600e+03	-0.0128446	700.0
2128	7.00958e+02	2.12800e+03	-0.0128732	700.0
2130	7.00954e+02	2.13000e+03	-0.0129061	700.0
2132	7.00953e+02	2.13200e+03	-0.0129282	700.0
2134	7.00955e+02	2.13400e+03	-0.0129159	700.0
2136	7.00959e+02	2.13600e+03	-0.0128565	700.0
2138	7.00962e+02	2.13800e+03	-0.0127998	700.0
2140	7.00953e+02	2.14000e+03	-0.0127555	700.0
2142	7.00965e+02	2.14200e+03	-0.0127371	700.0
2144	7.00962e+02	2.14400e+03	-0.0127603	700.0
2146	7.00961e+02	2.14600e+03	-0.0128151	700.0
2148	7.00958e+02	2.14800e+03	-0.0129051	700.0
2150	7.00963e+02	2.15000e+03	-0.0129915	700.0
2152	7.00960e+02	2.15200e+03	-0.0130624	700.0
2154	7.00960e+02	2.15400e+03	-0.0131086	700.0
2156	7.00970e+02	2.15600e+03	-0.0131232	700.0
2158	7.00966e+02	2.15800e+03	-0.0131267	700.0
2160	7.00969e+02	2.16000e+03	-0.0131039	700.0
2162	7.00966e+02	2.16200e+03	-0.0130701	700.0
2164	7.00966e+02	2.16400e+03	-0.0130213	700.0
2166	7.00968e+02	2.16600e+03	-0.0129766	700.0
2168	7.00958e+02	2.16800e+03	-0.0129289	700.0
2170	7.00963e+02	2.17000e+03	-0.0128829	700.0
2172	7.00964e+02	2.17200e+03	-0.0128477	700.0
2174	7.00963e+02	2.17400e+03	-0.0128343	700.0
2176	7.00955e+02	2.17600e+03	-0.0128541	700.0
2178	7.00964e+02	2.17800e+03	-0.0128855	700.0
2180	7.00956e+02	2.18000e+03	-0.0129311	700.0
2182	7.00959e+02	2.18200e+03	-0.0129743	700.0
2184	7.00963e+02	2.18400e+03	-0.0130117	700.0
2186	7.00959e+02	2.18600e+03	-0.0130421	700.0
2188	7.00956e+02	2.18800e+03	-0.0130612	700.0
2190	7.00957e+02	2.19000e+03	-0.013069	700.0
2192	7.00965e+02	2.19200e+03	-0.013049	700.0
2194	7.00951e+02	2.19400e+03	-0.0130117	700.0
2196	7.00954e+02	2.19600e+03	-0.0129613	700.0
2198	7.00954e+02	2.19800e+03	-0.0129245	700.0
2200	7.00958e+02	2.20000e+03	-0.0129077	700.0
2202	7.00951e+02	2.20200e+03	-0.0128965	700.0
2204	7.00960e+02	2.20400e+03	-0.0128996	700.0
2206	7.00964e+02	2.20600e+03	-0.0129172	700.0
2208	7.00954e+02	2.20800e+03	-0.0129344	700.0
2210	7.00951e+02	2.21000e+03	-0.0129343	700.0
2212	7.00952e+02	2.21200e+03	-0.0129178	700.0
2214	7.00955e+02	2.21400e+03	-0.0129106	700.0
2216	7.00948e+02	2.21600e+03	-0.0129149	700.0
2218	7.00950e+02	2.21800e+03	-0.0129107	700.0
2220	7.00961e+02	2.22000e+03	-0.0129023	700.0
2222	7.00948e+02	2.22200e+03	-0.0128955	700.0
2224	7.00956e+02	2.22400e+03	-0.012891	700.0
2226	7.00948e+02	2.22600e+03	-0.01289	700.0
2228	7.00951e+02	2.22800e+03	-0.0129056	700.0
2230	7.00942e+02	2.23000e+03	-0.0129371	700.0
2232	7.00943e+02	2.23200e+03	-0.0129798	700.0
2234	7.00941e+02	2.23400e+03	-0.0130022	700.0
2236	7.00937e+02	2.23600e+03	-0.0130067	700.0
2238	7.00939e+02	2.23800e+03	-0.0130171	700.0
2240	7.00931e+02	2.24000e+03	-0.0130383	700.0
2242	7.00933e+02	2.24200e+03	-0.0130602	700.0
2244	7.00938e+02	2.24400e+03	-0.0130751	700.0
2246	7.00929e+02	2.24600e+03	-0.013088	700.0
2248	7.00932e+02	2.24800e+03	-0.0130984	700.0
2250	7.00930e+02	2.25000e+03	-0.0131149	700.0
2252	7.00939e+02	2.25200e+03	-0.0131381	700.0
2254	7.00932e+02	2.25400e+03	-0.0131599	700.0
2256	7.00938e+02	2.25600e+03	-0.0131791	700.0
2258	7.00931e+02	2.25800e+03	-0.013185	700.0
2260	7.00926e+02	2.26000e+03	-0.0131787	700.0
2262	7.00916e+02	2.26200e+03	-0.0131693	700.0
2264	7.00928e+02	2.26400e+03	-0.013154	700.0
2266	7.00930e+02	2.26600e+03	-0.0131348	700.0
2268	7.00922e+02	2.26800e+03	-0.0131028	700.0
2270	7.00926e+02	2.27000e+03	-0.0130754	700.0
2272	7.00916e+02	2.27200e+03	-0.0130627	700.0
2274	7.00931e+02	2.27400e+03	-0.0130722	700.0
2276	7.00925e+02	2.27600e+03	-0.0130934	700.0
2278	7.00929e+02	2.27800e+03	-0.0130968	700.0
2280	7.00926e+02	2.28000e+03	-0.0130844	700.0
2282	7.00924e+02	2.28200e+03	-0.0130757	700.0
2284	7.00919e+02	2.28400e+03	-0.0130625	700.0
2286	7.00921e+02	2.28600e+03	-0.0130314	700.0
2288	7.00924e+02	2.28800e+03	-0.0129934	700.0
2290	7.00917e+02	2.29000e+03	-0.0129816	700.0
2292	7.00927e+02	2.29200e+03	-0.0129992	700.0
2294	7.00921e+02	2.29400e+03	-0.0130202	700.0
2296	7.00924e+02	2.29600e+03	-0.0130434	700.0
2298	7.00916e+02	2.29800e+03	-0.0130598	700.0
2300	7.00914e+02	2.30000e+03	-0.0130511	700.0
2302	7.00914e+02	2.30200e+03	-0.0130185	700.0
2304	7.00916e+02	2.30400e+03	-0.0129536	700.0
2306	7.00912e+02	2.30600e+03	-0.0128963	700.0
2308	7.00925e+02	2.30800e+03	-0.0128546	700.0
2310	7.00906e+02	2.31000e+03	-0.0128333	700.0
2312	7.00910e+02	2.31200e+03	-0.0128464	700.0
2314	7.00912e+02	2.31400e+03	-0.012876	700.0
2316	7.00917e+02	2.31600e+03	-0.0129265	700.0
2318	7.00916e+02	2.31800e+03	-0.0129752	700.0
2320	7.00909e+02	2.32000e+03	-0.0130173	700.0
2322	7.00913e+02	2.32200e+03	-0.0130494	700.0
2324	7.00902e+02	2.32400e+03	-0.0130658	700.0
2326	7.00906e+02	2.32600e+03	-0.0130736	700.0
2328	7.00905e+02	2.32800e+03	-0.013062	700.0
2330	7.00913e+02	2.33000e+03	-0.013037	700.0
2332	7.00907e+02	2.33200e+03	-0.0130125	700.0
2334	7.00914e+02	2.33400e+03	-0.0130121	700.0
2336	7.00904e+02	2.33600e+03	-0.0130449	700.0
2338	7.00903e+02	2.33800e+03	-0.0130819	700.0
2340	7.00901e+02	2.34000e+03	-0.0131205	700.0
2342	7.00912e+02	2.34200e+03	-0.0131507	700.0
2344	7.00911e+02	2.34400e+03	-0.0131702	700.0
2346	7.00905e+02	2.34600e+03	-0.0131898	700.0
2348	7.00905e+02	2.34800e+03	-0.0132094	700.0
2350	7.00912e+02	2.35000e+03	-0.013224	700.0
2352	7.00910e+02	2.35200e+03	-0.0132184	700.0
2354	7.00904e+02	2.35400e+03	-0.0132072	700.0
2356	7.00901e+02	2.35600e+03	-0.0131922	700.0
2358	7.00901e+02	2.35800e+03	-0.013181	700.0
2360	7.00898e+02	2.36000e+03	-0.0131678	700.0
2362	7.00902e+02	2.36200e+03	-0.0131418	700.0
2364	7.00906e+02	2.36400e+03	-0.013106	700.0
2366	7.00890e+02	2.36600e+03	-0.0130816	700.0
2368	7.00903e+02	2.36800e+03	-0.0130704	700.0
2370	7.00894e+02	2.37000e+03	-0.0130604	700.0
2372	7.00893e+02	2.37200e+03	-0.0130571	700.0
2374	7.00900e+02	2.37400e+03	-0.013061	700.0
2376	7.00903e+02	2.37600e+03	-0.0130667	700.0
2378	7.00899e+02	2.37800e+03	-0.0130651	700.0
2380	7.00898e+02	2.38000e+03	-0.0130715	700.0
2382	7.00887e+02	2.38200e+03	-0.0131103	700.0
2384	7.00897e+02	2.38400e+03	-0.0131844	700.0
2386	7.00903e+02	2.38600e+03	-0.0132395	700.0
2388	7.00892e+02	2.38800e+03	-0.0132618	700.0
2390	7.00897e+02	2.39000e+03	-0.0132752	700.0
2392	7.00898e+02	2.39200e+03	-0.0132828	700.0
2394	7.00897e+02	2.39400e+03	-0.0133062	700.0
2396	7.00901e+02	2.39600e+03	-0.0133508	700.0
2398	7.00891e+02	2.39800e+03	-0.0133923	700.0
2400	7.00886e+02	2.40000e+03	-0.0134163	700.0
2402	7.00888e+02	2.40200e+03	-0.0134002	700.0
2404	7.00897e+02	2.40400e+03	-0.0133283	700.0
2406	7.00889e+02	2.40600e+03	-0.0132554	700.0
2408	7.00884e+02	2.40800e+03	-0.0131922	700.0
2410	7.00883e+02	2.41000e+03	-0.0131499	700.0
2412	7.00887e+02	2.41200e+03	-0.0131148	700.0
2414	7.00884e+02	2.41400e+03	-0.0130603	700.0
2416	7.00887e+02	2.41600e+03	-0.0129906	700.0
2418	7.00886e+02	2.41800e+03	-0.0129579	700.0
2420	7.00885e+02	2.42000e+03	-0.0130031	700.0
2422	7.00879e+02	2.42200e+03	-0.0131105	700.0
2424	7.00885e+02	2.42400e+03	-0.0132913	700.0
2426	7.00880e+02	2.42600e+03	-0.0134482	700.0
2428	7.00885e+02	2.42800e+03	-0.0135416	700.0
2430	7.00877e+02	2.43000e+03	-0.0135638	700.0
2432	7.00890e+02	2.43200e+03	-0.0134893	700.0
2434	7.00884e+02	2.43400e+03	-0.0134022	700.0
2436	7.00879e+02	2.43600e+03	-0.0133053	700.0
2438	7.00878e+02	2.43800e+03	-0.0132271	700.0
2440	7.00880e+02	2.44000e+03	-0.0131807	700.0
2442	7.00892e+02	2.44200e+03	-0.0131428	700.0
2444	7.00883e+02	2.44400e+03	-0.0131074	700.0
2446	7.00873e+02	2.44600e+03	-0.0130622	700.0
2448	7.00884e+02	2.44800e+03	-0.0130228	700.0
2450	7.00878e+02	2.45000e+03	-0.0130117	700.0
2452	7.00883e+02	2.45200e+03	-0.0130384	700.0
2454	7.00878e+02	2.45400e+03	-0.0130738	700.0
2456	7.00885e+02	2.45600e+03	-0.0131199	700.0
2458	7.00866e+02	2.45800e+03	-0.0131648	700.0
2460	7.00879e+02	2.46000e+03	-0.0132068	700.0
2462	7.00873e+02	2.46200e+03	-0.0132459	700.0
2464	7.00878e+02	2.46400e+03	-0.0132806	700.0
2466	7.00878e+02	2.46600e+03	-0.0133129	700.0
2468	7.00879e+02	2.46800e+03	-0.0133369	700.0
2470	7.00882e+02	2.47000e+03	-0.013347	700.0
2472	7.00878e+02	2.47200e+03	-0.0133241	700.0
2474	7.00879e+02	2.47400e+03	-0.0132774	700.0
2476	7.00884e+02	2.47600e+03	-0.0131969	700.0
2478	7.00870e+02	2.47800e+03	-0.0131264	700.0
2480	7.00878e+02	2.48000e+03	-0.0130796	700.0
2482	7.00872e+02	2.48200e+03	-0.0130717	700.0
2484	7.00880e+02	2.48400e+03	-0.01311	700.0
2486	7.00872e+02	2.48600e+03	-0.0131422	700.0
2488	7.00872e+02	2.48800e+03	-0.013154	700.0
2490	7.00864e+02	2.49000e+03	-0.0131463	700.0
2492	7.00870e+02	2.49200e+03	-0.0131189	700.0
2494	7.00872e+02	2.49400e+03	-0.013102	700.0
2496	7.00866e+02	2.49600e+03	-0.0131043	700.0
2498	7.00878e+02	2.49800e+03	-0.0131136	700.0
2500	7.00867e+02	2.50000e+03	-0.0131241	700.0
2502	7.00873e+02	2.50200e+03	-0.0131213	700.0
2504	7.00863e+02	2.50400e+03	-0.0130998	700.0
2506	7.00868e+02	2.50600e+03	-0.0130769	700.0
2508	7.00863e+02	2.50800e+03	-0.0130587	700.0
2510	7.00868e+02	2.51000e+03	-0.0130531	700.0
2512	7.00863e+02	2.51200e+03	-0.0130627	700.0
2514	7.00863e+02	2.51400e+03	-0.0130721	700.0
2516	7.00865e+02	2.51600e+03	-0.0130899	700.0
2518	7.00862e+02	2.51800e+03	-0.0131154	700.0
2520	7.00860e+02	2.52000e+03	-0.0131448	700.0
2522	7.00867e+02	2.52200e+03	-0.0131728	700.0
2524	7.00864e+02	2.52400e+03	-0.0131988	700.0
2526	7.00869e+02	2.52600e+03	-0.013219	700.0
2528	7.00861e+02	2.52800e+03	-0.0132197	700.0
2530	7.00872e+02	2.53000e+03	-0.0131881	700.0
2532	7.00865e+02	2.53200e+03	-0.0131289	700.0
2534	7.00865e+02	2.53400e+03	-0.0130868	700.0
2536	7.00863e+02	2.53600e+03	-0.0130696	700.0
2538	7.00877e+02	2.53800e+03	-0.0130644	700.0
2540	7.00860e+02	2.54000e+03	-0.013077	700.0
2542	7.00865e+02	2.54200e+03	-0.0130936	700.0
2544	7.00864e+02	2.54400e+03	-0.0131159	700.0
2546	7.00864e+02	2.54600e+03	-0.0131404	700.0
2548	7.00869e+02	2.54800e+03	-0.0131713	700.0
2550	7.00868e+02	2.55000e+03	-0.0132068	700.0
2552	7.00858e+02	2.55200e+03	-0.0132389	700.0
2554	7.00857e+02	2.55400e+03	-0.0132552	700.0
2556	7.00869e+02	2.55600e+03	-0.0132506	700.0
2558	7.00855e+02	2.55800e+03	-0.0132437	700.0
2560	7.00859e+02	2.56000e+03	-0.013229	700.0
2562	7.00859e+02	2.56200e+03	-0.013208	700.0
2564	7.00860e+02	2.56400e+03	-0.0131864	700.0
2566	7.00865e+02	2.56600e+03	-0.0131917	700.0
2568	7.00860e+02	2.56800e+03	-0.0132318	700.0
2570	7.00855e+02	2.57000e+03	-0.0132643	700.0
2572	7.00855e+02	2.57200e+03	-0.0132862	700.0
2574	7.00859e+02	2.57400e+03	-0.0132971	700.0
2576	7.00865e+02	2.57600e+03	-0.0132857	700.0
2578	7.00863e+02	2.57800e+03	-0.0132574	700.0
2580	7.00858e+02	2.58000e+03	-0.0132193	700.0
2582	7.00863e+02	2.58200e+03	-0.0132094	700.0
2584	7.00851e+02	2.58400e+03	-0.0132388	700.0
2586	7.00858e+02	2.58600e+03	-0.0132668	700.0
2588	7.00865e+02	2.58800e+03	-0.0132829	700.0
2590	7.00852e+02	2.59000e+03	-0.0132863	700.0
2592	7.00863e+02	2.59200e+03	-0.0132771	700.0
2594	7.00857e+02	2.59400e+03	-0.0132763	700.0
2596	7.00855e+02	2.59600e+03	-0.013279	700.0
2598	7.00854e+02	2.59800e+03	-0.0132817	700.0
2600	7.00856e+02	2.60000e+03	-0.0132956	700.0
2602	7.00859e+02	2.60200e+03	-0.0133177	700.0
2604	7.00859e+02	2.60400e+03	-0.0133377	700.0
2606	7.00856e+02	2.60600e+03	-0.0133382	700.0
2608	7.00855e+02	2.60800e+03	-0.0133175	700.0
2610	7.00856e+02	2.61000e+03	-0.0133015	700.0
2612	7.00856e+02	2.61200e+03	-0.0132815	700.0
2614	7.00850e+02	2.61400e+03	-0.0132581	700.0
2616	7.00850e+02	2.61600e+03	-0.0132414	700.0
2618	7.00858e+02	2.61800e+03	-0.0132574	700.0
2620	7.00848e+02	2.62000e+03	-0.0133075	700.0
2622	7.00850e+02	2.62200e+03	-0.0133522	700.0
2624	7.00856e+02	2.62400e+03	-0.0133847	700.0
2626	7.00854e+02	2.62600e+03	-0.0134025	700.0
2628	7.00859e+02	2.62800e+03	-0.0134002	700.0
2630	7.00852e+02	2.63000e+03	-0.0133926	700.0
2632	7.00845e+02	2.63200e+03	-0.0133765	700.0
2634	7.00852e+02	2.63400e+03	-0.0133573	700.0
2636	7.00862e+02	2.63600e+03	-0.0133357	700.0
2638	7.00846e+02	2.63800e+03	-0.0133181	700.0
2640	7.00856e+02	2.64000e+03	-0.0133068	700.0
2642	7.00846e+02	2.64200e+03	-0.0132941	700.0
2644	7.00852e+02	2.64400e+03	-0.0132686	700.0
2646	7.00846e+02	2.64600e+03	-0.0132247	700.0
2648	7.00851e+02	2.64800e+03	-0.0131629	700.0
2650	7.00859e+02	2.65000e+03	-0.0131159	700.0
2652	7.00854e+02	2.65200e+03	-0.0130945	700.0
2654	7.00851e+02	2.65400e+03	-0.0130794	700.0
2656	7.00847e+02	2.65600e+03	-0.0130778	700.0
2658	7.00851e+02	2.65800e+03	-0.0130811	700.0
2660	7.00849e+02	2.66000e+03	-0.0130922	700.0
2662	7.00845e+02	2.66200e+03	-0.0131091	700.0
2664	7.00848e+02	2.66400e+03	-0.0131341	700.0
2666	7.00848e+02	2.66600e+03	-0.0131604	700.0
2668	7.00849e+02	2.66800e+03	-0.0131889	700.0
2670	7.00842e+02	2.67000e+03	-0.0132104	700.0
2672	7.00850e+02	2.67200e+03	-0.0132138	700.0
2674	7.00849e+02	2.67400e+03	-0.0132106	700.0
2676	7.00848e+02	2.67600e+03	-0.0132024	700.0
2678	7.00849e+02	2.67800e+03	-0.0132007	700.0
2680	7.00858e+02	2.68000e+03	-0.013194	700.0
2682	7.00847e+02	2.68200e+03	-0.0131707	700.0
2684	7.00850e+02	2.68400e+03	-0.0131304	700.0
2686	7.00841e+02	2.68600e+03	-0.0130993	700.0
2688	7.00858e+02	2.68800e+03	-0.0130833	700.0
2690	7.00847e+02	2.69000e+03	-0.0130766	700.0
2692	7.00846e+02	2.69200e+03	-0.0130926	700.0
2694	7.00844e+02	2.69400e+03	-0.0131177	700.0
2696	7.00851e+02	2.69600e+03	-0.0131524	700.0
2698	7.00851e+02	2.69800e+03	-0.0131738	700.0
2700	7.00848e+02	2.70000e+03	-0.0131728	700.0
2702	7.00852e+02	2.70200e+03	-0.0131633	700.0
2704	7.00852e+02	2.70400e+03	-0.0131425	700.0
2706	7.00845e+02	2.70600e+03	-0.0131214	700.0
2708	7.00849e+02	2.70800e+03	-0.0131115	700.0
2710	7.00847e+02	2.71000e+03	-0.0131042	700.0
2712	7.00845e+02	2.71200e+03	-0.0131049	700.0
2714	7.00842e+02	2.71400e+03	-0.0131221	700.0
2716	7.00851e+02	2.71600e+03	-0.0131556	700.0
2718	7.00846e+02	2.71800e+03	-0.0131929	700.0
2720	7.00859e+02	2.72000e+03	-0.0132339	700.0