File: Experiments/TUBS/tga_nonisotherm/tga_dynamic_n2_dyn45_powder_3mg_r1.txt
index	ts	t	weight	tr
[#]	[°C]	[s]	[mg]	[°C]
657	1.32638e+02	6.57000e+02	2.97862e+00	1.32752e+02
658	1.33415e+02	6.58000e+02	2.97862e+00	1.33502e+02
659	1.34188e+02	6.59000e+02	2.97861e+00	1.34252e+02
660	1.34965e+02	6.60000e+02	2.97854e+00	1.35002e+02
661	1.35742e+02	6.61000e+02	2.97847e+00	1.35752e+02
662	1.36519e+02	6.62000e+02	2.97839e+00	1.36502e+02
663	1.37301e+02	6.63000e+02	2.97830e+00	1.37252e+02
664	1.38085e+02	6.64000e+02	2.97814e+00	1.38002e+02
665	1.38862e+02	6.65000e+02	2.97801e+00	1.38752e+02
666	1.39630e+02	6.66000e+02	2.97789e+00	1.39502e+02
667	1.40417e+02	6.67000e+02	2.97777e+00	1.40252e+02
668	1.41189e+02	6.68000e+02	2.97764e+00	1.41002e+02
669	1.41961e+02	6.69000e+02	2.97752e+00	1.41752e+02
670	1.42725e+02	6.70000e+02	2.97740e+00	1.42502e+02
671	1.43493e+02	6.71000e+02	2.97728e+00	1.43252e+02
672	1.44274e+02	6.72000e+02	2.97715e+00	1.44002e+02
673	1.45033e+02	6.73000e+02	2.97700e+00	1.44752e+02
674	1.45794e+02	6.74000e+02	2.97683e+00	1.45502e+02
675	1.46587e+02	6.75000e+02	2.97665e+00	1.46252e+02
676	1.47369e+02	6.76000e+02	2.97642e+00	1.47002e+02
677	1.48172e+02	6.77000e+02	2.97621e+00	1.47752e+02
678	1.48934e+02	6.78000e+02	2.97601e+00	1.48502e+02
679	1.49693e+02	6.79000e+02	2.97581e+00	1.49252e+02
680	1.50483e+02	6.80000e+02	2.97561e+00	1.50002e+02
681	1.51265e+02	6.81000e+02	2.97542e+00	1.50752e+02
682	1.52035e+02	6.82000e+02	2.97524e+00	1.51503e+02
683	1.52802e+02	6.83000e+02	2.97506e+00	1.52253e+02
684	1.53583e+02	6.84000e+02	2.97491e+00	1.53003e+02
685	1.54356e+02	6.85000e+02	2.97474e+00	1.53753e+02
686	1.55136e+02	6.86000e+02	2.97456e+00	1.54503e+02
687	1.55891e+02	6.87000e+02	2.97438e+00	1.55253e+02
688	1.56662e+02	6.88000e+02	2.97419e+00	1.56003e+02
689	1.57445e+02	6.89000e+02	2.97399e+00	1.56753e+02
690	1.58213e+02	6.90000e+02	2.97379e+00	1.57503e+02
691	1.58975e+02	6.91000e+02	2.97357e+00	1.58253e+02
692	1.59755e+02	6.92000e+02	2.97333e+00	1.59003e+02
693	1.60530e+02	6.93000e+02	2.97309e+00	1.59753e+02
694	1.61302e+02	6.94000e+02	2.97283e+00	1.60503e+02
695	1.62055e+02	6.95000e+02	2.97256e+00	1.61253e+02
696	1.62821e+02	6.96000e+02	2.97223e+00	1.62003e+02
697	1.63581e+02	6.97000e+02	2.97190e+00	1.62753e+02
698	1.64368e+02	6.98000e+02	2.97156e+00	1.63503e+02
699	1.65136e+02	6.99000e+02	2.97120e+00	1.64253e+02
700	1.65889e+02	7.00000e+02	2.97077e+00	1.65003e+02
701	1.66654e+02	7.01000e+02	2.97037e+00	1.65753e+02
702	1.67423e+02	7.02000e+02	2.96996e+00	1.66503e+02
703	1.68188e+02	7.03000e+02	2.96955e+00	1.67253e+02
704	1.68969e+02	7.04000e+02	2.96910e+00	1.68003e+02
705	1.69725e+02	7.05000e+02	2.96866e+00	1.68753e+02
706	1.70490e+02	7.06000e+02	2.96821e+00	1.69503e+02
707	1.71266e+02	7.07000e+02	2.96776e+00	1.70253e+02
708	1.72033e+02	7.08000e+02	2.96728e+00	1.71003e+02
709	1.72811e+02	7.09000e+02	2.96681e+00	1.71753e+02
710	1.73584e+02	7.10000e+02	2.96635e+00	1.72503e+02
711	1.74345e+02	7.11000e+02	2.96588e+00	1.73253e+02
712	1.75113e+02	7.12000e+02	2.96538e+00	1.74003e+02
713	1.75894e+02	7.13000e+02	2.96488e+00	1.74753e+02
714	1.76659e+02	7.14000e+02	2.96435e+00	1.75503e+02
715	1.77420e+02	7.15000e+02	2.96381e+00	1.76254e+02
716	1.78184e+02	7.16000e+02	2.96319e+00	1.77004e+02
717	1.78961e+02	7.17000e+02	2.96255e+00	1.77754e+02
718	1.79735e+02	7.18000e+02	2.96187e+00	1.78504e+02
719	1.80495e+02	7.19000e+02	2.96116e+00	1.79254e+02
720	1.81262e+02	7.20000e+02	2.96030e+00	1.80004e+02
721	1.82049e+02	7.21000e+02	2.95944e+00	1.80754e+02
722	1.82798e+02	7.22000e+02	2.95855e+00	1.81504e+02
723	1.83575e+02	7.23000e+02	2.95761e+00	1.82254e+02
724	1.84342e+02	7.24000e+02	2.95649e+00	1.83004e+02
725	1.85114e+02	7.25000e+02	2.95537e+00	1.83754e+02
726	1.85874e+02	7.26000e+02	2.95421e+00	1.84504e+02
727	1.86638e+02	7.27000e+02	2.95299e+00	1.85254e+02
728	1.87407e+02	7.28000e+02	2.95155e+00	1.86004e+02
729	1.88183e+02	7.29000e+02	2.95013e+00	1.86754e+02
730	1.88946e+02	7.30000e+02	2.94868e+00	1.87504e+02
731	1.89724e+02	7.31000e+02	2.94720e+00	1.88254e+02
732	1.90490e+02	7.32000e+02	2.94551e+00	1.89004e+02
733	1.91264e+02	7.33000e+02	2.94389e+00	1.89754e+02
734	1.92019e+02	7.34000e+02	2.94225e+00	1.90504e+02
735	1.92801e+02	7.35000e+02	2.94058e+00	1.91254e+02
736	1.93570e+02	7.36000e+02	2.93878e+00	1.92004e+02
737	1.94336e+02	7.37000e+02	2.93700e+00	1.92754e+02
738	1.95098e+02	7.38000e+02	2.93517e+00	1.93504e+02
739	1.95875e+02	7.39000e+02	2.93332e+00	1.94254e+02
740	1.96643e+02	7.40000e+02	2.93132e+00	1.95004e+02
741	1.97406e+02	7.41000e+02	2.92934e+00	1.95754e+02
742	1.98180e+02	7.42000e+02	2.92734e+00	1.96504e+02
743	1.98947e+02	7.43000e+02	2.92532e+00	1.97254e+02
744	1.99720e+02	7.44000e+02	2.92316e+00	1.98004e+02
745	2.00477e+02	7.45000e+02	2.92102e+00	1.98754e+02
746	2.01255e+02	7.46000e+02	2.91885e+00	1.99504e+02
747	2.02012e+02	7.47000e+02	2.91665e+00	2.00255e+02
748	2.02780e+02	7.48000e+02	2.91434e+00	2.01005e+02
749	2.03555e+02	7.49000e+02	2.91206e+00	2.01755e+02
750	2.04322e+02	7.50000e+02	2.90979e+00	2.02505e+02
751	2.05087e+02	7.51000e+02	2.90752e+00	2.03255e+02
752	2.05850e+02	7.52000e+02	2.90524e+00	2.04005e+02
753	2.06632e+02	7.53000e+02	2.90302e+00	2.04755e+02
754	2.07404e+02	7.54000e+02	2.90086e+00	2.05505e+02
755	2.08176e+02	7.55000e+02	2.89874e+00	2.06255e+02
756	2.08945e+02	7.56000e+02	2.89680e+00	2.07005e+02
757	2.09723e+02	7.57000e+02	2.89485e+00	2.07755e+02
758	2.10490e+02	7.58000e+02	2.89296e+00	2.08505e+02
759	2.11270e+02	7.59000e+02	2.89111e+00	2.09255e+02
760	2.12048e+02	7.60000e+02	2.88950e+00	2.10005e+02
761	2.12802e+02	7.61000e+02	2.88785e+00	2.10755e+02
762	2.13586e+02	7.62000e+02	2.88627e+00	2.11505e+02
763	2.14345e+02	7.63000e+02	2.88473e+00	2.12255e+02
764	2.15125e+02	7.64000e+02	2.88346e+00	2.13005e+02
765	2.15903e+02	7.65000e+02	2.88217e+00	2.13755e+02
766	2.16686e+02	7.66000e+02	2.88095e+00	2.14505e+02
767	2.17438e+02	7.67000e+02	2.87978e+00	2.15255e+02
768	2.18199e+02	7.68000e+02	2.87891e+00	2.16005e+02
769	2.18971e+02	7.69000e+02	2.87798e+00	2.16755e+02
770	2.19747e+02	7.70000e+02	2.87708e+00	2.17505e+02
771	2.20513e+02	7.71000e+02	2.87621e+00	2.18255e+02
772	2.21277e+02	7.72000e+02	2.87552e+00	2.19005e+02
773	2.22036e+02	7.73000e+02	2.87475e+00	2.19755e+02
774	2.22813e+02	7.74000e+02	2.87398e+00	2.20505e+02
775	2.23576e+02	7.75000e+02	2.87322e+00	2.21255e+02
776	2.24352e+02	7.76000e+02	2.87250e+00	2.22005e+02
777	2.25123e+02	7.77000e+02	2.87177e+00	2.22755e+02
778	2.25886e+02	7.78000e+02	2.87105e+00	2.23505e+02
779	2.26658e+02	7.79000e+02	2.87034e+00	2.24255e+02
780	2.27425e+02	7.80000e+02	2.86969e+00	2.25006e+02
781	2.28189e+02	7.81000e+02	2.86904e+00	2.25756e+02
782	2.28972e+02	7.82000e+02	2.86842e+00	2.26506e+02
783	2.29736e+02	7.83000e+02	2.86781e+00	2.27256e+02
784	2.30500e+02	7.84000e+02	2.86729e+00	2.28006e+02
785	2.31261e+02	7.85000e+02	2.86674e+00	2.28756e+02
786	2.32040e+02	7.86000e+02	2.86620e+00	2.29506e+02
787	2.32806e+02	7.87000e+02	2.86566e+00	2.30256e+02
788	2.33581e+02	7.88000e+02	2.86515e+00	2.31006e+02
789	2.34352e+02	7.89000e+02	2.86461e+00	2.31756e+02
790	2.35084e+02	7.90000e+02	2.86407e+00	2.32506e+02
791	2.35849e+02	7.91000e+02	2.86352e+00	2.33256e+02
792	2.36599e+02	7.92000e+02	2.86295e+00	2.34006e+02
793	2.37372e+02	7.93000e+02	2.86238e+00	2.34756e+02
794	2.38138e+02	7.94000e+02	2.86181e+00	2.35506e+02
795	2.38899e+02	7.95000e+02	2.86124e+00	2.36256e+02
796	2.39670e+02	7.96000e+02	2.86067e+00	2.37006e+02
797	2.40429e+02	7.97000e+02	2.86011e+00	2.37756e+02
798	2.41196e+02	7.98000e+02	2.85957e+00	2.38506e+02
799	2.41973e+02	7.99000e+02	2.85905e+00	2.39256e+02
800	2.42758e+02	8.00000e+02	2.85856e+00	2.40006e+02
801	2.43518e+02	8.01000e+02	2.85806e+00	2.40756e+02
802	2.44295e+02	8.02000e+02	2.85757e+00	2.41506e+02
803	2.45066e+02	8.03000e+02	2.85708e+00	2.42256e+02
804	2.45823e+02	8.04000e+02	2.85660e+00	2.43006e+02
805	2.46600e+02	8.05000e+02	2.85610e+00	2.43756e+02
806	2.47380e+02	8.06000e+02	2.85560e+00	2.44506e+02
807	2.48146e+02	8.07000e+02	2.85509e+00	2.45256e+02
808	2.48912e+02	8.08000e+02	2.85455e+00	2.46006e+02
809	2.49685e+02	8.09000e+02	2.85402e+00	2.46756e+02
810	2.50456e+02	8.10000e+02	2.85349e+00	2.47506e+02
811	2.51227e+02	8.11000e+02	2.85295e+00	2.48256e+02
812	2.51997e+02	8.12000e+02	2.85240e+00	2.49007e+02
813	2.52768e+02	8.13000e+02	2.85185e+00	2.49757e+02
814	2.53541e+02	8.14000e+02	2.85131e+00	2.50507e+02
815	2.54299e+02	8.15000e+02	2.85076e+00	2.51257e+02
816	2.55059e+02	8.16000e+02	2.85023e+00	2.52007e+02
817	2.55820e+02	8.17000e+02	2.84970e+00	2.52757e+02
818	2.56585e+02	8.18000e+02	2.84919e+00	2.53507e+02
819	2.57353e+02	8.19000e+02	2.84869e+00	2.54257e+02
820	2.58117e+02	8.20000e+02	2.84825e+00	2.55007e+02
821	2.58889e+02	8.21000e+02	2.84780e+00	2.55757e+02
822	2.59665e+02	8.22000e+02	2.84736e+00	2.56507e+02
823	2.60426e+02	8.23000e+02	2.84693e+00	2.57257e+02
824	2.61196e+02	8.24000e+02	2.84656e+00	2.58007e+02
825	2.61982e+02	8.25000e+02	2.84617e+00	2.58757e+02
826	2.62756e+02	8.26000e+02	2.84579e+00	2.59507e+02
827	2.63533e+02	8.27000e+02	2.84542e+00	2.60257e+02
828	2.64310e+02	8.28000e+02	2.84509e+00	2.61007e+02
829	2.65085e+02	8.29000e+02	2.84475e+00	2.61757e+02
830	2.65857e+02	8.30000e+02	2.84442e+00	2.62507e+02
831	2.66637e+02	8.31000e+02	2.84408e+00	2.63257e+02
832	2.67414e+02	8.32000e+02	2.84375e+00	2.64007e+02
833	2.68195e+02	8.33000e+02	2.84338e+00	2.64757e+02
834	2.68962e+02	8.34000e+02	2.84297e+00	2.65507e+02
835	2.69728e+02	8.35000e+02	2.84253e+00	2.66257e+02
836	2.70501e+02	8.36000e+02	2.84198e+00	2.67007e+02
837	2.71274e+02	8.37000e+02	2.84143e+00	2.67757e+02
838	2.72043e+02	8.38000e+02	2.84087e+00	2.68507e+02
839	2.72818e+02	8.39000e+02	2.84030e+00	2.69257e+02
840	2.73592e+02	8.40000e+02	2.83964e+00	2.70007e+02
841	2.74365e+02	8.41000e+02	2.83906e+00	2.70757e+02
842	2.75143e+02	8.42000e+02	2.83851e+00	2.71507e+02
843	2.75908e+02	8.43000e+02	2.83798e+00	2.72257e+02
844	2.76668e+02	8.44000e+02	2.83754e+00	2.73007e+02
845	2.77435e+02	8.45000e+02	2.83708e+00	2.73758e+02
846	2.78221e+02	8.46000e+02	2.83664e+00	2.74508e+02
847	2.78998e+02	8.47000e+02	2.83621e+00	2.75258e+02
848	2.79767e+02	8.48000e+02	2.83584e+00	2.76008e+02
849	2.80547e+02	8.49000e+02	2.83544e+00	2.76758e+02
850	2.81331e+02	8.50000e+02	2.83502e+00	2.77508e+02
851	2.82109e+02	8.51000e+02	2.83458e+00	2.78258e+02
852	2.82901e+02	8.52000e+02	2.83409e+00	2.79008e+02
853	2.83674e+02	8.53000e+02	2.83357e+00	2.79758e+02
854	2.84443e+02	8.54000e+02	2.83301e+00	2.80508e+02
855	2.85205e+02	8.55000e+02	2.83241e+00	2.81258e+02
856	2.85977e+02	8.56000e+02	2.83164e+00	2.82008e+02
857	2.86746e+02	8.57000e+02	2.83090e+00	2.82758e+02
858	2.87520e+02	8.58000e+02	2.83013e+00	2.83508e+02
859	2.88263e+02	8.59000e+02	2.82933e+00	2.84258e+02
860	2.89041e+02	8.60000e+02	2.82839e+00	2.85008e+02
861	2.89802e+02	8.61000e+02	2.82750e+00	2.85758e+02
862	2.90565e+02	8.62000e+02	2.82659e+00	2.86508e+02
863	2.91322e+02	8.63000e+02	2.82565e+00	2.87258e+02
864	2.92102e+02	8.64000e+02	2.82459e+00	2.88008e+02
865	2.92864e+02	8.65000e+02	2.82352e+00	2.88758e+02
866	2.93633e+02	8.66000e+02	2.82242e+00	2.89508e+02
867	2.94386e+02	8.67000e+02	2.82128e+00	2.90258e+02
868	2.95158e+02	8.68000e+02	2.81997e+00	2.91008e+02
869	2.95931e+02	8.69000e+02	2.81870e+00	2.91758e+02
870	2.96687e+02	8.70000e+02	2.81741e+00	2.92508e+02
871	2.97457e+02	8.71000e+02	2.81608e+00	2.93258e+02
872	2.98218e+02	8.72000e+02	2.81463e+00	2.94008e+02
873	2.98987e+02	8.73000e+02	2.81318e+00	2.94758e+02
874	2.99751e+02	8.74000e+02	2.81170e+00	2.95508e+02
875	3.00515e+02	8.75000e+02	2.81019e+00	2.96258e+02
876	3.01272e+02	8.76000e+02	2.80853e+00	2.97008e+02
877	3.02037e+02	8.77000e+02	2.80690e+00	2.97759e+02
878	3.02806e+02	8.78000e+02	2.80524e+00	2.98509e+02
879	3.03557e+02	8.79000e+02	2.80354e+00	2.99259e+02
880	3.04305e+02	8.80000e+02	2.80169e+00	3.00009e+02
881	3.05062e+02	8.81000e+02	2.79984e+00	3.00759e+02
882	3.05806e+02	8.82000e+02	2.79794e+00	3.01509e+02
883	3.06569e+02	8.83000e+02	2.79598e+00	3.02259e+02
884	3.07328e+02	8.84000e+02	2.79378e+00	3.03009e+02
885	3.08074e+02	8.85000e+02	2.79158e+00	3.03759e+02
886	3.08836e+02	8.86000e+02	2.78930e+00	3.04509e+02
887	3.09586e+02	8.87000e+02	2.78696e+00	3.05259e+02
888	3.10342e+02	8.88000e+02	2.78432e+00	3.06009e+02
889	3.11071e+02	8.89000e+02	2.78174e+00	3.06759e+02
890	3.11823e+02	8.90000e+02	2.77913e+00	3.07509e+02
891	3.12570e+02	8.91000e+02	2.77647e+00	3.08259e+02
892	3.13307e+02	8.92000e+02	2.77360e+00	3.09009e+02
893	3.14048e+02	8.93000e+02	2.77077e+00	3.09759e+02
894	3.14769e+02	8.94000e+02	2.76790e+00	3.10509e+02
895	3.15500e+02	8.95000e+02	2.76498e+00	3.11259e+02
896	3.16228e+02	8.96000e+02	2.76186e+00	3.12009e+02
897	3.16949e+02	8.97000e+02	2.75875e+00	3.12759e+02
898	3.17683e+02	8.98000e+02	2.75560e+00	3.13509e+02
899	3.18405e+02	8.99000e+02	2.75241e+00	3.14259e+02
900	3.19130e+02	9.00000e+02	2.74904e+00	3.15009e+02
901	3.19855e+02	9.01000e+02	2.74574e+00	3.15759e+02
902	3.20577e+02	9.02000e+02	2.74243e+00	3.16509e+02
903	3.21313e+02	9.03000e+02	2.73911e+00	3.17259e+02
904	3.22056e+02	9.04000e+02	2.73570e+00	3.18009e+02
905	3.22795e+02	9.05000e+02	2.73230e+00	3.18759e+02
906	3.23534e+02	9.06000e+02	2.72888e+00	3.19509e+02
907	3.24282e+02	9.07000e+02	2.72545e+00	3.20259e+02
908	3.25029e+02	9.08000e+02	2.72195e+00	3.21009e+02
909	3.25763e+02	9.09000e+02	2.71846e+00	3.21759e+02
910	3.26521e+02	9.10000e+02	2.71497e+00	3.22510e+02
911	3.27266e+02	9.11000e+02	2.71146e+00	3.23260e+02
912	3.28017e+02	9.12000e+02	2.70788e+00	3.24010e+02
913	3.28769e+02	9.13000e+02	2.70426e+00	3.24760e+02
914	3.29528e+02	9.14000e+02	2.70060e+00	3.25510e+02
915	3.30279e+02	9.15000e+02	2.69689e+00	3.26260e+02
916	3.31026e+02	9.16000e+02	2.69298e+00	3.27010e+02
917	3.31789e+02	9.17000e+02	2.68907e+00	3.27760e+02
918	3.32543e+02	9.18000e+02	2.68510e+00	3.28510e+02
919	3.33308e+02	9.19000e+02	2.68108e+00	3.29260e+02
920	3.34057e+02	9.20000e+02	2.67678e+00	3.30010e+02
921	3.34813e+02	9.21000e+02	2.67250e+00	3.30760e+02
922	3.35592e+02	9.22000e+02	2.66813e+00	3.31510e+02
923	3.36361e+02	9.23000e+02	2.66368e+00	3.32260e+02
924	3.37130e+02	9.24000e+02	2.65882e+00	3.33010e+02
925	3.37905e+02	9.25000e+02	2.65395e+00	3.33760e+02
926	3.38667e+02	9.26000e+02	2.64893e+00	3.34510e+02
927	3.39423e+02	9.27000e+02	2.64378e+00	3.35260e+02
928	3.40175e+02	9.28000e+02	2.63799e+00	3.36010e+02
929	3.40932e+02	9.29000e+02	2.63225e+00	3.36760e+02
930	3.41696e+02	9.30000e+02	2.62638e+00	3.37510e+02
931	3.42449e+02	9.31000e+02	2.62038e+00	3.38260e+02
932	3.43215e+02	9.32000e+02	2.61369e+00	3.39010e+02
933	3.43975e+02	9.33000e+02	2.60710e+00	3.39760e+02
934	3.44743e+02	9.34000e+02	2.60035e+00	3.40510e+02
935	3.45499e+02	9.35000e+02	2.59343e+00	3.41260e+02
936	3.46265e+02	9.36000e+02	2.58575e+00	3.42010e+02
937	3.47009e+02	9.37000e+02	2.57807e+00	3.42760e+02
938	3.47765e+02	9.38000e+02	2.57014e+00	3.43510e+02
939	3.48517e+02	9.39000e+02	2.56200e+00	3.44260e+02
940	3.49281e+02	9.40000e+02	2.55280e+00	3.45010e+02
941	3.50049e+02	9.41000e+02	2.54369e+00	3.45760e+02
942	3.50794e+02	9.42000e+02	2.53432e+00	3.46510e+02
943	3.51536e+02	9.43000e+02	2.52471e+00	3.47261e+02
944	3.52287e+02	9.44000e+02	2.51389e+00	3.48011e+02
945	3.53016e+02	9.45000e+02	2.50321e+00	3.48761e+02
946	3.53760e+02	9.46000e+02	2.49225e+00	3.49511e+02
947	3.54507e+02	9.47000e+02	2.48103e+00	3.50261e+02
948	3.55242e+02	9.48000e+02	2.46853e+00	3.51011e+02
949	3.55996e+02	9.49000e+02	2.45618e+00	3.51761e+02
950	3.56740e+02	9.50000e+02	2.44353e+00	3.52511e+02
951	3.57491e+02	9.51000e+02	2.43061e+00	3.53261e+02
952	3.58253e+02	9.52000e+02	2.41629e+00	3.54011e+02
953	3.59002e+02	9.53000e+02	2.40212e+00	3.54761e+02
954	3.59766e+02	9.54000e+02	2.38759e+00	3.55511e+02
955	3.60522e+02	9.55000e+02	2.37274e+00	3.56261e+02
956	3.61287e+02	9.56000e+02	2.35628e+00	3.57011e+02
957	3.62024e+02	9.57000e+02	2.33996e+00	3.57761e+02
958	3.62764e+02	9.58000e+02	2.32323e+00	3.58511e+02
959	3.63505e+02	9.59000e+02	2.30614e+00	3.59261e+02
960	3.64253e+02	9.60000e+02	2.28721e+00	3.60011e+02
961	3.64988e+02	9.61000e+02	2.26852e+00	3.60761e+02
962	3.65736e+02	9.62000e+02	2.24945e+00	3.61511e+02
963	3.66483e+02	9.63000e+02	2.23002e+00	3.62261e+02
964	3.67211e+02	9.64000e+02	2.20879e+00	3.63011e+02
965	3.67934e+02	9.65000e+02	2.18788e+00	3.63761e+02
966	3.68688e+02	9.66000e+02	2.16665e+00	3.64511e+02
967	3.69428e+02	9.67000e+02	2.14513e+00	3.65261e+02
968	3.70179e+02	9.68000e+02	2.12206e+00	3.66011e+02
969	3.70915e+02	9.69000e+02	2.09925e+00	3.66761e+02
970	3.71643e+02	9.70000e+02	2.07616e+00	3.67511e+02
971	3.72378e+02	9.71000e+02	2.05280e+00	3.68261e+02
972	3.73114e+02	9.72000e+02	2.02805e+00	3.69011e+02
973	3.73845e+02	9.73000e+02	2.00347e+00	3.69761e+02
974	3.74584e+02	9.74000e+02	1.97862e+00	3.70511e+02
975	3.75325e+02	9.75000e+02	1.95350e+00	3.71262e+02
976	3.76069e+02	9.76000e+02	1.92703e+00	3.72012e+02
977	3.76808e+02	9.77000e+02	1.90077e+00	3.72762e+02
978	3.77528e+02	9.78000e+02	1.87425e+00	3.73512e+02
979	3.78274e+02	9.79000e+02	1.84747e+00	3.74262e+02
980	3.79026e+02	9.80000e+02	1.81939e+00	3.75012e+02
981	3.79767e+02	9.81000e+02	1.79146e+00	3.75762e+02
982	3.80498e+02	9.82000e+02	1.76322e+00	3.76512e+02
983	3.81241e+02	9.83000e+02	1.73473e+00	3.77262e+02
984	3.81990e+02	9.84000e+02	1.70491e+00	3.78012e+02
985	3.82720e+02	9.85000e+02	1.67531e+00	3.78762e+02
986	3.83480e+02	9.86000e+02	1.64548e+00	3.79512e+02
987	3.84217e+02	9.87000e+02	1.61543e+00	3.80262e+02
988	3.84953e+02	9.88000e+02	1.58422e+00	3.81012e+02
989	3.85687e+02	9.89000e+02	1.55323e+00	3.81762e+02
990	3.86435e+02	9.90000e+02	1.52204e+00	3.82512e+02
991	3.87169e+02	9.91000e+02	1.49068e+00	3.83262e+02
992	3.87907e+02	9.92000e+02	1.45847e+00	3.84012e+02
993	3.88644e+02	9.93000e+02	1.42648e+00	3.84762e+02
994	3.89372e+02	9.94000e+02	1.39444e+00	3.85512e+02
995	3.90112e+02	9.95000e+02	1.36233e+00	3.86262e+02
996	3.90856e+02	9.96000e+02	1.32979e+00	3.87012e+02
997	3.91595e+02	9.97000e+02	1.29743e+00	3.87762e+02
998	3.92340e+02	9.98000e+02	1.26509e+00	3.88512e+02
999	3.93088e+02	9.99000e+02	1.23273e+00	3.89262e+02
1000	3.93823e+02	1.00000e+03	1.20036e+00	3.90012e+02
1001	3.94572e+02	1.00100e+03	1.16807e+00	3.90762e+02
1002	3.95297e+02	1.00200e+03	1.13586e+00	3.91512e+02
1003	3.96033e+02	1.00300e+03	1.10371e+00	3.92262e+02
1004	3.96791e+02	1.00400e+03	1.07180e+00	3.93012e+02
1005	3.97540e+02	1.00500e+03	1.03993e+00	3.93762e+02
1006	3.98289e+02	1.00600e+03	1.00817e+00	3.94512e+02
1007	3.99052e+02	1.00700e+03	9.76489e-01	3.95262e+02
1008	3.99789e+02	1.00800e+03	9.45270e-01	3.96013e+02
1009	4.00536e+02	1.00900e+03	9.14020e-01	3.96763e+02
1010	4.01293e+02	1.01000e+03	8.82899e-01	3.97513e+02
1011	4.02041e+02	1.01100e+03	8.51884e-01	3.98263e+02
1012	4.02792e+02	1.01200e+03	8.21432e-01	3.99013e+02
1013	4.03540e+02	1.01300e+03	7.90926e-01	3.99763e+02
1014	4.04288e+02	1.01400e+03	7.60581e-01	4.00513e+02
1015	4.05038e+02	1.01500e+03	7.30390e-01	4.01263e+02
1016	4.05798e+02	1.01600e+03	7.00954e-01	4.02013e+02
1017	4.06542e+02	1.01700e+03	6.71551e-01	4.02763e+02
1018	4.07309e+02	1.01800e+03	6.42460e-01	4.03513e+02
1019	4.08073e+02	1.01900e+03	6.13636e-01	4.04263e+02
1020	4.08833e+02	1.02000e+03	5.86130e-01	4.05013e+02
1021	4.09587e+02	1.02100e+03	5.58661e-01	4.05763e+02
1022	4.10345e+02	1.02200e+03	5.31654e-01	4.06513e+02
1023	4.11106e+02	1.02300e+03	5.05039e-01	4.07263e+02
1024	4.11861e+02	1.02400e+03	4.80434e-01	4.08013e+02
1025	4.12614e+02	1.02500e+03	4.55356e-01	4.08763e+02
1026	4.13387e+02	1.02600e+03	4.30741e-01	4.09513e+02
1027	4.14149e+02	1.02700e+03	4.07755e-01	4.10263e+02
1028	4.14904e+02	1.02800e+03	3.86039e-01	4.11013e+02
1029	4.15668e+02	1.02900e+03	3.63720e-01	4.11763e+02
1030	4.16432e+02	1.03000e+03	3.42535e-01	4.12513e+02
1031	4.17196e+02	1.03100e+03	3.21966e-01	4.13263e+02
1032	4.17962e+02	1.03200e+03	3.03851e-01	4.14013e+02
1033	4.18716e+02	1.03300e+03	2.85600e-01	4.14763e+02
1034	4.19479e+02	1.03400e+03	2.68267e-01	4.15513e+02
1035	4.20250e+02	1.03500e+03	2.52060e-01	4.16263e+02
1036	4.21008e+02	1.03600e+03	2.37002e-01	4.17013e+02
1037	4.21784e+02	1.03700e+03	2.21871e-01	4.17763e+02
1038	4.22559e+02	1.03800e+03	2.07266e-01	4.18513e+02
1039	4.23323e+02	1.03900e+03	1.93092e-01	4.19263e+02
1040	4.24073e+02	1.04000e+03	1.80964e-01	4.20014e+02
1041	4.24830e+02	1.04100e+03	1.68540e-01	4.20764e+02
1042	4.25569e+02	1.04200e+03	1.56526e-01	4.21514e+02
1043	4.26324e+02	1.04300e+03	1.44893e-01	4.22264e+02
1044	4.27072e+02	1.04400e+03	1.35239e-01	4.23014e+02
1045	4.27830e+02	1.04500e+03	1.25278e-01	4.23764e+02
1046	4.28571e+02	1.04600e+03	1.15697e-01	4.24514e+02
1047	4.29322e+02	1.04700e+03	1.06471e-01	4.25264e+02
1048	4.30072e+02	1.04800e+03	9.90660e-02	4.26014e+02
1049	4.30811e+02	1.04900e+03	9.13856e-02	4.26764e+02
1050	4.31552e+02	1.05000e+03	8.40539e-02	4.27514e+02
1051	4.32301e+02	1.05100e+03	7.70516e-02	4.28264e+02
1052	4.33061e+02	1.05200e+03	7.17456e-02	4.29014e+02
1053	4.33800e+02	1.05300e+03	6.61726e-02	4.29764e+02
1054	4.34546e+02	1.05400e+03	6.09027e-02	4.30514e+02
1055	4.35274e+02	1.05500e+03	5.59165e-02	4.31264e+02
1056	4.36024e+02	1.05600e+03	5.23788e-02	4.32014e+02
1057	4.36763e+02	1.05700e+03	4.85165e-02	4.32764e+02
1058	4.37501e+02	1.05800e+03	4.48222e-02	4.33514e+02
1059	4.38243e+02	1.05900e+03	4.13092e-02	4.34264e+02
1060	4.38998e+02	1.06000e+03	3.87895e-02	4.35014e+02
1061	4.39746e+02	1.06100e+03	3.60446e-02	4.35764e+02
1062	4.40488e+02	1.06200e+03	3.34400e-02	4.36514e+02
1063	4.41239e+02	1.06300e+03	3.09846e-02	4.37264e+02
1064	4.41963e+02	1.06400e+03	2.92485e-02	4.38014e+02
1065	4.42716e+02	1.06500e+03	2.74060e-02	4.38764e+02
1066	4.43456e+02	1.06600e+03	2.56853e-02	4.39514e+02
1067	4.44192e+02	1.06700e+03	2.40750e-02	4.40264e+02
1068	4.44930e+02	1.06800e+03	2.30536e-02	4.41014e+02
1069	4.45652e+02	1.06900e+03	2.18509e-02	4.41764e+02
1070	4.46384e+02	1.07000e+03	2.06719e-02	4.42514e+02
1071	4.47147e+02	1.07100e+03	1.95354e-02	4.43264e+02
1072	4.47877e+02	1.07200e+03	1.86475e-02	4.44014e+02
1073	4.48589e+02	1.07300e+03	1.76766e-02	4.44765e+02
1074	4.49318e+02	1.07400e+03	1.67357e-02	4.45515e+02
1075	4.50057e+02	1.07500e+03	1.58375e-02	4.46265e+02
1076	4.50774e+02	1.07600e+03	1.51118e-02	4.47015e+02
1077	4.51505e+02	1.07700e+03	1.44121e-02	4.47765e+02
1078	4.52240e+02	1.07800e+03	1.37721e-02	4.48515e+02
1079	4.52992e+02	1.07900e+03	1.31727e-02	4.49265e+02
1080	4.53719e+02	1.08000e+03	1.27928e-02	4.50015e+02
1081	4.54456e+02	1.08100e+03	1.23055e-02	4.50765e+02
1082	4.55186e+02	1.08200e+03	1.17949e-02	4.51515e+02
1083	4.55923e+02	1.08300e+03	1.12805e-02	4.52265e+02
1084	4.56669e+02	1.08400e+03	1.07836e-02	4.53015e+02
1085	4.57414e+02	1.08500e+03	1.02955e-02	4.53765e+02
1086	4.58153e+02	1.08600e+03	9.84470e-03	4.54515e+02
1087	4.58896e+02	1.08700e+03	9.42932e-03	4.55265e+02
1088	4.59628e+02	1.08800e+03	9.12958e-03	4.56015e+02
1089	4.60343e+02	1.08900e+03	8.88236e-03	4.56765e+02
1090	4.61093e+02	1.09000e+03	8.70154e-03	4.57515e+02
1091	4.61829e+02	1.09100e+03	8.56549e-03	4.58265e+02
1092	4.62554e+02	1.09200e+03	8.69216e-03	4.59015e+02
1093	4.63304e+02	1.09300e+03	8.73901e-03	4.59765e+02
1094	4.64057e+02	1.09400e+03	8.79911e-03	4.60515e+02
1095	4.64805e+02	1.09500e+03	8.87864e-03	4.61265e+02
1096	4.65530e+02	1.09600e+03	9.04868e-03	4.62015e+02
1097	4.66259e+02	1.09700e+03	9.14974e-03	4.62765e+02
1098	4.67001e+02	1.09800e+03	9.20665e-03	4.63515e+02
1099	4.67735e+02	1.09900e+03	9.23248e-03	4.64265e+02
1100	4.68463e+02	1.10000e+03	9.12758e-03	4.65015e+02
1101	4.69201e+02	1.10100e+03	8.98741e-03	4.65765e+02
1102	4.69959e+02	1.10200e+03	8.79745e-03	4.66515e+02
1103	4.70696e+02	1.10300e+03	8.57805e-03	4.67265e+02
1104	4.71437e+02	1.10400e+03	8.18776e-03	4.68015e+02
1105	4.72160e+02	1.10500e+03	7.92050e-03	4.68766e+02
1106	4.72854e+02	1.10600e+03	7.71046e-03	4.69516e+02
1107	4.73568e+02	1.10700e+03	7.53261e-03	4.70266e+02
1108	4.74287e+02	1.10800e+03	7.48387e-03	4.71016e+02
1109	4.75037e+02	1.10900e+03	7.44405e-03	4.71766e+02
1110	4.75773e+02	1.11000e+03	7.43234e-03	4.72516e+02
1111	4.76491e+02	1.11100e+03	7.43751e-03	4.73266e+02
1112	4.77205e+02	1.11200e+03	7.57644e-03	4.74016e+02
1113	4.77939e+02	1.11300e+03	7.62622e-03	4.74766e+02
1114	4.78664e+02	1.11400e+03	7.64943e-03	4.75516e+02
1115	4.79393e+02	1.11500e+03	7.66493e-03	4.76266e+02
1116	4.80130e+02	1.11600e+03	7.63675e-03	4.77016e+02
1117	4.80856e+02	1.11700e+03	7.62921e-03	4.77766e+02
1118	4.81589e+02	1.11800e+03	7.62498e-03	4.78516e+02
1119	4.82302e+02	1.11900e+03	7.62021e-03	4.79266e+02
1120	4.83028e+02	1.12000e+03	7.59728e-03	4.80016e+02
1121	4.83763e+02	1.12100e+03	7.57237e-03	4.80766e+02
1122	4.84481e+02	1.12200e+03	7.54026e-03	4.81516e+02
1123	4.85216e+02	1.12300e+03	7.50263e-03	4.82266e+02
1124	4.85945e+02	1.12400e+03	7.43615e-03	4.83016e+02
1125	4.86664e+02	1.12500e+03	7.36841e-03	4.83766e+02
1126	4.87405e+02	1.12600e+03	7.29517e-03	4.84516e+02
1127	4.88133e+02	1.12700e+03	7.21840e-03	4.85266e+02
1128	4.88863e+02	1.12800e+03	7.11883e-03	4.86016e+02
1129	4.89594e+02	1.12900e+03	7.03749e-03	4.86766e+02
1130	4.90322e+02	1.13000e+03	6.96237e-03	4.87516e+02
1131	4.91048e+02	1.13100e+03	6.88961e-03	4.88266e+02
1132	4.91771e+02	1.13200e+03	6.83080e-03	4.89016e+02
1133	4.92492e+02	1.13300e+03	6.76844e-03	4.89766e+02
1134	4.93210e+02	1.13400e+03	6.71120e-03	4.90516e+02
1135	4.93944e+02	1.13500e+03	6.66027e-03	4.91266e+02
1136	4.94672e+02	1.13600e+03	6.63693e-03	4.92016e+02
1137	4.95395e+02	1.13700e+03	6.62000e-03	4.92766e+02
1138	4.96125e+02	1.13800e+03	6.61172e-03	4.93517e+02
1139	4.96850e+02	1.13900e+03	6.60786e-03	4.94267e+02
1140	4.97576e+02	1.14000e+03	6.63615e-03	4.95017e+02
1141	4.98304e+02	1.14100e+03	6.64458e-03	4.95767e+02
1142	4.99026e+02	1.14200e+03	6.64939e-03	4.96517e+02
1143	4.99752e+02	1.14300e+03	6.65441e-03	4.97267e+02
1144	5.00473e+02	1.14400e+03	6.64960e-03	4.98017e+02
1145	5.01209e+02	1.14500e+03	6.64209e-03	4.98767e+02
1146	5.01939e+02	1.14600e+03	6.62839e-03	4.99517e+02
1147	5.02661e+02	1.14700e+03	6.61119e-03	5.00267e+02
1148	5.03406e+02	1.14800e+03	6.58876e-03	5.01017e+02
1149	5.04131e+02	1.14900e+03	6.58045e-03	5.01767e+02
1150	5.04863e+02	1.15000e+03	6.58393e-03	5.02517e+02
1151	5.05600e+02	1.15100e+03	6.59401e-03	5.03267e+02
1152	5.06320e+02	1.15200e+03	6.61856e-03	5.04017e+02
1153	5.07053e+02	1.15300e+03	6.62983e-03	5.04767e+02
1154	5.07790e+02	1.15400e+03	6.63047e-03	5.05517e+02
1155	5.08520e+02	1.15500e+03	6.62450e-03	5.06267e+02
1156	5.09254e+02	1.15600e+03	6.59632e-03	5.07017e+02
1157	5.09976e+02	1.15700e+03	6.55578e-03	5.07767e+02
1158	5.10704e+02	1.15800e+03	6.50080e-03	5.08517e+02
1159	5.11442e+02	1.15900e+03	6.43631e-03	5.09267e+02
1160	5.12172e+02	1.16000e+03	6.31849e-03	5.10017e+02
1161	5.12902e+02	1.16100e+03	6.22314e-03	5.10767e+02
1162	5.13631e+02	1.16200e+03	6.13467e-03	5.11517e+02
1163	5.14367e+02	1.16300e+03	6.04980e-03	5.12267e+02
1164	5.15096e+02	1.16400e+03	5.97018e-03	5.13017e+02
1165	5.15828e+02	1.16500e+03	5.90524e-03	5.13767e+02
1166	5.16577e+02	1.16600e+03	5.85402e-03	5.14517e+02
1167	5.17316e+02	1.16700e+03	5.81194e-03	5.15267e+02
1168	5.18039e+02	1.16800e+03	5.81863e-03	5.16017e+02
1169	5.18775e+02	1.16900e+03	5.81378e-03	5.16767e+02
1170	5.19513e+02	1.17000e+03	5.80948e-03	5.17518e+02
1171	5.20254e+02	1.17100e+03	5.80583e-03	5.18268e+02
1172	5.20999e+02	1.17200e+03	5.82120e-03	5.19018e+02
1173	5.21736e+02	1.17300e+03	5.82122e-03	5.19768e+02
1174	5.22470e+02	1.17400e+03	5.81690e-03	5.20518e+02
1175	5.23208e+02	1.17500e+03	5.81179e-03	5.21268e+02
1176	5.23957e+02	1.17600e+03	5.79791e-03	5.22018e+02
1177	5.24684e+02	1.17700e+03	5.79451e-03	5.22768e+02
1178	5.25433e+02	1.17800e+03	5.79830e-03	5.23518e+02
1179	5.26175e+02	1.17900e+03	5.80733e-03	5.24268e+02
1180	5.26933e+02	1.18000e+03	5.83675e-03	5.25018e+02
1181	5.27670e+02	1.18100e+03	5.86361e-03	5.25768e+02
1182	5.28410e+02	1.18200e+03	5.88899e-03	5.26518e+02
1183	5.29173e+02	1.18300e+03	5.91166e-03	5.27268e+02
1184	5.29927e+02	1.18400e+03	5.93690e-03	5.28018e+02
1185	5.30667e+02	1.18500e+03	5.95126e-03	5.28768e+02
1186	5.31426e+02	1.18600e+03	5.96328e-03	5.29518e+02
1187	5.32152e+02	1.18700e+03	5.97511e-03	5.30268e+02
1188	5.32910e+02	1.18800e+03	5.97013e-03	5.31018e+02
1189	5.33643e+02	1.18900e+03	5.97619e-03	5.31768e+02
1190	5.34387e+02	1.19000e+03	5.97970e-03	5.32518e+02
1191	5.35113e+02	1.19100e+03	5.97791e-03	5.33268e+02
1192	5.35831e+02	1.19200e+03	5.95678e-03	5.34018e+02
1193	5.36571e+02	1.19300e+03	5.90709e-03	5.34768e+02
1194	5.37298e+02	1.19400e+03	5.82137e-03	5.35518e+02
1195	5.38052e+02	1.19500e+03	5.71004e-03	5.36268e+02
1196	5.38824e+02	1.19600e+03	5.50232e-03	5.37018e+02
1197	5.39265e+02	1.19700e+03	5.32801e-03	5.37768e+02
1198	5.40996e+02	1.19800e+03	5.17375e-03	5.38518e+02
1199	5.41791e+02	1.19900e+03	5.03686e-03	5.39268e+02
1200	5.42531e+02	1.20000e+03	4.93844e-03	5.40018e+02
1201	5.43230e+02	1.20100e+03	4.91087e-03	5.40768e+02
1202	5.43914e+02	1.20200e+03	4.93736e-03	5.41518e+02
1203	5.44624e+02	1.20300e+03	4.99330e-03	5.42268e+02
1204	5.45336e+02	1.20400e+03	5.22178e-03	5.43019e+02
1205	5.46057e+02	1.20500e+03	5.35291e-03	5.43769e+02
1206	5.46783e+02	1.20600e+03	5.44605e-03	5.44519e+02
1207	5.47507e+02	1.20700e+03	5.51881e-03	5.45269e+02
1208	5.48242e+02	1.20800e+03	5.52039e-03	5.46019e+02
1209	5.48970e+02	1.20900e+03	5.48593e-03	5.46769e+02
1210	5.49684e+02	1.21000e+03	5.40436e-03	5.47519e+02
1211	5.50401e+02	1.21100e+03	5.29022e-03	5.48269e+02
1212	5.51122e+02	1.21200e+03	4.99170e-03	5.49019e+02
1213	5.51839e+02	1.21300e+03	4.74066e-03	5.49769e+02
1214	5.52556e+02	1.21400e+03	4.48033e-03	5.50519e+02
1215	5.53299e+02	1.21500e+03	4.21057e-03	5.51269e+02
1216	5.54040e+02	1.21600e+03	3.88091e-03	5.52019e+02
1217	5.54755e+02	1.21700e+03	3.61701e-03	5.52769e+02
1218	5.55493e+02	1.21800e+03	3.39892e-03	5.53519e+02
1219	5.56241e+02	1.21900e+03	3.21229e-03	5.54269e+02
1220	5.56978e+02	1.22000e+03	3.17428e-03	5.55019e+02
1221	5.57745e+02	1.22100e+03	3.16091e-03	5.55769e+02
1222	5.58521e+02	1.22200e+03	3.20804e-03	5.56519e+02
1223	5.59287e+02	1.22300e+03	3.29830e-03	5.57269e+02
1224	5.60023e+02	1.22400e+03	3.60180e-03	5.58019e+02
1225	5.60732e+02	1.22500e+03	3.81458e-03	5.58769e+02
1226	5.61459e+02	1.22600e+03	4.00220e-03	5.59519e+02
1227	5.62188e+02	1.22700e+03	4.17723e-03	5.60269e+02
1228	5.62917e+02	1.22800e+03	4.32890e-03	5.61019e+02
1229	5.63673e+02	1.22900e+03	4.41615e-03	5.61769e+02
1230	5.64433e+02	1.23000e+03	4.45302e-03	5.62519e+02
1231	5.65211e+02	1.23100e+03	4.45994e-03	5.63269e+02
1232	5.65917e+02	1.23200e+03	4.30213e-03	5.64019e+02
1233	5.66673e+02	1.23300e+03	4.21726e-03	5.64769e+02
1234	5.67446e+02	1.23400e+03	4.14536e-03	5.65519e+02
1235	5.68164e+02	1.23500e+03	4.07417e-03	5.66269e+02
1236	5.68866e+02	1.23600e+03	3.98796e-03	5.67020e+02
1237	5.69591e+02	1.23700e+03	3.92564e-03	5.67770e+02
1238	5.70322e+02	1.23800e+03	3.87887e-03	5.68520e+02
1239	5.71061e+02	1.23900e+03	3.84227e-03	5.69270e+02
1240	5.71811e+02	1.24000e+03	3.86350e-03	5.70020e+02
1241	5.72589e+02	1.24100e+03	3.87845e-03	5.70770e+02
1242	5.73350e+02	1.24200e+03	3.90293e-03	5.71520e+02
1243	5.74151e+02	1.24300e+03	3.93395e-03	5.72270e+02
1244	5.74946e+02	1.24400e+03	3.99663e-03	5.73020e+02
1245	5.75794e+02	1.24500e+03	4.03033e-03	5.73770e+02
1246	5.76592e+02	1.24600e+03	4.05251e-03	5.74520e+02
1247	5.77325e+02	1.24700e+03	4.07128e-03	5.75270e+02
1248	5.78107e+02	1.24800e+03	4.07652e-03	5.76020e+02
1249	5.78953e+02	1.24900e+03	4.09205e-03	5.76770e+02
1250	5.79676e+02	1.25000e+03	4.10325e-03	5.77520e+02
1251	5.80462e+02	1.25100e+03	4.10627e-03	5.78270e+02
1252	5.81264e+02	1.25200e+03	4.08221e-03	5.79020e+02
1253	5.82046e+02	1.25300e+03	4.04662e-03	5.79770e+02
1254	5.82804e+02	1.25400e+03	4.00081e-03	5.80520e+02
1255	5.83607e+02	1.25500e+03	3.94981e-03	5.81270e+02
1256	5.84387e+02	1.25600e+03	3.85281e-03	5.82020e+02
1257	5.85110e+02	1.25700e+03	3.77374e-03	5.82770e+02
1258	5.85888e+02	1.25800e+03	3.68858e-03	5.83520e+02
1259	5.86898e+02	1.25900e+03	3.59615e-03	5.84270e+02
1260	5.88180e+02	1.26000e+03	3.48438e-03	5.85020e+02
1261	5.89082e+02	1.26100e+03	3.36836e-03	5.85770e+02
1262	5.89670e+02	1.26200e+03	3.24796e-03	5.86520e+02
1263	5.90304e+02	1.26300e+03	3.12679e-03	5.87270e+02
1264	5.91038e+02	1.26400e+03	2.99997e-03	5.88020e+02
1265	5.91787e+02	1.26500e+03	2.90349e-03	5.88770e+02
1266	5.92534e+02	1.26600e+03	2.82886e-03	5.89520e+02
1267	5.93273e+02	1.26700e+03	2.76783e-03	5.90270e+02
1268	5.93998e+02	1.26800e+03	2.77457e-03	5.91021e+02
1269	5.94693e+02	1.26900e+03	2.76615e-03	5.91771e+02
1270	5.95420e+02	1.27000e+03	2.76200e-03	5.92521e+02
1271	5.96156e+02	1.27100e+03	2.76321e-03	5.93271e+02
1272	5.96883e+02	1.27200e+03	2.80339e-03	5.94021e+02
1273	5.97603e+02	1.27300e+03	2.82361e-03	5.94771e+02
1274	5.98305e+02	1.27400e+03	2.83908e-03	5.95521e+02
1275	5.99044e+02	1.27500e+03	2.85232e-03	5.96271e+02
1276	5.99765e+02	1.27600e+03	2.84870e-03	5.97021e+02
1277	6.00495e+02	1.27700e+03	2.83622e-03	5.97771e+02
1278	6.01203e+02	1.27800e+03	2.81130e-03	5.98521e+02
1279	6.01901e+02	1.27900e+03	2.77776e-03	5.99271e+02
1280	6.02664e+02	1.28000e+03	2.70732e-03	6.00021e+02
1281	6.03378e+02	1.28100e+03	2.65496e-03	6.00771e+02
1282	6.04218e+02	1.28200e+03	2.61398e-03	6.01521e+02
1283	6.04881e+02	1.28300e+03	2.58153e-03	6.02271e+02
1284	6.05458e+02	1.28400e+03	2.57557e-03	6.03021e+02
1285	6.06290e+02	1.28500e+03	2.59164e-03	6.03771e+02
1286	6.07190e+02	1.28600e+03	2.62537e-03	6.04521e+02
1287	6.07772e+02	1.28700e+03	2.66856e-03	6.05271e+02
1288	6.08427e+02	1.28800e+03	2.77257e-03	6.06021e+02
1289	6.09182e+02	1.28900e+03	2.83173e-03	6.06771e+02
1290	6.09855e+02	1.29000e+03	2.86825e-03	6.07521e+02
1291	6.10581e+02	1.29100e+03	2.89102e-03	6.08271e+02
1292	6.11280e+02	1.29200e+03	2.86785e-03	6.09021e+02
1293	6.11943e+02	1.29300e+03	2.85312e-03	6.09771e+02
1294	6.12658e+02	1.29400e+03	2.84478e-03	6.10521e+02
1295	6.13379e+02	1.29500e+03	2.84274e-03	6.11271e+02
1296	6.14094e+02	1.29600e+03	2.82993e-03	6.12021e+02
1297	6.14821e+02	1.29700e+03	2.84705e-03	6.12771e+02
1298	6.15562e+02	1.29800e+03	2.87370e-03	6.13521e+02
1299	6.16303e+02	1.29900e+03	2.90140e-03	6.14271e+02
1300	6.17051e+02	1.30000e+03	2.96351e-03	6.15021e+02
1301	6.17768e+02	1.30100e+03	2.98456e-03	6.15772e+02
1302	6.18479e+02	1.30200e+03	2.98246e-03	6.16522e+02
1303	6.19185e+02	1.30300e+03	2.96696e-03	6.17272e+02
1304	6.19901e+02	1.30400e+03	2.88561e-03	6.18022e+02
1305	6.20627e+02	1.30500e+03	2.81794e-03	6.18772e+02
1306	6.21365e+02	1.30600e+03	2.75041e-03	6.19522e+02
1307	6.22090e+02	1.30700e+03	2.68421e-03	6.20272e+02
1308	6.22820e+02	1.30800e+03	2.60180e-03	6.21022e+02
1309	6.23534e+02	1.30900e+03	2.55379e-03	6.21772e+02
1310	6.24233e+02	1.31000e+03	2.52671e-03	6.22522e+02
1311	6.24950e+02	1.31100e+03	2.51113e-03	6.23272e+02
1312	6.25668e+02	1.31200e+03	2.55641e-03	6.24022e+02
1313	6.26379e+02	1.31300e+03	2.57959e-03	6.24772e+02
1314	6.27076e+02	1.31400e+03	2.59868e-03	6.25522e+02
1315	6.27799e+02	1.31500e+03	2.61600e-03	6.26272e+02
1316	6.28520e+02	1.31600e+03	2.63958e-03	6.27022e+02
1317	6.29226e+02	1.31700e+03	2.64713e-03	6.27772e+02
1318	6.29938e+02	1.31800e+03	2.64747e-03	6.28522e+02
1319	6.30658e+02	1.31900e+03	2.64541e-03	6.29272e+02
1320	6.31381e+02	1.32000e+03	2.62137e-03	6.30022e+02
1321	6.32096e+02	1.32100e+03	2.61444e-03	6.30772e+02
1322	6.32811e+02	1.32200e+03	2.61362e-03	6.31522e+02
1323	6.33524e+02	1.32300e+03	2.61513e-03	6.32272e+02
1324	6.34234e+02	1.32400e+03	2.63039e-03	6.33022e+02
1325	6.34940e+02	1.32500e+03	2.64218e-03	6.33772e+02
1326	6.35650e+02	1.32600e+03	2.65447e-03	6.34522e+02
1327	6.36358e+02	1.32700e+03	2.66740e-03	6.35272e+02
1328	6.37081e+02	1.32800e+03	2.68609e-03	6.36022e+02
1329	6.37801e+02	1.32900e+03	2.69951e-03	6.36772e+02
1330	6.38515e+02	1.33000e+03	2.70871e-03	6.37522e+02
1331	6.39223e+02	1.33100e+03	2.71447e-03	6.38272e+02
1332	6.39938e+02	1.33200e+03	2.70554e-03	6.39022e+02
1333	6.40660e+02	1.33300e+03	2.69274e-03	6.39773e+02
1334	6.41382e+02	1.33400e+03	2.67222e-03	6.40523e+02
1335	6.42117e+02	1.33500e+03	2.64590e-03	6.41273e+02
1336	6.42866e+02	1.33600e+03	2.59311e-03	6.42023e+02
1337	6.43628e+02	1.33700e+03	2.54995e-03	6.42773e+02
1338	6.44392e+02	1.33800e+03	2.50929e-03	6.43523e+02
1339	6.45155e+02	1.33900e+03	2.47015e-03	6.44273e+02
1340	6.45901e+02	1.34000e+03	2.43442e-03	6.45023e+02
1341	6.46660e+02	1.34100e+03	2.41139e-03	6.45773e+02
1342	6.47432e+02	1.34200e+03	2.39803e-03	6.46523e+02
1343	6.48186e+02	1.34300e+03	2.39006e-03	6.47273e+02
1344	6.48951e+02	1.34400e+03	2.41299e-03	6.48023e+02
1345	6.49697e+02	1.34500e+03	2.42568e-03	6.48773e+02
1346	6.50436e+02	1.34600e+03	2.44049e-03	6.49523e+02
1347	6.51204e+02	1.34700e+03	2.45892e-03	6.50273e+02
1348	6.51949e+02	1.34800e+03	2.49443e-03	6.51023e+02
1349	6.52691e+02	1.34900e+03	2.52679e-03	6.51773e+02
1350	6.53447e+02	1.35000e+03	2.56017e-03	6.52523e+02
1351	6.54240e+02	1.35100e+03	2.59414e-03	6.53273e+02
1352	6.55042e+02	1.35200e+03	2.63239e-03	6.54023e+02
1353	6.55844e+02	1.35300e+03	2.66199e-03	6.54773e+02
1354	6.56641e+02	1.35400e+03	2.68579e-03	6.55523e+02
1355	6.57417e+02	1.35500e+03	2.70555e-03	6.56273e+02
1356	6.58110e+02	1.35600e+03	2.70094e-03	6.57023e+02
1357	6.58840e+02	1.35700e+03	2.69422e-03	6.57773e+02
1358	6.59566e+02	1.35800e+03	2.67966e-03	6.58523e+02
1359	6.60288e+02	1.35900e+03	2.65911e-03	6.59273e+02
1360	6.61052e+02	1.36000e+03	2.60944e-03	6.60023e+02
1361	6.61825e+02	1.36100e+03	2.57289e-03	6.60773e+02
1362	6.62605e+02	1.36200e+03	2.53991e-03	6.61523e+02
1363	6.63368e+02	1.36300e+03	2.50824e-03	6.62273e+02
1364	6.64136e+02	1.36400e+03	2.47602e-03	6.63023e+02
1365	6.64891e+02	1.36500e+03	2.44978e-03	6.63773e+02
1366	6.65649e+02	1.36600e+03	2.42756e-03	6.64523e+02
1367	6.66401e+02	1.36700e+03	2.40740e-03	6.65274e+02
1368	6.67154e+02	1.36800e+03	2.39998e-03	6.66024e+02
1369	6.67920e+02	1.36900e+03	2.38708e-03	6.66774e+02
1370	6.68692e+02	1.37000e+03	2.37411e-03	6.67524e+02
1371	6.69447e+02	1.37100e+03	2.36164e-03	6.68274e+02
1372	6.70188e+02	1.37200e+03	2.35233e-03	6.69024e+02
1373	6.70963e+02	1.37300e+03	2.34411e-03	6.69774e+02
1374	6.71732e+02	1.37400e+03	2.33830e-03	6.70524e+02
1375	6.72484e+02	1.37500e+03	2.33419e-03	6.71274e+02
1376	6.73300e+02	1.37600e+03	2.33814e-03	6.72024e+02
1377	6.74088e+02	1.37700e+03	2.34226e-03	6.72774e+02
1378	6.74860e+02	1.37800e+03	2.34607e-03	6.73524e+02
1379	6.75534e+02	1.37900e+03	2.34805e-03	6.74274e+02
1380	6.76264e+02	1.38000e+03	2.34523e-03	6.75024e+02
1381	6.77030e+02	1.38100e+03	2.33082e-03	6.75774e+02
1382	6.77790e+02	1.38200e+03	2.30804e-03	6.76524e+02
1383	6.78490e+02	1.38300e+03	2.28207e-03	6.77274e+02
1384	6.79161e+02	1.38400e+03	2.24326e-03	6.78024e+02
1385	6.79862e+02	1.38500e+03	2.22647e-03	6.78774e+02
1386	6.80576e+02	1.38600e+03	2.22565e-03	6.79524e+02
1387	6.81343e+02	1.38700e+03	2.23535e-03	6.80274e+02
1388	6.81735e+02	1.38800e+03	2.29039e-03	6.81024e+02
1389	6.81970e+02	1.38900e+03	2.34348e-03	6.81774e+02
1390	6.82375e+02	1.39000e+03	2.40156e-03	6.82524e+02
1391	6.82904e+02	1.39100e+03	2.46098e-03	6.83274e+02
1392	6.83479e+02	1.39200e+03	2.55138e-03	6.84024e+02
1393	6.83989e+02	1.39300e+03	2.61016e-03	6.84774e+02
1394	6.84454e+02	1.39400e+03	2.64960e-03	6.85524e+02
1395	6.84933e+02	1.39500e+03	2.67750e-03	6.86274e+02
1396	6.85356e+02	1.39600e+03	2.66937e-03	6.87024e+02
1397	6.85797e+02	1.39700e+03	2.66993e-03	6.87774e+02
1398	6.86212e+02	1.39800e+03	2.66612e-03	6.88524e+02
1399	6.86692e+02	1.39900e+03	2.65839e-03	6.89275e+02
1400	6.87073e+02	1.40000e+03	2.63161e-03	6.90025e+02
1401	6.87524e+02	1.40100e+03	2.61798e-03	6.90775e+02
1402	6.87988e+02	1.40200e+03	2.60737e-03	6.91525e+02
1403	6.88425e+02	1.40300e+03	2.59718e-03	6.92275e+02
1404	6.88890e+02	1.40400e+03	2.59268e-03	6.93025e+02
1405	6.89320e+02	1.40500e+03	2.58606e-03	6.93775e+02
1406	6.89741e+02	1.40600e+03	2.58029e-03	6.94525e+02
1407	6.90153e+02	1.40700e+03	2.57586e-03	6.95275e+02
1408	6.90559e+02	1.40800e+03	2.57408e-03	6.96025e+02
1409	6.90880e+02	1.40900e+03	2.57361e-03	6.96775e+02
1410	6.91205e+02	1.41000e+03	2.57966e-03	6.97525e+02
1411	6.91515e+02	1.41100e+03	2.59000e-03	6.98275e+02
1412	6.91845e+02	1.41200e+03	2.61255e-03	6.99025e+02
1413	6.92133e+02	1.41300e+03	2.63858e-03	6.99775e+02
1414	6.92418e+02	1.41400e+03	2.67159e-03	7.00000e+02