File: Experiments/TUBS/tga_nonisotherm/tga_dynamic_n2_dyn10_piece_3mg_r1.txt
index	ts	t	weight	tr
[#]	[°C]	[s]	[mg]	[°C]
843	1.31134e+02	8.43000e+02	3.01033e+00	1.30500e+02
847	1.31806e+02	8.47000e+02	3.01017e+00	1.31167e+02
851	1.32483e+02	8.51000e+02	3.01005e+00	1.31833e+02
855	1.33164e+02	8.55000e+02	3.01006e+00	1.32500e+02
859	1.33841e+02	8.59000e+02	3.01010e+00	1.33167e+02
863	1.34501e+02	8.63000e+02	3.01009e+00	1.33833e+02
867	1.35188e+02	8.67000e+02	3.00997e+00	1.34500e+02
871	1.35867e+02	8.71000e+02	3.00981e+00	1.35167e+02
875	1.36539e+02	8.75000e+02	3.00973e+00	1.35833e+02
879	1.37212e+02	8.79000e+02	3.00970e+00	1.36500e+02
883	1.37898e+02	8.83000e+02	3.00969e+00	1.37167e+02
887	1.38582e+02	8.87000e+02	3.00964e+00	1.37833e+02
891	1.39258e+02	8.91000e+02	3.00955e+00	1.38500e+02
895	1.39920e+02	8.95000e+02	3.00957e+00	1.39167e+02
899	1.40599e+02	8.99000e+02	3.00968e+00	1.39833e+02
903	1.41301e+02	9.03000e+02	3.00969e+00	1.40500e+02
907	1.41968e+02	9.07000e+02	3.00954e+00	1.41167e+02
911	1.42654e+02	9.11000e+02	3.00936e+00	1.41833e+02
915	1.43329e+02	9.15000e+02	3.00931e+00	1.42500e+02
919	1.44012e+02	9.19000e+02	3.00932e+00	1.43167e+02
923	1.44686e+02	9.23000e+02	3.00921e+00	1.43833e+02
927	1.45372e+02	9.27000e+02	3.00922e+00	1.44500e+02
931	1.46037e+02	9.31000e+02	3.00957e+00	1.45167e+02
935	1.46713e+02	9.35000e+02	3.00977e+00	1.45833e+02
939	1.47403e+02	9.39000e+02	3.00952e+00	1.46500e+02
943	1.48090e+02	9.43000e+02	3.00918e+00	1.47167e+02
947	1.48759e+02	9.47000e+02	3.00897e+00	1.47833e+02
951	1.49428e+02	9.51000e+02	3.00885e+00	1.48500e+02
955	1.50113e+02	9.55000e+02	3.00876e+00	1.49167e+02
959	1.50783e+02	9.59000e+02	3.00861e+00	1.49833e+02
963	1.51474e+02	9.63000e+02	3.00841e+00	1.50500e+02
967	1.52142e+02	9.67000e+02	3.00840e+00	1.51167e+02
971	1.52831e+02	9.71000e+02	3.00855e+00	1.51833e+02
975	1.53510e+02	9.75000e+02	3.00855e+00	1.52500e+02
979	1.54175e+02	9.79000e+02	3.00839e+00	1.53167e+02
983	1.54860e+02	9.83000e+02	3.00828e+00	1.53833e+02
987	1.55536e+02	9.87000e+02	3.00823e+00	1.54500e+02
991	1.56227e+02	9.91000e+02	3.00812e+00	1.55167e+02
995	1.56888e+02	9.95000e+02	3.00801e+00	1.55833e+02
999	1.57591e+02	9.99000e+02	3.00791e+00	1.56500e+02
1003	1.58254e+02	1.00300e+03	3.00783e+00	1.57167e+02
1007	1.58932e+02	1.00700e+03	3.00786e+00	1.57833e+02
1011	1.59614e+02	1.01100e+03	3.00786e+00	1.58500e+02
1015	1.60298e+02	1.01500e+03	3.00770e+00	1.59167e+02
1019	1.60973e+02	1.01900e+03	3.00759e+00	1.59833e+02
1023	1.61647e+02	1.02300e+03	3.00766e+00	1.60500e+02
1027	1.62324e+02	1.02700e+03	3.00776e+00	1.61167e+02
1031	1.62998e+02	1.03100e+03	3.00777e+00	1.61833e+02
1035	1.63691e+02	1.03500e+03	3.00759e+00	1.62500e+02
1039	1.64367e+02	1.03900e+03	3.00730e+00	1.63167e+02
1043	1.65043e+02	1.04300e+03	3.00716e+00	1.63833e+02
1047	1.65718e+02	1.04700e+03	3.00709e+00	1.64500e+02
1051	1.66384e+02	1.05100e+03	3.00694e+00	1.65167e+02
1055	1.67075e+02	1.05500e+03	3.00682e+00	1.65833e+02
1059	1.67746e+02	1.05900e+03	3.00678e+00	1.66500e+02
1063	1.68421e+02	1.06300e+03	3.00673e+00	1.67167e+02
1067	1.69108e+02	1.06700e+03	3.00660e+00	1.67833e+02
1071	1.69784e+02	1.07100e+03	3.00654e+00	1.68500e+02
1075	1.70446e+02	1.07500e+03	3.00660e+00	1.69167e+02
1079	1.71128e+02	1.07900e+03	3.00658e+00	1.69833e+02
1083	1.71800e+02	1.08300e+03	3.00641e+00	1.70500e+02
1087	1.72477e+02	1.08700e+03	3.00613e+00	1.71167e+02
1091	1.73165e+02	1.09100e+03	3.00587e+00	1.71833e+02
1095	1.73838e+02	1.09500e+03	3.00567e+00	1.72500e+02
1099	1.74510e+02	1.09900e+03	3.00547e+00	1.73167e+02
1103	1.75186e+02	1.10300e+03	3.00543e+00	1.73833e+02
1107	1.75865e+02	1.10700e+03	3.00546e+00	1.74500e+02
1111	1.76542e+02	1.11100e+03	3.00538e+00	1.75167e+02
1115	1.77224e+02	1.11500e+03	3.00513e+00	1.75833e+02
1119	1.77903e+02	1.11900e+03	3.00475e+00	1.76500e+02
1123	1.78568e+02	1.12300e+03	3.00442e+00	1.77167e+02
1127	1.79255e+02	1.12700e+03	3.00415e+00	1.77833e+02
1131	1.79940e+02	1.13100e+03	3.00384e+00	1.78500e+02
1135	1.80618e+02	1.13500e+03	3.00352e+00	1.79167e+02
1139	1.81303e+02	1.13900e+03	3.00316e+00	1.79833e+02
1143	1.81972e+02	1.14300e+03	3.00273e+00	1.80500e+02
1147	1.82666e+02	1.14700e+03	3.00233e+00	1.81167e+02
1151	1.83335e+02	1.15100e+03	3.00193e+00	1.81833e+02
1155	1.84004e+02	1.15500e+03	3.00145e+00	1.82500e+02
1159	1.84681e+02	1.15900e+03	3.00093e+00	1.83167e+02
1163	1.85364e+02	1.16300e+03	3.00040e+00	1.83833e+02
1167	1.86037e+02	1.16700e+03	2.99994e+00	1.84500e+02
1171	1.86719e+02	1.17100e+03	2.99951e+00	1.85167e+02
1175	1.87405e+02	1.17500e+03	2.99895e+00	1.85833e+02
1179	1.88067e+02	1.17900e+03	2.99833e+00	1.86500e+02
1183	1.88738e+02	1.18300e+03	2.99776e+00	1.87167e+02
1187	1.89425e+02	1.18700e+03	2.99717e+00	1.87833e+02
1191	1.90103e+02	1.19100e+03	2.99655e+00	1.88500e+02
1195	1.90783e+02	1.19500e+03	2.99597e+00	1.89167e+02
1199	1.91457e+02	1.19900e+03	2.99542e+00	1.89833e+02
1203	1.92127e+02	1.20300e+03	2.99487e+00	1.90500e+02
1207	1.92808e+02	1.20700e+03	2.99436e+00	1.91167e+02
1211	1.93474e+02	1.21100e+03	2.99377e+00	1.91833e+02
1215	1.94149e+02	1.21500e+03	2.99297e+00	1.92500e+02
1219	1.94832e+02	1.21900e+03	2.99210e+00	1.93167e+02
1223	1.95502e+02	1.22300e+03	2.99127e+00	1.93833e+02
1227	1.96182e+02	1.22700e+03	2.99039e+00	1.94500e+02
1231	1.96851e+02	1.23100e+03	2.98947e+00	1.95167e+02
1235	1.97538e+02	1.23500e+03	2.98864e+00	1.95833e+02
1239	1.98219e+02	1.23900e+03	2.98814e+00	1.96500e+02
1243	1.98895e+02	1.24300e+03	2.98768e+00	1.97167e+02
1247	1.99567e+02	1.24700e+03	2.98689e+00	1.97833e+02
1251	2.00240e+02	1.25100e+03	2.98600e+00	1.98500e+02
1255	2.00920e+02	1.25500e+03	2.98518e+00	1.99167e+02
1259	2.01595e+02	1.25900e+03	2.98439e+00	1.99833e+02
1263	2.02289e+02	1.26300e+03	2.98364e+00	2.00500e+02
1267	2.02942e+02	1.26700e+03	2.98288e+00	2.01167e+02
1271	2.03623e+02	1.27100e+03	2.98207e+00	2.01833e+02
1275	2.04286e+02	1.27500e+03	2.98132e+00	2.02500e+02
1279	2.04962e+02	1.27900e+03	2.98059e+00	2.03167e+02
1283	2.05629e+02	1.28300e+03	2.97982e+00	2.03833e+02
1287	2.06297e+02	1.28700e+03	2.97908e+00	2.04500e+02
1291	2.06964e+02	1.29100e+03	2.97834e+00	2.05167e+02
1295	2.07626e+02	1.29500e+03	2.97751e+00	2.05833e+02
1299	2.08289e+02	1.29900e+03	2.97667e+00	2.06500e+02
1303	2.08964e+02	1.30300e+03	2.97590e+00	2.07167e+02
1307	2.09636e+02	1.30700e+03	2.97514e+00	2.07833e+02
1311	2.10312e+02	1.31100e+03	2.97422e+00	2.08500e+02
1315	2.10968e+02	1.31500e+03	2.97324e+00	2.09167e+02
1319	2.11636e+02	1.31900e+03	2.97263e+00	2.09833e+02
1323	2.12301e+02	1.32300e+03	2.97228e+00	2.10500e+02
1327	2.12985e+02	1.32700e+03	2.97148e+00	2.11167e+02
1331	2.13648e+02	1.33100e+03	2.97028e+00	2.11833e+02
1335	2.14322e+02	1.33500e+03	2.96930e+00	2.12500e+02
1339	2.14984e+02	1.33900e+03	2.96856e+00	2.13167e+02
1343	2.15656e+02	1.34300e+03	2.96782e+00	2.13833e+02
1347	2.16317e+02	1.34700e+03	2.96702e+00	2.14500e+02
1351	2.16989e+02	1.35100e+03	2.96618e+00	2.15167e+02
1355	2.17656e+02	1.35500e+03	2.96540e+00	2.15833e+02
1359	2.18308e+02	1.35900e+03	2.96449e+00	2.16500e+02
1363	2.18990e+02	1.36300e+03	2.96344e+00	2.17167e+02
1367	2.19663e+02	1.36700e+03	2.96252e+00	2.17833e+02
1371	2.20326e+02	1.37100e+03	2.96174e+00	2.18500e+02
1375	2.20997e+02	1.37500e+03	2.96095e+00	2.19167e+02
1379	2.21658e+02	1.37900e+03	2.96008e+00	2.19833e+02
1383	2.22325e+02	1.38300e+03	2.95915e+00	2.20500e+02
1387	2.22997e+02	1.38700e+03	2.95831e+00	2.21167e+02
1391	2.23662e+02	1.39100e+03	2.95751e+00	2.21833e+02
1395	2.24327e+02	1.39500e+03	2.95664e+00	2.22500e+02
1399	2.24989e+02	1.39900e+03	2.95569e+00	2.23167e+02
1403	2.25661e+02	1.40300e+03	2.95473e+00	2.23833e+02
1407	2.26313e+02	1.40700e+03	2.95378e+00	2.24500e+02
1411	2.26990e+02	1.41100e+03	2.95284e+00	2.25167e+02
1415	2.27660e+02	1.41500e+03	2.95199e+00	2.25833e+02
1419	2.28329e+02	1.41900e+03	2.95124e+00	2.26500e+02
1423	2.28995e+02	1.42300e+03	2.95044e+00	2.27167e+02
1427	2.29672e+02	1.42700e+03	2.94956e+00	2.27833e+02
1431	2.30351e+02	1.43100e+03	2.94862e+00	2.28500e+02
1435	2.31018e+02	1.43500e+03	2.94765e+00	2.29167e+02
1439	2.31682e+02	1.43900e+03	2.94676e+00	2.29833e+02
1443	2.32348e+02	1.44300e+03	2.94593e+00	2.30500e+02
1447	2.33020e+02	1.44700e+03	2.94494e+00	2.31167e+02
1451	2.33695e+02	1.45100e+03	2.94394e+00	2.31833e+02
1455	2.34364e+02	1.45500e+03	2.94314e+00	2.32500e+02
1459	2.35032e+02	1.45900e+03	2.94236e+00	2.33167e+02
1463	2.35694e+02	1.46300e+03	2.94147e+00	2.33833e+02
1467	2.36356e+02	1.46700e+03	2.94058e+00	2.34500e+02
1471	2.37035e+02	1.47100e+03	2.93972e+00	2.35167e+02
1475	2.37708e+02	1.47500e+03	2.93875e+00	2.35833e+02
1479	2.38374e+02	1.47900e+03	2.93771e+00	2.36500e+02
1483	2.39042e+02	1.48300e+03	2.93670e+00	2.37167e+02
1487	2.39705e+02	1.48700e+03	2.93570e+00	2.37833e+02
1491	2.40371e+02	1.49100e+03	2.93480e+00	2.38500e+02
1495	2.41044e+02	1.49500e+03	2.93401e+00	2.39167e+02
1499	2.41717e+02	1.49900e+03	2.93318e+00	2.39833e+02
1503	2.42383e+02	1.50300e+03	2.93227e+00	2.40500e+02
1507	2.43055e+02	1.50700e+03	2.93130e+00	2.41167e+02
1511	2.43717e+02	1.51100e+03	2.93029e+00	2.41833e+02
1515	2.44393e+02	1.51500e+03	2.92928e+00	2.42500e+02
1519	2.45057e+02	1.51900e+03	2.92832e+00	2.43167e+02
1523	2.45725e+02	1.52300e+03	2.92748e+00	2.43833e+02
1527	2.46390e+02	1.52700e+03	2.92678e+00	2.44500e+02
1531	2.47052e+02	1.53100e+03	2.92591e+00	2.45167e+02
1535	2.47722e+02	1.53500e+03	2.92481e+00	2.45833e+02
1539	2.48382e+02	1.53900e+03	2.92372e+00	2.46500e+02
1543	2.49053e+02	1.54300e+03	2.92272e+00	2.47167e+02
1547	2.49726e+02	1.54700e+03	2.92183e+00	2.47833e+02
1551	2.50397e+02	1.55100e+03	2.92102e+00	2.48500e+02
1555	2.51063e+02	1.55500e+03	2.92014e+00	2.49167e+02
1559	2.51722e+02	1.55900e+03	2.91921e+00	2.49833e+02
1563	2.52380e+02	1.56300e+03	2.91825e+00	2.50500e+02
1567	2.53060e+02	1.56700e+03	2.91728e+00	2.51167e+02
1571	2.53729e+02	1.57100e+03	2.91634e+00	2.51833e+02
1575	2.54402e+02	1.57500e+03	2.91549e+00	2.52500e+02
1579	2.55070e+02	1.57900e+03	2.91470e+00	2.53167e+02
1583	2.55735e+02	1.58300e+03	2.91380e+00	2.53833e+02
1587	2.56388e+02	1.58700e+03	2.91279e+00	2.54500e+02
1591	2.57058e+02	1.59100e+03	2.91183e+00	2.55167e+02
1595	2.57705e+02	1.59500e+03	2.91099e+00	2.55833e+02
1599	2.58385e+02	1.59900e+03	2.91014e+00	2.56500e+02
1603	2.59052e+02	1.60300e+03	2.90912e+00	2.57167e+02
1607	2.59729e+02	1.60700e+03	2.90807e+00	2.57833e+02
1611	2.60418e+02	1.61100e+03	2.90712e+00	2.58500e+02
1615	2.61104e+02	1.61500e+03	2.90616e+00	2.59167e+02
1619	2.61771e+02	1.61900e+03	2.90526e+00	2.59833e+02
1623	2.62432e+02	1.62300e+03	2.90443e+00	2.60500e+02
1627	2.63113e+02	1.62700e+03	2.90356e+00	2.61167e+02
1631	2.63770e+02	1.63100e+03	2.90263e+00	2.61833e+02
1635	2.64438e+02	1.63500e+03	2.90169e+00	2.62500e+02
1639	2.65124e+02	1.63900e+03	2.90081e+00	2.63167e+02
1643	2.65804e+02	1.64300e+03	2.89998e+00	2.63833e+02
1647	2.66472e+02	1.64700e+03	2.89909e+00	2.64500e+02
1651	2.67153e+02	1.65100e+03	2.89811e+00	2.65167e+02
1655	2.67837e+02	1.65500e+03	2.89711e+00	2.65833e+02
1659	2.68512e+02	1.65900e+03	2.89606e+00	2.66500e+02
1663	2.69190e+02	1.66300e+03	2.89495e+00	2.67167e+02
1667	2.69870e+02	1.66700e+03	2.89392e+00	2.67833e+02
1671	2.70544e+02	1.67100e+03	2.89291e+00	2.68500e+02
1675	2.71227e+02	1.67500e+03	2.89188e+00	2.69167e+02
1679	2.71905e+02	1.67900e+03	2.89087e+00	2.69833e+02
1683	2.72590e+02	1.68300e+03	2.88983e+00	2.70500e+02
1687	2.73324e+02	1.68700e+03	2.88873e+00	2.71167e+02
1691	2.74002e+02	1.69100e+03	2.88765e+00	2.71833e+02
1695	2.74684e+02	1.69500e+03	2.88669e+00	2.72500e+02
1699	2.75356e+02	1.69900e+03	2.88575e+00	2.73167e+02
1703	2.76033e+02	1.70300e+03	2.88463e+00	2.73833e+02
1707	2.76698e+02	1.70700e+03	2.88337e+00	2.74500e+02
1711	2.77398e+02	1.71100e+03	2.88204e+00	2.75167e+02
1715	2.78106e+02	1.71500e+03	2.88069e+00	2.75833e+02
1719	2.78775e+02	1.71900e+03	2.87946e+00	2.76500e+02
1723	2.79445e+02	1.72300e+03	2.87835e+00	2.77167e+02
1727	2.80114e+02	1.72700e+03	2.87715e+00	2.77833e+02
1731	2.80801e+02	1.73100e+03	2.87583e+00	2.78500e+02
1735	2.81491e+02	1.73500e+03	2.87454e+00	2.79167e+02
1739	2.82183e+02	1.73900e+03	2.87322e+00	2.79833e+02
1743	2.82860e+02	1.74300e+03	2.87177e+00	2.80500e+02
1747	2.83530e+02	1.74700e+03	2.87030e+00	2.81167e+02
1751	2.84211e+02	1.75100e+03	2.86891e+00	2.81833e+02
1755	2.84887e+02	1.75500e+03	2.86746e+00	2.82500e+02
1759	2.85561e+02	1.75900e+03	2.86596e+00	2.83167e+02
1763	2.86234e+02	1.76300e+03	2.86443e+00	2.83833e+02
1767	2.86926e+02	1.76700e+03	2.86293e+00	2.84500e+02
1771	2.87593e+02	1.77100e+03	2.86135e+00	2.85167e+02
1775	2.88255e+02	1.77500e+03	2.85956e+00	2.85833e+02
1779	2.88937e+02	1.77900e+03	2.85767e+00	2.86500e+02
1783	2.89611e+02	1.78300e+03	2.85577e+00	2.87167e+02
1787	2.90264e+02	1.78700e+03	2.85381e+00	2.87833e+02
1791	2.90936e+02	1.79100e+03	2.85193e+00	2.88500e+02
1795	2.91619e+02	1.79500e+03	2.85008e+00	2.89167e+02
1799	2.92294e+02	1.79900e+03	2.84811e+00	2.89833e+02
1803	2.92985e+02	1.80300e+03	2.84607e+00	2.90500e+02
1807	2.93659e+02	1.80700e+03	2.84395e+00	2.91167e+02
1811	2.94334e+02	1.81100e+03	2.84172e+00	2.91833e+02
1815	2.95010e+02	1.81500e+03	2.83941e+00	2.92500e+02
1819	2.95694e+02	1.81900e+03	2.83717e+00	2.93167e+02
1823	2.96366e+02	1.82300e+03	2.83499e+00	2.93833e+02
1827	2.97049e+02	1.82700e+03	2.83260e+00	2.94500e+02
1831	2.97728e+02	1.83100e+03	2.83005e+00	2.95167e+02
1835	2.98425e+02	1.83500e+03	2.82740e+00	2.95833e+02
1839	2.99092e+02	1.83900e+03	2.82474e+00	2.96500e+02
1843	2.99763e+02	1.84300e+03	2.82218e+00	2.97167e+02
1847	3.00417e+02	1.84700e+03	2.81964e+00	2.97833e+02
1851	3.01093e+02	1.85100e+03	2.81696e+00	2.98500e+02
1855	3.01767e+02	1.85500e+03	2.81413e+00	2.99167e+02
1859	3.02432e+02	1.85900e+03	2.81113e+00	2.99833e+02
1863	3.03081e+02	1.86300e+03	2.80790e+00	3.00500e+02
1867	3.03738e+02	1.86700e+03	2.80453e+00	3.01167e+02
1871	3.04297e+02	1.87100e+03	2.80109e+00	3.01833e+02
1875	3.04741e+02	1.87500e+03	2.79755e+00	3.02500e+02
1879	3.05278e+02	1.87900e+03	2.79390e+00	3.03167e+02
1883	3.05828e+02	1.88300e+03	2.79021e+00	3.03833e+02
1887	3.06426e+02	1.88700e+03	2.78660e+00	3.04500e+02
1891	3.07061e+02	1.89100e+03	2.78320e+00	3.05167e+02
1895	3.07692e+02	1.89500e+03	2.78001e+00	3.05833e+02
1899	3.08353e+02	1.89900e+03	2.77685e+00	3.06500e+02
1903	3.09004e+02	1.90300e+03	2.77371e+00	3.07167e+02
1907	3.09678e+02	1.90700e+03	2.77065e+00	3.07833e+02
1911	3.10341e+02	1.91100e+03	2.76740e+00	3.08500e+02
1915	3.11009e+02	1.91500e+03	2.76406e+00	3.09167e+02
1919	3.11666e+02	1.91900e+03	2.76092e+00	3.09833e+02
1923	3.12338e+02	1.92300e+03	2.75783e+00	3.10500e+02
1927	3.12998e+02	1.92700e+03	2.75462e+00	3.11167e+02
1931	3.13659e+02	1.93100e+03	2.75140e+00	3.11833e+02
1935	3.14318e+02	1.93500e+03	2.74832e+00	3.12500e+02
1939	3.14973e+02	1.93900e+03	2.74524e+00	3.13167e+02
1943	3.15641e+02	1.94300e+03	2.74187e+00	3.13833e+02
1947	3.16313e+02	1.94700e+03	2.73835e+00	3.14500e+02
1951	3.16976e+02	1.95100e+03	2.73495e+00	3.15167e+02
1955	3.17647e+02	1.95500e+03	2.73161e+00	3.15833e+02
1959	3.18294e+02	1.95900e+03	2.72811e+00	3.16500e+02
1963	3.18980e+02	1.96300e+03	2.72443e+00	3.17167e+02
1967	3.19662e+02	1.96700e+03	2.72068e+00	3.17833e+02
1971	3.20304e+02	1.97100e+03	2.71694e+00	3.18500e+02
1975	3.20974e+02	1.97500e+03	2.71319e+00	3.19167e+02
1979	3.21624e+02	1.97900e+03	2.70933e+00	3.19833e+02
1983	3.22309e+02	1.98300e+03	2.70525e+00	3.20500e+02
1987	3.22963e+02	1.98700e+03	2.70093e+00	3.21167e+02
1991	3.23625e+02	1.99100e+03	2.69659e+00	3.21833e+02
1995	3.24303e+02	1.99500e+03	2.69218e+00	3.22500e+02
1999	3.24948e+02	1.99900e+03	2.68751e+00	3.23167e+02
2003	3.25619e+02	2.00300e+03	2.68275e+00	3.23833e+02
2007	3.26279e+02	2.00700e+03	2.67798e+00	3.24500e+02
2011	3.26941e+02	2.01100e+03	2.67302e+00	3.25167e+02
2015	3.27591e+02	2.01500e+03	2.66773e+00	3.25833e+02
2019	3.28267e+02	2.01900e+03	2.66226e+00	3.26500e+02
2023	3.28934e+02	2.02300e+03	2.65658e+00	3.27167e+02
2027	3.29594e+02	2.02700e+03	2.65072e+00	3.27833e+02
2031	3.30261e+02	2.03100e+03	2.64475e+00	3.28500e+02
2035	3.30932e+02	2.03500e+03	2.63849e+00	3.29167e+02
2039	3.31594e+02	2.03900e+03	2.63192e+00	3.29833e+02
2043	3.32257e+02	2.04300e+03	2.62532e+00	3.30500e+02
2047	3.32939e+02	2.04700e+03	2.61858e+00	3.31167e+02
2051	3.33603e+02	2.05100e+03	2.61117e+00	3.31833e+02
2055	3.34278e+02	2.05500e+03	2.60305e+00	3.32500e+02
2059	3.34941e+02	2.05900e+03	2.59484e+00	3.33167e+02
2063	3.35602e+02	2.06300e+03	2.58694e+00	3.33833e+02
2067	3.36280e+02	2.06700e+03	2.57883e+00	3.34500e+02
2071	3.36949e+02	2.07100e+03	2.56997e+00	3.35167e+02
2075	3.37614e+02	2.07500e+03	2.56041e+00	3.35833e+02
2079	3.38279e+02	2.07900e+03	2.55034e+00	3.36500e+02
2083	3.38898e+02	2.08300e+03	2.53997e+00	3.37167e+02
2087	3.39568e+02	2.08700e+03	2.52933e+00	3.37833e+02
2091	3.40235e+02	2.09100e+03	2.51831e+00	3.38500e+02
2095	3.40900e+02	2.09500e+03	2.50684e+00	3.39167e+02
2099	3.41562e+02	2.09900e+03	2.49485e+00	3.39833e+02
2103	3.42242e+02	2.10300e+03	2.48224e+00	3.40500e+02
2107	3.42894e+02	2.10700e+03	2.46897e+00	3.41167e+02
2111	3.43563e+02	2.11100e+03	2.45515e+00	3.41833e+02
2115	3.44209e+02	2.11500e+03	2.44049e+00	3.42500e+02
2119	3.44870e+02	2.11900e+03	2.42493e+00	3.43167e+02
2123	3.45546e+02	2.12300e+03	2.40890e+00	3.43833e+02
2127	3.46205e+02	2.12700e+03	2.39230e+00	3.44500e+02
2131	3.46887e+02	2.13100e+03	2.37499e+00	3.45167e+02
2135	3.47584e+02	2.13500e+03	2.35705e+00	3.45833e+02
2139	3.48262e+02	2.13900e+03	2.33842e+00	3.46500e+02
2143	3.48941e+02	2.14300e+03	2.31883e+00	3.47167e+02
2147	3.49654e+02	2.14700e+03	2.29829e+00	3.47833e+02
2151	3.50384e+02	2.15100e+03	2.27711e+00	3.48500e+02
2155	3.51082e+02	2.15500e+03	2.25531e+00	3.49167e+02
2159	3.51787e+02	2.15900e+03	2.23269e+00	3.49833e+02
2163	3.52422e+02	2.16300e+03	2.20919e+00	3.50500e+02
2167	3.53079e+02	2.16700e+03	2.18481e+00	3.51167e+02
2171	3.53758e+02	2.17100e+03	2.15965e+00	3.51833e+02
2175	3.54416e+02	2.17500e+03	2.13388e+00	3.52500e+02
2179	3.55063e+02	2.17900e+03	2.10747e+00	3.53167e+02
2183	3.55722e+02	2.18300e+03	2.08029e+00	3.53833e+02
2187	3.56376e+02	2.18700e+03	2.05243e+00	3.54500e+02
2191	3.57035e+02	2.19100e+03	2.02395e+00	3.55167e+02
2195	3.57678e+02	2.19500e+03	1.99468e+00	3.55833e+02
2199	3.58361e+02	2.19900e+03	1.96459e+00	3.56500e+02
2203	3.59022e+02	2.20300e+03	1.93369e+00	3.57167e+02
2207	3.59670e+02	2.20700e+03	1.90187e+00	3.57833e+02
2211	3.60319e+02	2.21100e+03	1.86918e+00	3.58500e+02
2215	3.60986e+02	2.21500e+03	1.83593e+00	3.59167e+02
2219	3.61638e+02	2.21900e+03	1.80222e+00	3.59833e+02
2223	3.62282e+02	2.22300e+03	1.76781e+00	3.60500e+02
2227	3.62950e+02	2.22700e+03	1.73243e+00	3.61167e+02
2231	3.63592e+02	2.23100e+03	1.69624e+00	3.61833e+02
2235	3.64249e+02	2.23500e+03	1.65972e+00	3.62500e+02
2239	3.64909e+02	2.23900e+03	1.62293e+00	3.63167e+02
2243	3.65559e+02	2.24300e+03	1.58607e+00	3.63833e+02
2247	3.66225e+02	2.24700e+03	1.54920e+00	3.64500e+02
2251	3.66880e+02	2.25100e+03	1.51208e+00	3.65167e+02
2255	3.67536e+02	2.25500e+03	1.47489e+00	3.65833e+02
2259	3.68189e+02	2.25900e+03	1.43773e+00	3.66500e+02
2263	3.68867e+02	2.26300e+03	1.40044e+00	3.67167e+02
2267	3.69526e+02	2.26700e+03	1.36295e+00	3.67833e+02
2271	3.70208e+02	2.27100e+03	1.32549e+00	3.68500e+02
2275	3.70855e+02	2.27500e+03	1.28828e+00	3.69167e+02
2279	3.71532e+02	2.27900e+03	1.25148e+00	3.69833e+02
2283	3.72201e+02	2.28300e+03	1.21503e+00	3.70500e+02
2287	3.72879e+02	2.28700e+03	1.17820e+00	3.71167e+02
2291	3.73548e+02	2.29100e+03	1.14038e+00	3.71833e+02
2295	3.74215e+02	2.29500e+03	1.10226e+00	3.72500e+02
2299	3.74883e+02	2.29900e+03	1.06439e+00	3.73167e+02
2303	3.75549e+02	2.30300e+03	1.02657e+00	3.73833e+02
2307	3.76227e+02	2.30700e+03	9.88587e-01	3.74500e+02
2311	3.76887e+02	2.31100e+03	9.50363e-01	3.75167e+02
2315	3.77553e+02	2.31500e+03	9.12179e-01	3.75833e+02
2319	3.78209e+02	2.31900e+03	8.74397e-01	3.76500e+02
2323	3.78886e+02	2.32300e+03	8.37323e-01	3.77167e+02
2327	3.79551e+02	2.32700e+03	8.01041e-01	3.77833e+02
2331	3.80210e+02	2.33100e+03	7.65268e-01	3.78500e+02
2335	3.80873e+02	2.33500e+03	7.29748e-01	3.79167e+02
2339	3.81535e+02	2.33900e+03	6.94975e-01	3.79833e+02
2343	3.82197e+02	2.34300e+03	6.61297e-01	3.80500e+02
2347	3.82872e+02	2.34700e+03	6.28175e-01	3.81167e+02
2351	3.83533e+02	2.35100e+03	5.95529e-01	3.81833e+02
2355	3.84201e+02	2.35500e+03	5.64083e-01	3.82500e+02
2359	3.84864e+02	2.35900e+03	5.33973e-01	3.83167e+02
2363	3.85526e+02	2.36300e+03	5.04706e-01	3.83833e+02
2367	3.86197e+02	2.36700e+03	4.76211e-01	3.84500e+02
2371	3.86870e+02	2.37100e+03	4.48949e-01	3.85167e+02
2375	3.87540e+02	2.37500e+03	4.23210e-01	3.85833e+02
2379	3.88217e+02	2.37900e+03	3.98519e-01	3.86500e+02
2383	3.88897e+02	2.38300e+03	3.74492e-01	3.87167e+02
2387	3.89569e+02	2.38700e+03	3.51591e-01	3.87833e+02
2391	3.90232e+02	2.39100e+03	3.29979e-01	3.88500e+02
2395	3.90905e+02	2.39500e+03	3.09354e-01	3.89167e+02
2399	3.91575e+02	2.39900e+03	2.89782e-01	3.89833e+02
2403	3.92243e+02	2.40300e+03	2.71308e-01	3.90500e+02
2407	3.92924e+02	2.40700e+03	2.53759e-01	3.91167e+02
2411	3.93584e+02	2.41100e+03	2.37122e-01	3.91833e+02
2415	3.94261e+02	2.41500e+03	2.21404e-01	3.92500e+02
2419	3.94934e+02	2.41900e+03	2.06574e-01	3.93167e+02
2423	3.95623e+02	2.42300e+03	1.92648e-01	3.93833e+02
2427	3.96295e+02	2.42700e+03	1.79574e-01	3.94500e+02
2431	3.96966e+02	2.43100e+03	1.67241e-01	3.95167e+02
2435	3.97632e+02	2.43500e+03	1.55600e-01	3.95833e+02
2439	3.98290e+02	2.43900e+03	1.44711e-01	3.96500e+02
2443	3.98954e+02	2.44300e+03	1.34522e-01	3.97167e+02
2447	3.99620e+02	2.44700e+03	1.24947e-01	3.97833e+02
2451	4.00278e+02	2.45100e+03	1.16064e-01	3.98500e+02
2455	4.00943e+02	2.45500e+03	1.07950e-01	3.99167e+02
2459	4.01614e+02	2.45900e+03	1.00488e-01	3.99833e+02
2463	4.02269e+02	2.46300e+03	9.33946e-02	4.00500e+02
2467	4.02939e+02	2.46700e+03	8.64842e-02	4.01167e+02
2471	4.03593e+02	2.47100e+03	8.00213e-02	4.01833e+02
2475	4.04251e+02	2.47500e+03	7.42865e-02	4.02500e+02
2479	4.04911e+02	2.47900e+03	6.89755e-02	4.03167e+02
2483	4.05573e+02	2.48300e+03	6.37851e-02	4.03833e+02
2487	4.06214e+02	2.48700e+03	5.88487e-02	4.04500e+02
2491	4.06888e+02	2.49100e+03	5.43586e-02	4.05167e+02
2495	4.07540e+02	2.49500e+03	5.03065e-02	4.05833e+02
2499	4.08203e+02	2.49900e+03	4.65378e-02	4.06500e+02
2503	4.08862e+02	2.50300e+03	4.28719e-02	4.07167e+02
2507	4.09544e+02	2.50700e+03	3.92999e-02	4.07833e+02
2511	4.10209e+02	2.51100e+03	3.59729e-02	4.08500e+02
2515	4.10862e+02	2.51500e+03	3.29480e-02	4.09167e+02
2519	4.11521e+02	2.51900e+03	3.01201e-02	4.09833e+02
2523	4.12175e+02	2.52300e+03	2.74041e-02	4.10500e+02
2527	4.12829e+02	2.52700e+03	2.48410e-02	4.11167e+02
2531	4.13496e+02	2.53100e+03	2.24260e-02	4.11833e+02
2535	4.14154e+02	2.53500e+03	2.01504e-02	4.12500e+02
2539	4.14811e+02	2.53900e+03	1.80710e-02	4.13167e+02
2543	4.15467e+02	2.54300e+03	1.60942e-02	4.13833e+02
2547	4.16136e+02	2.54700e+03	1.41341e-02	4.14500e+02
2551	4.16805e+02	2.55100e+03	1.23129e-02	4.15167e+02
2555	4.17449e+02	2.55500e+03	1.06253e-02	4.15833e+02
2559	4.18105e+02	2.55900e+03	9.00413e-03	4.16500e+02
2563	4.18762e+02	2.56300e+03	7.47393e-03	4.17167e+02
2567	4.19415e+02	2.56700e+03	5.99265e-03	4.17833e+02
2571	4.20067e+02	2.57100e+03	4.58873e-03	4.18500e+02
2575	4.20731e+02	2.57500e+03	3.26906e-03	4.19167e+02
2579	4.21388e+02	2.57900e+03	1.96986e-03	4.19833e+02
2583	4.22033e+02	2.58300e+03	7.20827e-04	4.20500e+02
2587	4.22689e+02	2.58700e+03	-4.69655e-04	4.21167e+02
2591	4.23352e+02	2.59100e+03	-1.61485e-03	4.21833e+02
2595	4.24004e+02	2.59500e+03	-2.73405e-03	4.22500e+02
2599	4.24655e+02	2.59900e+03	-3.85567e-03	4.23167e+02
2603	4.25318e+02	2.60300e+03	-4.97775e-03	4.23833e+02
2607	4.25991e+02	2.60700e+03	-6.09236e-03	4.24500e+02
2611	4.26640e+02	2.61100e+03	-7.11967e-03	4.25167e+02
2615	4.27304e+02	2.61500e+03	-7.98595e-03	4.25833e+02
2619	4.27952e+02	2.61900e+03	-8.67221e-03	4.26500e+02
2623	4.28621e+02	2.62300e+03	-9.24687e-03	4.27167e+02
2627	4.29267e+02	2.62700e+03	-9.89718e-03	4.27833e+02
2631	4.29932e+02	2.63100e+03	-1.06330e-02	4.28500e+02
2635	4.30598e+02	2.63500e+03	-1.12840e-02	4.29167e+02
2639	4.31265e+02	2.63900e+03	-1.18386e-02	4.29833e+02
2643	4.31920e+02	2.64300e+03	-1.24097e-02	4.30500e+02
2647	4.32577e+02	2.64700e+03	-1.29138e-02	4.31167e+02
2651	4.33243e+02	2.65100e+03	-1.32833e-02	4.31833e+02
2655	4.33901e+02	2.65500e+03	-1.35983e-02	4.32500e+02
2659	4.34566e+02	2.65900e+03	-1.38837e-02	4.33167e+02
2663	4.35222e+02	2.66300e+03	-1.41391e-02	4.33833e+02
2667	4.35869e+02	2.66700e+03	-1.43289e-02	4.34500e+02
2671	4.36540e+02	2.67100e+03	-1.44718e-02	4.35167e+02
2675	4.37201e+02	2.67500e+03	-1.46197e-02	4.35833e+02
2679	4.37856e+02	2.67900e+03	-1.46981e-02	4.36500e+02
2683	4.38509e+02	2.68300e+03	-1.47984e-02	4.37167e+02
2687	4.39146e+02	2.68700e+03	-1.49475e-02	4.37833e+02
2691	4.39805e+02	2.69100e+03	-1.50545e-02	4.38500e+02
2695	4.40461e+02	2.69500e+03	-1.52207e-02	4.39167e+02
2699	4.41111e+02	2.69900e+03	-1.54137e-02	4.39833e+02
2703	4.41764e+02	2.70300e+03	-1.55176e-02	4.40500e+02
2707	4.42429e+02	2.70700e+03	-1.54918e-02	4.41167e+02
2711	4.43084e+02	2.71100e+03	-1.54751e-02	4.41833e+02
2715	4.43753e+02	2.71500e+03	-1.55924e-02	4.42500e+02
2719	4.44413e+02	2.71900e+03	-1.56746e-02	4.43167e+02
2723	4.45075e+02	2.72300e+03	-1.56215e-02	4.43833e+02
2727	4.45737e+02	2.72700e+03	-1.55727e-02	4.44500e+02
2731	4.46396e+02	2.73100e+03	-1.55441e-02	4.45167e+02
2735	4.47055e+02	2.73500e+03	-1.55179e-02	4.45833e+02
2739	4.47707e+02	2.73900e+03	-1.56531e-02	4.46500e+02
2743	4.48365e+02	2.74300e+03	-1.58816e-02	4.47167e+02
2747	4.49023e+02	2.74700e+03	-1.60263e-02	4.47833e+02
2751	4.49690e+02	2.75100e+03	-1.61243e-02	4.48500e+02
2755	4.50359e+02	2.75500e+03	-1.62575e-02	4.49167e+02
2759	4.51010e+02	2.75900e+03	-1.63754e-02	4.49833e+02
2763	4.51669e+02	2.76300e+03	-1.63714e-02	4.50500e+02
2767	4.52321e+02	2.76700e+03	-1.63409e-02	4.51167e+02
2771	4.52975e+02	2.77100e+03	-1.63731e-02	4.51833e+02
2775	4.53632e+02	2.77500e+03	-1.65083e-02	4.52500e+02
2779	4.54278e+02	2.77900e+03	-1.67097e-02	4.53167e+02
2783	4.54923e+02	2.78300e+03	-1.67474e-02	4.53833e+02
2787	4.55576e+02	2.78700e+03	-1.66569e-02	4.54500e+02
2791	4.56239e+02	2.79100e+03	-1.66565e-02	4.55167e+02
2795	4.56884e+02	2.79500e+03	-1.67363e-02	4.55833e+02
2799	4.57544e+02	2.79900e+03	-1.68077e-02	4.56500e+02
2803	4.58182e+02	2.80300e+03	-1.68990e-02	4.57167e+02
2807	4.58846e+02	2.80700e+03	-1.69849e-02	4.57833e+02
2811	4.59496e+02	2.81100e+03	-1.69661e-02	4.58500e+02
2815	4.60145e+02	2.81500e+03	-1.69730e-02	4.59167e+02
2819	4.60803e+02	2.81900e+03	-1.70553e-02	4.59833e+02
2823	4.61457e+02	2.82300e+03	-1.70685e-02	4.60500e+02
2827	4.62106e+02	2.82700e+03	-1.70326e-02	4.61167e+02
2831	4.62759e+02	2.83100e+03	-1.70499e-02	4.61833e+02
2835	4.63396e+02	2.83500e+03	-1.71579e-02	4.62500e+02
2839	4.64058e+02	2.83900e+03	-1.72874e-02	4.63167e+02
2843	4.64710e+02	2.84300e+03	-1.73141e-02	4.63833e+02
2847	4.65373e+02	2.84700e+03	-1.72505e-02	4.64500e+02
2851	4.66035e+02	2.85100e+03	-1.71935e-02	4.65167e+02
2855	4.66684e+02	2.85500e+03	-1.72019e-02	4.65833e+02
2859	4.67350e+02	2.85900e+03	-1.72430e-02	4.66500e+02
2863	4.68014e+02	2.86300e+03	-1.72872e-02	4.67167e+02
2867	4.68663e+02	2.86700e+03	-1.73506e-02	4.67833e+02
2871	4.69318e+02	2.87100e+03	-1.73785e-02	4.68500e+02
2875	4.69966e+02	2.87500e+03	-1.73910e-02	4.69167e+02
2879	4.70630e+02	2.87900e+03	-1.74390e-02	4.69833e+02
2883	4.71267e+02	2.88300e+03	-1.75269e-02	4.70500e+02
2887	4.71934e+02	2.88700e+03	-1.77203e-02	4.71167e+02
2891	4.72577e+02	2.89100e+03	-1.78865e-02	4.71833e+02
2895	4.73244e+02	2.89500e+03	-1.78900e-02	4.72500e+02
2899	4.73886e+02	2.89900e+03	-1.78654e-02	4.73167e+02
2903	4.74541e+02	2.90300e+03	-1.78988e-02	4.73833e+02
2907	4.75194e+02	2.90700e+03	-1.79350e-02	4.74500e+02
2911	4.75854e+02	2.91100e+03	-1.79384e-02	4.75167e+02
2915	4.76514e+02	2.91500e+03	-1.79384e-02	4.75833e+02
2919	4.77168e+02	2.91900e+03	-1.80187e-02	4.76500e+02
2923	4.77819e+02	2.92300e+03	-1.81502e-02	4.77167e+02
2927	4.78473e+02	2.92700e+03	-1.81590e-02	4.77833e+02
2931	4.79129e+02	2.93100e+03	-1.81141e-02	4.78500e+02
2935	4.79785e+02	2.93500e+03	-1.81135e-02	4.79167e+02
2939	4.80442e+02	2.93900e+03	-1.80624e-02	4.79833e+02
2943	4.81091e+02	2.94300e+03	-1.79674e-02	4.80500e+02
2947	4.81745e+02	2.94700e+03	-1.79875e-02	4.81167e+02
2951	4.82415e+02	2.95100e+03	-1.81458e-02	4.81833e+02
2955	4.83070e+02	2.95500e+03	-1.82589e-02	4.82500e+02
2959	4.83725e+02	2.95900e+03	-1.82767e-02	4.83167e+02
2963	4.84378e+02	2.96300e+03	-1.83026e-02	4.83833e+02
2967	4.85039e+02	2.96700e+03	-1.83413e-02	4.84500e+02
2971	4.85687e+02	2.97100e+03	-1.83481e-02	4.85167e+02
2975	4.86350e+02	2.97500e+03	-1.83389e-02	4.85833e+02
2979	4.87004e+02	2.97900e+03	-1.83723e-02	4.86500e+02
2983	4.87642e+02	2.98300e+03	-1.84871e-02	4.87167e+02
2987	4.88299e+02	2.98700e+03	-1.86426e-02	4.87833e+02
2991	4.88955e+02	2.99100e+03	-1.86940e-02	4.88500e+02
2995	4.89617e+02	2.99500e+03	-1.85713e-02	4.89167e+02
2999	4.90271e+02	2.99900e+03	-1.83903e-02	4.89833e+02
3003	4.90929e+02	3.00300e+03	-1.83319e-02	4.90500e+02
3007	4.91582e+02	3.00700e+03	-1.84156e-02	4.91167e+02
3011	4.92231e+02	3.01100e+03	-1.85048e-02	4.91833e+02
3015	4.92878e+02	3.01500e+03	-1.84667e-02	4.92500e+02
3019	4.93538e+02	3.01900e+03	-1.83198e-02	4.93167e+02
3023	4.94203e+02	3.02300e+03	-1.82636e-02	4.93833e+02
3027	4.94856e+02	3.02700e+03	-1.82936e-02	4.94500e+02
3031	4.95518e+02	3.03100e+03	-1.83591e-02	4.95167e+02
3035	4.96195e+02	3.03500e+03	-1.85637e-02	4.95833e+02
3039	4.96840e+02	3.03900e+03	-1.86991e-02	4.96500e+02
3043	4.97507e+02	3.04300e+03	-1.86410e-02	4.97167e+02
3047	4.98180e+02	3.04700e+03	-1.86089e-02	4.97833e+02
3051	4.98839e+02	3.05100e+03	-1.86262e-02	4.98500e+02
3055	4.99514e+02	3.05500e+03	-1.86452e-02	4.99167e+02
3059	5.00178e+02	3.05900e+03	-1.86715e-02	4.99833e+02
3063	5.00851e+02	3.06300e+03	-1.87359e-02	5.00500e+02
3067	5.01513e+02	3.06700e+03	-1.88136e-02	5.01167e+02
3071	5.02168e+02	3.07100e+03	-1.88033e-02	5.01833e+02
3075	5.02825e+02	3.07500e+03	-1.87742e-02	5.02500e+02
3079	5.03502e+02	3.07900e+03	-1.87995e-02	5.03167e+02
3083	5.04162e+02	3.08300e+03	-1.88321e-02	5.03833e+02
3087	5.04829e+02	3.08700e+03	-1.88155e-02	5.04500e+02
3091	5.05485e+02	3.09100e+03	-1.88152e-02	5.05167e+02
3095	5.06148e+02	3.09500e+03	-1.88528e-02	5.05833e+02
3099	5.06804e+02	3.09900e+03	-1.88647e-02	5.06500e+02
3103	5.07467e+02	3.10300e+03	-1.89022e-02	5.07167e+02
3107	5.08130e+02	3.10700e+03	-1.89629e-02	5.07833e+02
3111	5.08802e+02	3.11100e+03	-1.89376e-02	5.08500e+02
3115	5.09461e+02	3.11500e+03	-1.88294e-02	5.09167e+02
3119	5.10126e+02	3.11900e+03	-1.88587e-02	5.09833e+02
3123	5.10794e+02	3.12300e+03	-1.90444e-02	5.10500e+02
3127	5.11468e+02	3.12700e+03	-1.91282e-02	5.11167e+02
3131	5.12128e+02	3.13100e+03	-1.90481e-02	5.11833e+02
3135	5.12794e+02	3.13500e+03	-1.89715e-02	5.12500e+02
3139	5.13454e+02	3.13900e+03	-1.90086e-02	5.13167e+02
3143	5.14102e+02	3.14300e+03	-1.90283e-02	5.13833e+02
3147	5.14786e+02	3.14700e+03	-1.89213e-02	5.14500e+02
3151	5.15435e+02	3.15100e+03	-1.87909e-02	5.15167e+02
3155	5.16104e+02	3.15500e+03	-1.87688e-02	5.15833e+02
3159	5.16770e+02	3.15900e+03	-1.89090e-02	5.16500e+02
3163	5.17438e+02	3.16300e+03	-1.90111e-02	5.17167e+02
3167	5.18104e+02	3.16700e+03	-1.90293e-02	5.17833e+02
3171	5.18762e+02	3.17100e+03	-1.90552e-02	5.18500e+02
3175	5.19430e+02	3.17500e+03	-1.90404e-02	5.19167e+02
3179	5.20094e+02	3.17900e+03	-1.90228e-02	5.19833e+02
3183	5.20750e+02	3.18300e+03	-1.89503e-02	5.20500e+02
3187	5.21423e+02	3.18700e+03	-1.87957e-02	5.21167e+02
3191	5.22084e+02	3.19100e+03	-1.87857e-02	5.21833e+02
3195	5.22752e+02	3.19500e+03	-1.89025e-02	5.22500e+02
3199	5.23430e+02	3.19900e+03	-1.89074e-02	5.23167e+02
3203	5.24088e+02	3.20300e+03	-1.88397e-02	5.23833e+02
3207	5.24757e+02	3.20700e+03	-1.88006e-02	5.24500e+02
3211	5.25419e+02	3.21100e+03	-1.88110e-02	5.25167e+02
3215	5.26102e+02	3.21500e+03	-1.88814e-02	5.25833e+02
3219	5.26780e+02	3.21900e+03	-1.89668e-02	5.26500e+02
3223	5.27441e+02	3.22300e+03	-1.90312e-02	5.27167e+02
3227	5.28124e+02	3.22700e+03	-1.90838e-02	5.27833e+02
3231	5.28786e+02	3.23100e+03	-1.91345e-02	5.28500e+02
3235	5.29448e+02	3.23500e+03	-1.91615e-02	5.29167e+02
3239	5.30126e+02	3.23900e+03	-1.91479e-02	5.29833e+02
3243	5.30794e+02	3.24300e+03	-1.91568e-02	5.30500e+02
3247	5.31463e+02	3.24700e+03	-1.92025e-02	5.31167e+02
3251	5.32151e+02	3.25100e+03	-1.91586e-02	5.31833e+02
3255	5.32823e+02	3.25500e+03	-1.90715e-02	5.32500e+02
3259	5.33501e+02	3.25900e+03	-1.90253e-02	5.33167e+02
3263	5.34185e+02	3.26300e+03	-1.89696e-02	5.33833e+02
3267	5.34860e+02	3.26700e+03	-1.89387e-02	5.34500e+02
3271	5.35544e+02	3.27100e+03	-1.90190e-02	5.35167e+02
3275	5.36231e+02	3.27500e+03	-1.91657e-02	5.35833e+02
3279	5.36905e+02	3.27900e+03	-1.92439e-02	5.36500e+02
3283	5.37578e+02	3.28300e+03	-1.93174e-02	5.37167e+02
3287	5.38254e+02	3.28700e+03	-1.93907e-02	5.37833e+02
3291	5.38931e+02	3.29100e+03	-1.93293e-02	5.38500e+02
3295	5.39623e+02	3.29500e+03	-1.91892e-02	5.39167e+02
3299	5.40310e+02	3.29900e+03	-1.90943e-02	5.39833e+02
3303	5.41001e+02	3.30300e+03	-1.90607e-02	5.40500e+02
3307	5.41678e+02	3.30700e+03	-1.90945e-02	5.41167e+02
3311	5.42346e+02	3.31100e+03	-1.91868e-02	5.41833e+02
3315	5.43006e+02	3.31500e+03	-1.93956e-02	5.42500e+02
3319	5.43678e+02	3.31900e+03	-1.96510e-02	5.43167e+02
3323	5.44382e+02	3.32300e+03	-1.96382e-02	5.43833e+02
3327	5.45058e+02	3.32700e+03	-1.93039e-02	5.44500e+02
3331	5.45742e+02	3.33100e+03	-1.89949e-02	5.45167e+02
3335	5.46405e+02	3.33500e+03	-1.89801e-02	5.45833e+02
3339	5.47066e+02	3.33900e+03	-1.91423e-02	5.46500e+02
3343	5.47736e+02	3.34300e+03	-1.93109e-02	5.47167e+02
3347	5.48422e+02	3.34700e+03	-1.94070e-02	5.47833e+02
3351	5.49096e+02	3.35100e+03	-1.93851e-02	5.48500e+02
3355	5.49771e+02	3.35500e+03	-1.92888e-02	5.49167e+02
3359	5.50429e+02	3.35900e+03	-1.92556e-02	5.49833e+02
3363	5.51087e+02	3.36300e+03	-1.92814e-02	5.50500e+02
3367	5.51771e+02	3.36700e+03	-1.92274e-02	5.51167e+02
3371	5.52453e+02	3.37100e+03	-1.92159e-02	5.51833e+02
3375	5.53146e+02	3.37500e+03	-1.93025e-02	5.52500e+02
3379	5.53829e+02	3.37900e+03	-1.92749e-02	5.53167e+02
3383	5.54528e+02	3.38300e+03	-1.91919e-02	5.53833e+02
3387	5.55222e+02	3.38700e+03	-1.91889e-02	5.54500e+02
3391	5.55900e+02	3.39100e+03	-1.92007e-02	5.55167e+02
3395	5.56590e+02	3.39500e+03	-1.93354e-02	5.55833e+02
3399	5.57314e+02	3.39900e+03	-1.95909e-02	5.56500e+02
3403	5.58011e+02	3.40300e+03	-1.96848e-02	5.57167e+02
3407	5.58727e+02	3.40700e+03	-1.95471e-02	5.57833e+02
3411	5.59388e+02	3.41100e+03	-1.94300e-02	5.58500e+02
3415	5.60043e+02	3.41500e+03	-1.94718e-02	5.59167e+02
3419	5.60721e+02	3.41900e+03	-1.95723e-02	5.59833e+02
3423	5.61366e+02	3.42300e+03	-1.96091e-02	5.60500e+02
3427	5.62016e+02	3.42700e+03	-1.95665e-02	5.61167e+02
3431	5.62682e+02	3.43100e+03	-1.95580e-02	5.61833e+02
3435	5.63318e+02	3.43500e+03	-1.95922e-02	5.62500e+02
3439	5.63957e+02	3.43900e+03	-1.95868e-02	5.63167e+02
3443	5.64611e+02	3.44300e+03	-1.95766e-02	5.63833e+02
3447	5.65258e+02	3.44700e+03	-1.95250e-02	5.64500e+02
3451	5.65904e+02	3.45100e+03	-1.94705e-02	5.65167e+02
3455	5.66562e+02	3.45500e+03	-1.95492e-02	5.65833e+02
3459	5.67225e+02	3.45900e+03	-1.96340e-02	5.66500e+02
3463	5.67888e+02	3.46300e+03	-1.95723e-02	5.67167e+02
3467	5.68548e+02	3.46700e+03	-1.95191e-02	5.67833e+02
3471	5.69186e+02	3.47100e+03	-1.96166e-02	5.68500e+02
3475	5.69836e+02	3.47500e+03	-1.97171e-02	5.69167e+02
3479	5.70504e+02	3.47900e+03	-1.97413e-02	5.69833e+02
3483	5.71153e+02	3.48300e+03	-1.97597e-02	5.70500e+02
3487	5.71807e+02	3.48700e+03	-1.97021e-02	5.71167e+02
3491	5.72470e+02	3.49100e+03	-1.95549e-02	5.71833e+02
3495	5.73149e+02	3.49500e+03	-1.94869e-02	5.72500e+02
3499	5.73801e+02	3.49900e+03	-1.94840e-02	5.73167e+02
3503	5.74466e+02	3.50300e+03	-1.94601e-02	5.73833e+02
3507	5.75118e+02	3.50700e+03	-1.94804e-02	5.74500e+02
3511	5.75780e+02	3.51100e+03	-1.96544e-02	5.75167e+02
3515	5.76417e+02	3.51500e+03	-1.98269e-02	5.75833e+02
3519	5.77080e+02	3.51900e+03	-1.98574e-02	5.76500e+02
3523	5.77742e+02	3.52300e+03	-1.98158e-02	5.77167e+02
3527	5.78398e+02	3.52700e+03	-1.96829e-02	5.77833e+02
3531	5.79062e+02	3.53100e+03	-1.95815e-02	5.78500e+02
3535	5.79717e+02	3.53500e+03	-1.96088e-02	5.79167e+02
3539	5.80385e+02	3.53900e+03	-1.96927e-02	5.79833e+02
3543	5.81046e+02	3.54300e+03	-1.97399e-02	5.80500e+02
3547	5.81706e+02	3.54700e+03	-1.97151e-02	5.81167e+02
3551	5.82366e+02	3.55100e+03	-1.96969e-02	5.81833e+02
3555	5.83013e+02	3.55500e+03	-1.97194e-02	5.82500e+02
3559	5.83682e+02	3.55900e+03	-1.97179e-02	5.83167e+02
3563	5.84325e+02	3.56300e+03	-1.96794e-02	5.83833e+02
3567	5.84973e+02	3.56700e+03	-1.96565e-02	5.84500e+02
3571	5.85631e+02	3.57100e+03	-1.96871e-02	5.85167e+02
3575	5.86276e+02	3.57500e+03	-1.97648e-02	5.85833e+02
3579	5.86917e+02	3.57900e+03	-1.98069e-02	5.86500e+02
3583	5.87573e+02	3.58300e+03	-1.98066e-02	5.87167e+02
3587	5.88230e+02	3.58700e+03	-1.97810e-02	5.87833e+02
3591	5.88877e+02	3.59100e+03	-1.98089e-02	5.88500e+02
3595	5.89548e+02	3.59500e+03	-1.99776e-02	5.89167e+02
3599	5.90200e+02	3.59900e+03	-2.01533e-02	5.89833e+02
3603	5.90866e+02	3.60300e+03	-2.02198e-02	5.90500e+02
3607	5.91516e+02	3.60700e+03	-2.01770e-02	5.91167e+02
3611	5.92176e+02	3.61100e+03	-2.00849e-02	5.91833e+02
3615	5.92833e+02	3.61500e+03	-2.00273e-02	5.92500e+02
3619	5.93491e+02	3.61900e+03	-1.99876e-02	5.93167e+02
3623	5.94156e+02	3.62300e+03	-1.99858e-02	5.93833e+02
3627	5.94805e+02	3.62700e+03	-2.00175e-02	5.94500e+02
3631	5.95464e+02	3.63100e+03	-1.99357e-02	5.95167e+02
3635	5.96127e+02	3.63500e+03	-1.98200e-02	5.95833e+02
3639	5.96787e+02	3.63900e+03	-1.98689e-02	5.96500e+02
3643	5.97456e+02	3.64300e+03	-2.00547e-02	5.97167e+02
3647	5.98114e+02	3.64700e+03	-2.01650e-02	5.97833e+02
3651	5.98792e+02	3.65100e+03	-2.01484e-02	5.98500e+02
3655	5.99440e+02	3.65500e+03	-2.00938e-02	5.99167e+02
3659	6.00105e+02	3.65900e+03	-2.00342e-02	5.99833e+02
3663	6.00744e+02	3.66300e+03	-2.00625e-02	6.00500e+02
3667	6.01399e+02	3.66700e+03	-2.01751e-02	6.01167e+02
3671	6.02074e+02	3.67100e+03	-2.02219e-02	6.01833e+02
3675	6.02740e+02	3.67500e+03	-2.01497e-02	6.02500e+02
3679	6.03391e+02	3.67900e+03	-2.01139e-02	6.03167e+02
3683	6.04048e+02	3.68300e+03	-2.01972e-02	6.03833e+02
3687	6.04703e+02	3.68700e+03	-2.02705e-02	6.04500e+02
3691	6.05352e+02	3.69100e+03	-2.02715e-02	6.05167e+02
3695	6.06021e+02	3.69500e+03	-2.02661e-02	6.05833e+02
3699	6.06681e+02	3.69900e+03	-2.02385e-02	6.06500e+02
3703	6.07361e+02	3.70300e+03	-2.02225e-02	6.07167e+02
3707	6.08039e+02	3.70700e+03	-2.02828e-02	6.07833e+02
3711	6.08726e+02	3.71100e+03	-2.03460e-02	6.08500e+02
3715	6.09395e+02	3.71500e+03	-2.03485e-02	6.09167e+02
3719	6.10069e+02	3.71900e+03	-2.02872e-02	6.09833e+02
3723	6.10730e+02	3.72300e+03	-2.02121e-02	6.10500e+02
3727	6.11425e+02	3.72700e+03	-2.01964e-02	6.11167e+02
3731	6.12109e+02	3.73100e+03	-2.02013e-02	6.11833e+02
3735	6.12774e+02	3.73500e+03	-2.01517e-02	6.12500e+02
3739	6.13426e+02	3.73900e+03	-2.01295e-02	6.13167e+02
3743	6.14099e+02	3.74300e+03	-2.02344e-02	6.13833e+02
3747	6.14768e+02	3.74700e+03	-2.04152e-02	6.14500e+02
3751	6.15436e+02	3.75100e+03	-2.05321e-02	6.15167e+02
3755	6.16103e+02	3.75500e+03	-2.05043e-02	6.15833e+02
3759	6.16761e+02	3.75900e+03	-2.04289e-02	6.16500e+02
3763	6.17403e+02	3.76300e+03	-2.04301e-02	6.17167e+02
3767	6.18067e+02	3.76700e+03	-2.04608e-02	6.17833e+02
3771	6.18724e+02	3.77100e+03	-2.05090e-02	6.18500e+02
3775	6.19372e+02	3.77500e+03	-2.06000e-02	6.19167e+02
3779	6.20042e+02	3.77900e+03	-2.05870e-02	6.19833e+02
3783	6.20689e+02	3.78300e+03	-2.05092e-02	6.20500e+02
3787	6.21360e+02	3.78700e+03	-2.04570e-02	6.21167e+02
3791	6.22010e+02	3.79100e+03	-2.03839e-02	6.21833e+02
3795	6.22668e+02	3.79500e+03	-2.03660e-02	6.22500e+02
3799	6.23327e+02	3.79900e+03	-2.04720e-02	6.23167e+02
3803	6.23987e+02	3.80300e+03	-2.06183e-02	6.23833e+02
3807	6.24658e+02	3.80700e+03	-2.06855e-02	6.24500e+02
3811	6.25330e+02	3.81100e+03	-2.06350e-02	6.25167e+02
3815	6.25997e+02	3.81500e+03	-2.05813e-02	6.25833e+02
3819	6.26662e+02	3.81900e+03	-2.05918e-02	6.26500e+02
3823	6.27317e+02	3.82300e+03	-2.06034e-02	6.27167e+02
3827	6.28009e+02	3.82700e+03	-2.05970e-02	6.27833e+02
3831	6.28660e+02	3.83100e+03	-2.05615e-02	6.28500e+02
3835	6.29307e+02	3.83500e+03	-2.05172e-02	6.29167e+02
3839	6.29964e+02	3.83900e+03	-2.04593e-02	6.29833e+02
3843	6.30632e+02	3.84300e+03	-2.04422e-02	6.30500e+02
3847	6.31289e+02	3.84700e+03	-2.04948e-02	6.31167e+02
3851	6.31964e+02	3.85100e+03	-2.05807e-02	6.31833e+02
3855	6.32616e+02	3.85500e+03	-2.06473e-02	6.32500e+02
3859	6.33275e+02	3.85900e+03	-2.06155e-02	6.33167e+02
3863	6.33924e+02	3.86300e+03	-2.05559e-02	6.33833e+02
3867	6.34581e+02	3.86700e+03	-2.05628e-02	6.34500e+02
3871	6.35228e+02	3.87100e+03	-2.06175e-02	6.35167e+02
3875	6.35874e+02	3.87500e+03	-2.06697e-02	6.35833e+02
3879	6.36534e+02	3.87900e+03	-2.06504e-02	6.36500e+02
3883	6.37205e+02	3.88300e+03	-2.05720e-02	6.37167e+02
3887	6.37859e+02	3.88700e+03	-2.05456e-02	6.37833e+02
3891	6.38516e+02	3.89100e+03	-2.06174e-02	6.38500e+02
3895	6.39183e+02	3.89500e+03	-2.07333e-02	6.39167e+02
3899	6.39860e+02	3.89900e+03	-2.07788e-02	6.39833e+02
3903	6.40523e+02	3.90300e+03	-2.06977e-02	6.40500e+02
3907	6.41185e+02	3.90700e+03	-2.06445e-02	6.41167e+02
3911	6.41844e+02	3.91100e+03	-2.06854e-02	6.41833e+02
3915	6.42512e+02	3.91500e+03	-2.07122e-02	6.42500e+02
3919	6.43185e+02	3.91900e+03	-2.07501e-02	6.43167e+02
3923	6.43833e+02	3.92300e+03	-2.07809e-02	6.43833e+02
3927	6.44503e+02	3.92700e+03	-2.07779e-02	6.44500e+02
3931	6.45154e+02	3.93100e+03	-2.08417e-02	6.45167e+02
3935	6.45814e+02	3.93500e+03	-2.09173e-02	6.45833e+02
3939	6.46488e+02	3.93900e+03	-2.09082e-02	6.46500e+02
3943	6.47147e+02	3.94300e+03	-2.08798e-02	6.47167e+02
3947	6.47808e+02	3.94700e+03	-2.08703e-02	6.47833e+02
3951	6.48465e+02	3.95100e+03	-2.08497e-02	6.48500e+02
3955	6.49117e+02	3.95500e+03	-2.08361e-02	6.49167e+02
3959	6.49778e+02	3.95900e+03	-2.08573e-02	6.49833e+02
3963	6.50442e+02	3.96300e+03	-2.09144e-02	6.50500e+02
3967	6.51103e+02	3.96700e+03	-2.09906e-02	6.51167e+02
3971	6.51759e+02	3.97100e+03	-2.10603e-02	6.51833e+02
3975	6.52430e+02	3.97500e+03	-2.10565e-02	6.52500e+02
3979	6.53084e+02	3.97900e+03	-2.09970e-02	6.53167e+02
3983	6.53755e+02	3.98300e+03	-2.10326e-02	6.53833e+02
3987	6.54423e+02	3.98700e+03	-2.11342e-02	6.54500e+02
3991	6.55079e+02	3.99100e+03	-2.11727e-02	6.55167e+02
3995	6.55746e+02	3.99500e+03	-2.11555e-02	6.55833e+02
3999	6.56415e+02	3.99900e+03	-2.11497e-02	6.56500e+02
4003	6.57080e+02	4.00300e+03	-2.11502e-02	6.57167e+02
4007	6.57740e+02	4.00700e+03	-2.11103e-02	6.57833e+02
4011	6.58395e+02	4.01100e+03	-2.10827e-02	6.58500e+02
4015	6.59051e+02	4.01500e+03	-2.11135e-02	6.59167e+02
4019	6.59710e+02	4.01900e+03	-2.11515e-02	6.59833e+02
4023	6.60377e+02	4.02300e+03	-2.11830e-02	6.60500e+02
4027	6.61050e+02	4.02700e+03	-2.12121e-02	6.61167e+02
4031	6.61715e+02	4.03100e+03	-2.12040e-02	6.61833e+02
4035	6.62384e+02	4.03500e+03	-2.11462e-02	6.62500e+02
4039	6.63059e+02	4.03900e+03	-2.10968e-02	6.63167e+02
4043	6.63717e+02	4.04300e+03	-2.11258e-02	6.63833e+02
4047	6.64383e+02	4.04700e+03	-2.12363e-02	6.64500e+02
4051	6.65037e+02	4.05100e+03	-2.12706e-02	6.65167e+02
4055	6.65712e+02	4.05500e+03	-2.11572e-02	6.65833e+02
4059	6.66382e+02	4.05900e+03	-2.10876e-02	6.66500e+02
4063	6.67039e+02	4.06300e+03	-2.11398e-02	6.67167e+02
4067	6.67706e+02	4.06700e+03	-2.12165e-02	6.67833e+02
4071	6.68367e+02	4.07100e+03	-2.12339e-02	6.68500e+02
4075	6.69047e+02	4.07500e+03	-2.12437e-02	6.69167e+02
4079	6.69705e+02	4.07900e+03	-2.12836e-02	6.69833e+02
4083	6.70373e+02	4.08300e+03	-2.13069e-02	6.70500e+02
4087	6.71036e+02	4.08700e+03	-2.12768e-02	6.71167e+02
4091	6.71709e+02	4.09100e+03	-2.12156e-02	6.71833e+02
4095	6.72377e+02	4.09500e+03	-2.11859e-02	6.72500e+02
4099	6.73045e+02	4.09900e+03	-2.11740e-02	6.73167e+02
4103	6.73714e+02	4.10300e+03	-2.11587e-02	6.73833e+02
4107	6.74374e+02	4.10700e+03	-2.11182e-02	6.74500e+02
4111	6.75029e+02	4.11100e+03	-2.11679e-02	6.75167e+02
4115	6.75672e+02	4.11500e+03	-2.13141e-02	6.75833e+02
4119	6.76323e+02	4.11900e+03	-2.14056e-02	6.76500e+02
4123	6.76977e+02	4.12300e+03	-2.14105e-02	6.77167e+02
4127	6.77623e+02	4.12700e+03	-2.13782e-02	6.77833e+02
4131	6.78270e+02	4.13100e+03	-2.13875e-02	6.78500e+02
4135	6.78927e+02	4.13500e+03	-2.14653e-02	6.79167e+02
4139	6.79576e+02	4.13900e+03	-2.15823e-02	6.79833e+02
4143	6.80243e+02	4.14300e+03	-2.16974e-02	6.80500e+02
4147	6.80900e+02	4.14700e+03	-2.17261e-02	6.81167e+02
4151	6.81564e+02	4.15100e+03	-2.16364e-02	6.81833e+02
4155	6.82212e+02	4.15500e+03	-2.15142e-02	6.82500e+02
4159	6.82880e+02	4.15900e+03	-2.14283e-02	6.83167e+02
4163	6.83547e+02	4.16300e+03	-2.13946e-02	6.83833e+02
4167	6.84191e+02	4.16700e+03	-2.13466e-02	6.84500e+02
4171	6.84877e+02	4.17100e+03	-2.13391e-02	6.85167e+02
4175	6.85545e+02	4.17500e+03	-2.13991e-02	6.85833e+02
4179	6.86209e+02	4.17900e+03	-2.14461e-02	6.86500e+02
4183	6.86873e+02	4.18300e+03	-2.14423e-02	6.87167e+02
4187	6.87538e+02	4.18700e+03	-2.14374e-02	6.87833e+02
4191	6.88207e+02	4.19100e+03	-2.15076e-02	6.88500e+02
4195	6.88865e+02	4.19500e+03	-2.15327e-02	6.89167e+02
4199	6.89532e+02	4.19900e+03	-2.14550e-02	6.89833e+02
4203	6.90187e+02	4.20300e+03	-2.13342e-02	6.90500e+02
4207	6.90863e+02	4.20700e+03	-2.12374e-02	6.91167e+02
4211	6.91522e+02	4.21100e+03	-2.12215e-02	6.91833e+02
4215	6.92190e+02	4.21500e+03	-2.12675e-02	6.92500e+02
4219	6.92829e+02	4.21900e+03	-2.13524e-02	6.93167e+02
4223	6.93493e+02	4.22300e+03	-2.14027e-02	6.93833e+02
4227	6.94151e+02	4.22700e+03	-2.14624e-02	6.94500e+02
4231	6.94814e+02	4.23100e+03	-2.15295e-02	6.95167e+02
4235	6.95360e+02	4.23500e+03	-2.15179e-02	6.95833e+02
4239	6.95777e+02	4.23900e+03	-2.14658e-02	6.96500e+02
4243	6.96228e+02	4.24300e+03	-2.14190e-02	6.97167e+02
4247	6.96630e+02	4.24700e+03	-2.15189e-02	6.97833e+02
4251	6.96976e+02	4.25100e+03	-2.16791e-02	6.98500e+02
4255	6.97301e+02	4.25500e+03	-2.16723e-02	6.99167e+02
4259	6.97588e+02	4.25900e+03	-2.15807e-02	6.99833e+02
4260	6.97653e+02	4.26000e+03	-2.15773e-02	7.00000e+02