File: Experiments/TUBS/tga_nonisotherm/tga_dynamic_n2_dyn30_piece_12mg_r1.txt
index	ts	t	weight	tr
[#]	[°C]	[s]	[mg]	[°C]
683	1.30550e+02	6.83000e+02	1.19636e+01	1.31500e+02
685	1.31561e+02	6.85000e+02	1.19636e+01	1.32500e+02
687	1.32533e+02	6.87000e+02	1.19636e+01	1.33500e+02
689	1.33535e+02	6.89000e+02	1.19636e+01	1.34500e+02
691	1.34533e+02	6.91000e+02	1.19636e+01	1.35500e+02
693	1.35528e+02	6.93000e+02	1.19636e+01	1.36500e+02
695	1.36535e+02	6.95000e+02	1.19636e+01	1.37500e+02
697	1.37548e+02	6.97000e+02	1.19636e+01	1.38500e+02
699	1.38547e+02	6.99000e+02	1.19635e+01	1.39500e+02
701	1.39537e+02	7.01000e+02	1.19635e+01	1.40500e+02
703	1.40543e+02	7.03000e+02	1.19634e+01	1.41500e+02
705	1.41545e+02	7.05000e+02	1.19634e+01	1.42500e+02
707	1.42539e+02	7.07000e+02	1.19634e+01	1.43500e+02
709	1.43553e+02	7.09000e+02	1.19634e+01	1.44500e+02
711	1.44553e+02	7.11000e+02	1.19634e+01	1.45500e+02
713	1.45557e+02	7.13000e+02	1.19633e+01	1.46500e+02
715	1.46560e+02	7.15000e+02	1.19633e+01	1.47500e+02
717	1.47559e+02	7.17000e+02	1.19633e+01	1.48500e+02
719	1.48561e+02	7.19000e+02	1.19632e+01	1.49500e+02
721	1.49570e+02	7.21000e+02	1.19631e+01	1.50500e+02
723	1.50580e+02	7.23000e+02	1.19630e+01	1.51500e+02
725	1.51590e+02	7.25000e+02	1.19629e+01	1.52500e+02
727	1.52588e+02	7.27000e+02	1.19628e+01	1.53500e+02
729	1.53589e+02	7.29000e+02	1.19627e+01	1.54500e+02
731	1.54599e+02	7.31000e+02	1.19627e+01	1.55500e+02
733	1.55619e+02	7.33000e+02	1.19626e+01	1.56500e+02
735	1.56623e+02	7.35000e+02	1.19625e+01	1.57500e+02
737	1.57634e+02	7.37000e+02	1.19624e+01	1.58500e+02
739	1.58635e+02	7.39000e+02	1.19623e+01	1.59500e+02
741	1.59652e+02	7.41000e+02	1.19622e+01	1.60500e+02
743	1.60659e+02	7.43000e+02	1.19621e+01	1.61500e+02
745	1.61669e+02	7.45000e+02	1.19621e+01	1.62500e+02
747	1.62673e+02	7.47000e+02	1.19621e+01	1.63500e+02
749	1.63686e+02	7.49000e+02	1.19621e+01	1.64500e+02
751	1.64697e+02	7.51000e+02	1.19620e+01	1.65500e+02
753	1.65704e+02	7.53000e+02	1.19620e+01	1.66500e+02
755	1.66719e+02	7.55000e+02	1.19619e+01	1.67500e+02
757	1.67726e+02	7.57000e+02	1.19618e+01	1.68500e+02
759	1.68746e+02	7.59000e+02	1.19617e+01	1.69500e+02
761	1.69755e+02	7.61000e+02	1.19615e+01	1.70500e+02
763	1.70766e+02	7.63000e+02	1.19614e+01	1.71500e+02
765	1.71782e+02	7.65000e+02	1.19613e+01	1.72500e+02
767	1.72784e+02	7.67000e+02	1.19612e+01	1.73500e+02
769	1.73806e+02	7.69000e+02	1.19611e+01	1.74500e+02
771	1.74793e+02	7.71000e+02	1.19609e+01	1.75500e+02
773	1.75817e+02	7.73000e+02	1.19602e+01	1.76500e+02
775	1.76840e+02	7.75000e+02	1.19595e+01	1.77500e+02
777	1.77847e+02	7.77000e+02	1.19588e+01	1.78500e+02
779	1.78855e+02	7.79000e+02	1.19585e+01	1.79500e+02
781	1.79886e+02	7.81000e+02	1.19588e+01	1.80500e+02
783	1.80898e+02	7.83000e+02	1.19591e+01	1.81500e+02
785	1.81913e+02	7.85000e+02	1.19596e+01	1.82500e+02
787	1.82919e+02	7.87000e+02	1.19599e+01	1.83500e+02
789	1.83942e+02	7.89000e+02	1.19598e+01	1.84500e+02
791	1.84956e+02	7.91000e+02	1.19597e+01	1.85500e+02
793	1.85968e+02	7.93000e+02	1.19593e+01	1.86500e+02
795	1.86987e+02	7.95000e+02	1.19590e+01	1.87500e+02
797	1.88004e+02	7.97000e+02	1.19587e+01	1.88500e+02
799	1.89021e+02	7.99000e+02	1.19584e+01	1.89500e+02
801	1.90010e+02	8.01000e+02	1.19578e+01	1.90500e+02
803	1.91037e+02	8.03000e+02	1.19569e+01	1.91500e+02
805	1.92066e+02	8.05000e+02	1.19557e+01	1.92500e+02
807	1.93078e+02	8.07000e+02	1.19548e+01	1.93500e+02
809	1.94098e+02	8.09000e+02	1.19542e+01	1.94500e+02
811	1.95108e+02	8.11000e+02	1.19538e+01	1.95500e+02
813	1.96124e+02	8.13000e+02	1.19537e+01	1.96500e+02
815	1.97136e+02	8.15000e+02	1.19534e+01	1.97500e+02
817	1.98153e+02	8.17000e+02	1.19529e+01	1.98500e+02
819	1.99160e+02	8.19000e+02	1.19523e+01	1.99500e+02
821	2.00161e+02	8.21000e+02	1.19514e+01	2.00500e+02
823	2.01172e+02	8.23000e+02	1.19505e+01	2.01500e+02
825	2.02187e+02	8.25000e+02	1.19494e+01	2.02500e+02
827	2.03197e+02	8.27000e+02	1.19484e+01	2.03500e+02
829	2.04215e+02	8.29000e+02	1.19472e+01	2.04500e+02
831	2.05194e+02	8.31000e+02	1.19457e+01	2.05500e+02
833	2.06233e+02	8.33000e+02	1.19437e+01	2.06500e+02
835	2.07250e+02	8.35000e+02	1.19418e+01	2.07500e+02
837	2.08274e+02	8.37000e+02	1.19400e+01	2.08500e+02
839	2.09277e+02	8.39000e+02	1.19387e+01	2.09500e+02
841	2.10303e+02	8.41000e+02	1.19379e+01	2.10500e+02
843	2.11340e+02	8.43000e+02	1.19369e+01	2.11500e+02
845	2.12351e+02	8.45000e+02	1.19360e+01	2.12500e+02
847	2.13373e+02	8.47000e+02	1.19349e+01	2.13500e+02
849	2.14392e+02	8.49000e+02	1.19337e+01	2.14500e+02
851	2.15410e+02	8.51000e+02	1.19325e+01	2.15500e+02
853	2.16428e+02	8.53000e+02	1.19310e+01	2.16500e+02
855	2.17444e+02	8.55000e+02	1.19295e+01	2.17500e+02
857	2.18475e+02	8.57000e+02	1.19279e+01	2.18500e+02
859	2.19490e+02	8.59000e+02	1.19263e+01	2.19500e+02
861	2.20511e+02	8.61000e+02	1.19248e+01	2.20500e+02
863	2.21525e+02	8.63000e+02	1.19232e+01	2.21500e+02
865	2.22552e+02	8.65000e+02	1.19216e+01	2.22500e+02
867	2.23582e+02	8.67000e+02	1.19201e+01	2.23500e+02
869	2.24603e+02	8.69000e+02	1.19185e+01	2.24500e+02
871	2.25645e+02	8.71000e+02	1.19169e+01	2.25500e+02
873	2.26680e+02	8.73000e+02	1.19153e+01	2.26500e+02
875	2.27712e+02	8.75000e+02	1.19136e+01	2.27500e+02
877	2.28752e+02	8.77000e+02	1.19119e+01	2.28500e+02
879	2.29793e+02	8.79000e+02	1.19102e+01	2.29500e+02
881	2.30817e+02	8.81000e+02	1.19085e+01	2.30500e+02
883	2.31859e+02	8.83000e+02	1.19068e+01	2.31500e+02
885	2.32858e+02	8.85000e+02	1.19050e+01	2.32500e+02
887	2.33874e+02	8.87000e+02	1.19033e+01	2.33500e+02
889	2.34894e+02	8.89000e+02	1.19013e+01	2.34500e+02
891	2.35893e+02	8.91000e+02	1.18991e+01	2.35500e+02
893	2.36924e+02	8.93000e+02	1.18966e+01	2.36500e+02
895	2.37940e+02	8.95000e+02	1.18943e+01	2.37500e+02
897	2.38973e+02	8.97000e+02	1.18922e+01	2.38500e+02
899	2.39988e+02	8.99000e+02	1.18904e+01	2.39500e+02
901	2.41012e+02	9.01000e+02	1.18892e+01	2.40500e+02
903	2.42022e+02	9.03000e+02	1.18877e+01	2.41500e+02
905	2.43043e+02	9.05000e+02	1.18861e+01	2.42500e+02
907	2.44067e+02	9.07000e+02	1.18844e+01	2.43500e+02
909	2.45101e+02	9.09000e+02	1.18824e+01	2.44500e+02
911	2.46119e+02	9.11000e+02	1.18805e+01	2.45500e+02
913	2.47165e+02	9.13000e+02	1.18785e+01	2.46500e+02
915	2.48172e+02	9.15000e+02	1.18764e+01	2.47500e+02
917	2.49206e+02	9.17000e+02	1.18743e+01	2.48500e+02
919	2.50245e+02	9.19000e+02	1.18721e+01	2.49500e+02
921	2.51265e+02	9.21000e+02	1.18700e+01	2.50500e+02
923	2.52301e+02	9.23000e+02	1.18679e+01	2.51500e+02
925	2.53332e+02	9.25000e+02	1.18658e+01	2.52500e+02
927	2.54375e+02	9.27000e+02	1.18636e+01	2.53500e+02
929	2.55399e+02	9.29000e+02	1.18614e+01	2.54500e+02
931	2.56420e+02	9.31000e+02	1.18591e+01	2.55500e+02
933	2.57472e+02	9.33000e+02	1.18568e+01	2.56500e+02
935	2.58509e+02	9.35000e+02	1.18545e+01	2.57500e+02
937	2.59585e+02	9.37000e+02	1.18521e+01	2.58500e+02
939	2.60650e+02	9.39000e+02	1.18498e+01	2.59500e+02
941	2.61696e+02	9.41000e+02	1.18474e+01	2.60500e+02
943	2.62734e+02	9.43000e+02	1.18450e+01	2.61500e+02
945	2.63733e+02	9.45000e+02	1.18426e+01	2.62500e+02
947	2.64754e+02	9.47000e+02	1.18401e+01	2.63500e+02
949	2.65764e+02	9.49000e+02	1.18374e+01	2.64500e+02
951	2.66807e+02	9.51000e+02	1.18344e+01	2.65500e+02
953	2.67835e+02	9.53000e+02	1.18310e+01	2.66500e+02
955	2.68874e+02	9.55000e+02	1.18279e+01	2.67500e+02
957	2.69879e+02	9.57000e+02	1.18253e+01	2.68500e+02
959	2.70898e+02	9.59000e+02	1.18230e+01	2.69500e+02
961	2.71925e+02	9.61000e+02	1.18211e+01	2.70500e+02
963	2.72919e+02	9.63000e+02	1.18189e+01	2.71500e+02
965	2.73936e+02	9.65000e+02	1.18165e+01	2.72500e+02
967	2.74959e+02	9.67000e+02	1.18140e+01	2.73500e+02
969	2.75966e+02	9.69000e+02	1.18112e+01	2.74500e+02
971	2.76998e+02	9.71000e+02	1.18084e+01	2.75500e+02
973	2.78032e+02	9.73000e+02	1.18055e+01	2.76500e+02
975	2.79065e+02	9.75000e+02	1.18025e+01	2.77500e+02
977	2.80079e+02	9.77000e+02	1.17994e+01	2.78500e+02
979	2.81105e+02	9.79000e+02	1.17963e+01	2.79500e+02
981	2.82122e+02	9.81000e+02	1.17931e+01	2.80500e+02
983	2.83142e+02	9.83000e+02	1.17898e+01	2.81500e+02
985	2.84165e+02	9.85000e+02	1.17865e+01	2.82500e+02
987	2.85169e+02	9.87000e+02	1.17831e+01	2.83500e+02
989	2.86184e+02	9.89000e+02	1.17796e+01	2.84500e+02
991	2.87194e+02	9.91000e+02	1.17760e+01	2.85500e+02
993	2.88226e+02	9.93000e+02	1.17721e+01	2.86500e+02
995	2.89229e+02	9.95000e+02	1.17679e+01	2.87500e+02
997	2.90249e+02	9.97000e+02	1.17626e+01	2.88500e+02
999	2.91282e+02	9.99000e+02	1.17567e+01	2.89500e+02
1001	2.92311e+02	1.00100e+03	1.17495e+01	2.90500e+02
1003	2.93322e+02	1.00300e+03	1.17426e+01	2.91500e+02
1005	2.94329e+02	1.00500e+03	1.17355e+01	2.92500e+02
1007	2.95362e+02	1.00700e+03	1.17288e+01	2.93500e+02
1009	2.96354e+02	1.00900e+03	1.17224e+01	2.94500e+02
1011	2.97388e+02	1.01100e+03	1.17158e+01	2.95500e+02
1013	2.98408e+02	1.01300e+03	1.17093e+01	2.96500e+02
1015	2.99435e+02	1.01500e+03	1.17032e+01	2.97500e+02
1017	3.00448e+02	1.01700e+03	1.16976e+01	2.98500e+02
1019	3.01459e+02	1.01900e+03	1.16920e+01	2.99500e+02
1021	3.02474e+02	1.02100e+03	1.16865e+01	3.00500e+02
1023	3.03499e+02	1.02300e+03	1.16807e+01	3.01500e+02
1025	3.04508e+02	1.02500e+03	1.16743e+01	3.02500e+02
1027	3.05519e+02	1.02700e+03	1.16679e+01	3.03500e+02
1029	3.06532e+02	1.02900e+03	1.16610e+01	3.04500e+02
1031	3.07555e+02	1.03100e+03	1.16540e+01	3.05500e+02
1033	3.08585e+02	1.03300e+03	1.16467e+01	3.06500e+02
1035	3.09596e+02	1.03500e+03	1.16394e+01	3.07500e+02
1037	3.10613e+02	1.03700e+03	1.16316e+01	3.08500e+02
1039	3.11622e+02	1.03900e+03	1.16237e+01	3.09500e+02
1041	3.12650e+02	1.04100e+03	1.16154e+01	3.10500e+02
1043	3.13674e+02	1.04300e+03	1.16070e+01	3.11500e+02
1045	3.14691e+02	1.04500e+03	1.15983e+01	3.12500e+02
1047	3.15721e+02	1.04700e+03	1.15895e+01	3.13500e+02
1049	3.16746e+02	1.04900e+03	1.15804e+01	3.14500e+02
1051	3.17766e+02	1.05100e+03	1.15712e+01	3.15500e+02
1053	3.18797e+02	1.05300e+03	1.15618e+01	3.16500e+02
1055	3.19825e+02	1.05500e+03	1.15522e+01	3.17500e+02
1057	3.20826e+02	1.05700e+03	1.15421e+01	3.18500e+02
1059	3.21835e+02	1.05900e+03	1.15318e+01	3.19500e+02
1061	3.22861e+02	1.06100e+03	1.15206e+01	3.20500e+02
1063	3.23872e+02	1.06300e+03	1.15091e+01	3.21500e+02
1065	3.24902e+02	1.06500e+03	1.14967e+01	3.22500e+02
1067	3.25902e+02	1.06700e+03	1.14843e+01	3.23500e+02
1069	3.26913e+02	1.06900e+03	1.14711e+01	3.24500e+02
1071	3.27951e+02	1.07100e+03	1.14580e+01	3.25500e+02
1073	3.28986e+02	1.07300e+03	1.14446e+01	3.26500e+02
1075	3.29995e+02	1.07500e+03	1.14314e+01	3.27500e+02
1077	3.31000e+02	1.07700e+03	1.14179e+01	3.28500e+02
1079	3.32008e+02	1.07900e+03	1.14038e+01	3.29500e+02
1081	3.33019e+02	1.08100e+03	1.13887e+01	3.30500e+02
1083	3.34021e+02	1.08300e+03	1.13736e+01	3.31500e+02
1085	3.35029e+02	1.08500e+03	1.13577e+01	3.32500e+02
1087	3.36022e+02	1.08700e+03	1.13418e+01	3.33500e+02
1089	3.37027e+02	1.08900e+03	1.13253e+01	3.34500e+02
1091	3.38037e+02	1.09100e+03	1.13086e+01	3.35500e+02
1093	3.39042e+02	1.09300e+03	1.12911e+01	3.36500e+02
1095	3.40044e+02	1.09500e+03	1.12731e+01	3.37500e+02
1097	3.41018e+02	1.09700e+03	1.12538e+01	3.38500e+02
1099	3.42040e+02	1.09900e+03	1.12338e+01	3.39500e+02
1101	3.43048e+02	1.10100e+03	1.12122e+01	3.40500e+02
1103	3.44048e+02	1.10300e+03	1.11907e+01	3.41500e+02
1105	3.45032e+02	1.10500e+03	1.11681e+01	3.42500e+02
1107	3.46039e+02	1.10700e+03	1.11453e+01	3.43500e+02
1109	3.47045e+02	1.10900e+03	1.11211e+01	3.44500e+02
1111	3.48045e+02	1.11100e+03	1.10959e+01	3.45500e+02
1113	3.49047e+02	1.11300e+03	1.10677e+01	3.46500e+02
1115	3.50029e+02	1.11500e+03	1.10380e+01	3.47500e+02
1117	3.51019e+02	1.11700e+03	1.10048e+01	3.48500e+02
1119	3.52003e+02	1.11900e+03	1.09693e+01	3.49500e+02
1121	3.52996e+02	1.12100e+03	1.09279e+01	3.50500e+02
1123	3.53986e+02	1.12300e+03	1.08832e+01	3.51500e+02
1125	3.54987e+02	1.12500e+03	1.08352e+01	3.52500e+02
1127	3.55921e+02	1.12700e+03	1.07849e+01	3.53500e+02
1129	3.56926e+02	1.12900e+03	1.07313e+01	3.54500e+02
1131	3.57899e+02	1.13100e+03	1.06744e+01	3.55500e+02
1133	3.58882e+02	1.13300e+03	1.06142e+01	3.56500e+02
1135	3.59873e+02	1.13500e+03	1.05526e+01	3.57500e+02
1137	3.60845e+02	1.13700e+03	1.04878e+01	3.58500e+02
1139	3.61829e+02	1.13900e+03	1.04185e+01	3.59500e+02
1141	3.62831e+02	1.14100e+03	1.03431e+01	3.60500e+02
1143	3.63821e+02	1.14300e+03	1.02632e+01	3.61500e+02
1145	3.64807e+02	1.14500e+03	1.01779e+01	3.62500e+02
1147	3.65781e+02	1.14700e+03	1.00906e+01	3.63500e+02
1149	3.66789e+02	1.14900e+03	9.99784e+00	3.64500e+02
1151	3.67784e+02	1.15100e+03	9.90289e+00	3.65500e+02
1153	3.68733e+02	1.15300e+03	9.80258e+00	3.66500e+02
1155	3.69708e+02	1.15500e+03	9.70035e+00	3.67500e+02
1157	3.70631e+02	1.15700e+03	9.59265e+00	3.68500e+02
1159	3.71609e+02	1.15900e+03	9.48226e+00	3.69500e+02
1161	3.72562e+02	1.16100e+03	9.36550e+00	3.70500e+02
1163	3.73516e+02	1.16300e+03	9.24541e+00	3.71500e+02
1165	3.74497e+02	1.16500e+03	9.12178e+00	3.72500e+02
1167	3.75457e+02	1.16700e+03	8.99593e+00	3.73500e+02
1169	3.76464e+02	1.16900e+03	8.86668e+00	3.74500e+02
1171	3.77430e+02	1.17100e+03	8.73469e+00	3.75500e+02
1173	3.78390e+02	1.17300e+03	8.59697e+00	3.76500e+02
1175	3.79320e+02	1.17500e+03	8.45720e+00	3.77500e+02
1177	3.80284e+02	1.17700e+03	8.31134e+00	3.78500e+02
1179	3.81265e+02	1.17900e+03	8.16515e+00	3.79500e+02
1181	3.82224e+02	1.18100e+03	8.01475e+00	3.80500e+02
1183	3.83205e+02	1.18300e+03	7.86336e+00	3.81500e+02
1185	3.84156e+02	1.18500e+03	7.70795e+00	3.82500e+02
1187	3.85101e+02	1.18700e+03	7.55156e+00	3.83500e+02
1189	3.86078e+02	1.18900e+03	7.39133e+00	3.84500e+02
1191	3.87062e+02	1.19100e+03	7.23052e+00	3.85500e+02
1193	3.88036e+02	1.19300e+03	7.06663e+00	3.86500e+02
1195	3.88951e+02	1.19500e+03	6.90226e+00	3.87500e+02
1197	3.89903e+02	1.19700e+03	6.73505e+00	3.88500e+02
1199	3.90857e+02	1.19900e+03	6.56686e+00	3.89500e+02
1201	3.91849e+02	1.20100e+03	6.39516e+00	3.90500e+02
1203	3.92807e+02	1.20300e+03	6.22262e+00	3.91500e+02
1205	3.93769e+02	1.20500e+03	6.04646e+00	3.92500e+02
1207	3.94737e+02	1.20700e+03	5.86935e+00	3.93500e+02
1209	3.95659e+02	1.20900e+03	5.68903e+00	3.94500e+02
1211	3.96571e+02	1.21100e+03	5.50643e+00	3.95500e+02
1213	3.97476e+02	1.21300e+03	5.31824e+00	3.96500e+02
1215	3.98461e+02	1.21500e+03	5.12807e+00	3.97500e+02
1217	3.99444e+02	1.21700e+03	4.93265e+00	3.98500e+02
1219	4.00378e+02	1.21900e+03	4.73482e+00	3.99500e+02
1221	4.01355e+02	1.22100e+03	4.53487e+00	4.00500e+02
1223	4.02308e+02	1.22300e+03	4.33522e+00	4.01500e+02
1225	4.03264e+02	1.22500e+03	4.13480e+00	4.02500e+02
1227	4.04198e+02	1.22700e+03	3.93382e+00	4.03500e+02
1229	4.05189e+02	1.22900e+03	3.73133e+00	4.04500e+02
1231	4.06165e+02	1.23100e+03	3.52591e+00	4.05500e+02
1233	4.07131e+02	1.23300e+03	3.31417e+00	4.06500e+02
1235	4.08089e+02	1.23500e+03	3.09980e+00	4.07500e+02
1237	4.09068e+02	1.23700e+03	2.88403e+00	4.08500e+02
1239	4.10128e+02	1.23900e+03	2.66963e+00	4.09500e+02
1241	4.11194e+02	1.24100e+03	2.45731e+00	4.10500e+02
1243	4.12260e+02	1.24300e+03	2.24640e+00	4.11500e+02
1245	4.13260e+02	1.24500e+03	2.04134e+00	4.12500e+02
1247	4.14367e+02	1.24700e+03	1.84192e+00	4.13500e+02
1249	4.15464e+02	1.24900e+03	1.65231e+00	4.14500e+02
1251	4.16562e+02	1.25100e+03	1.47377e+00	4.15500e+02
1253	4.17652e+02	1.25300e+03	1.31260e+00	4.16500e+02
1255	4.18769e+02	1.25500e+03	1.16391e+00	4.17500e+02
1257	4.19908e+02	1.25700e+03	1.03187e+00	4.18500e+02
1259	4.21054e+02	1.25900e+03	9.11716e-01	4.19500e+02
1261	4.22156e+02	1.26100e+03	8.02528e-01	4.20500e+02
1263	4.23286e+02	1.26300e+03	7.04643e-01	4.21500e+02
1265	4.24397e+02	1.26500e+03	6.16422e-01	4.22500e+02
1267	4.25526e+02	1.26700e+03	5.37665e-01	4.23500e+02
1269	4.26616e+02	1.26900e+03	4.68756e-01	4.24500e+02
1271	4.27689e+02	1.27100e+03	4.05968e-01	4.25500e+02
1273	4.28790e+02	1.27300e+03	3.52656e-01	4.26500e+02
1275	4.29841e+02	1.27500e+03	3.06199e-01	4.27500e+02
1277	4.30905e+02	1.27700e+03	2.65020e-01	4.28500e+02
1279	4.31934e+02	1.27900e+03	2.29712e-01	4.29500e+02
1281	4.32966e+02	1.28100e+03	2.00072e-01	4.30500e+02
1283	4.34012e+02	1.28300e+03	1.72880e-01	4.31500e+02
1285	4.35077e+02	1.28500e+03	1.51515e-01	4.32500e+02
1287	4.36161e+02	1.28700e+03	1.32241e-01	4.33500e+02
1289	4.37241e+02	1.28900e+03	1.16401e-01	4.34500e+02
1291	4.38287e+02	1.29100e+03	1.01379e-01	4.35500e+02
1293	4.39369e+02	1.29300e+03	8.97040e-02	4.36500e+02
1295	4.40456e+02	1.29500e+03	7.84434e-02	4.37500e+02
1297	4.41510e+02	1.29700e+03	6.97424e-02	4.38500e+02
1299	4.42513e+02	1.29900e+03	6.13112e-02	4.39500e+02
1301	4.43539e+02	1.30100e+03	5.47575e-02	4.40500e+02
1303	4.44572e+02	1.30300e+03	4.83695e-02	4.41500e+02
1305	4.45590e+02	1.30500e+03	4.31088e-02	4.42500e+02
1307	4.46618e+02	1.30700e+03	3.77948e-02	4.43500e+02
1309	4.47637e+02	1.30900e+03	3.33434e-02	4.44500e+02
1311	4.48668e+02	1.31100e+03	2.93583e-02	4.45500e+02
1313	4.49703e+02	1.31300e+03	2.65811e-02	4.46500e+02
1315	4.50735e+02	1.31500e+03	2.39969e-02	4.47500e+02
1317	4.51767e+02	1.31700e+03	2.22841e-02	4.48500e+02
1319	4.52838e+02	1.31900e+03	2.04266e-02	4.49500e+02
1321	4.53921e+02	1.32100e+03	1.88228e-02	4.50500e+02
1323	4.55050e+02	1.32300e+03	1.72095e-02	4.51500e+02
1325	4.56165e+02	1.32500e+03	1.57510e-02	4.52500e+02
1327	4.57346e+02	1.32700e+03	1.43671e-02	4.53500e+02
1329	4.58382e+02	1.32900e+03	1.32131e-02	4.54500e+02
1331	4.59385e+02	1.33100e+03	1.21413e-02	4.55500e+02
1333	4.60401e+02	1.33300e+03	1.13479e-02	4.56500e+02
1335	4.61459e+02	1.33500e+03	1.06181e-02	4.57500e+02
1337	4.62538e+02	1.33700e+03	1.01541e-02	4.58500e+02
1339	4.63721e+02	1.33900e+03	9.71478e-03	4.59500e+02
1341	4.64842e+02	1.34100e+03	9.45809e-03	4.60500e+02
1343	4.65905e+02	1.34300e+03	9.19039e-03	4.61500e+02
1345	4.67253e+02	1.34500e+03	8.99895e-03	4.62500e+02
1347	4.67963e+02	1.34700e+03	8.80401e-03	4.63500e+02
1349	4.68856e+02	1.34900e+03	8.64553e-03	4.64500e+02
1351	4.69903e+02	1.35100e+03	8.48993e-03	4.65500e+02
1353	4.70893e+02	1.35300e+03	8.35788e-03	4.66500e+02
1355	4.71908e+02	1.35500e+03	8.22270e-03	4.67500e+02
1357	4.72896e+02	1.35700e+03	8.10182e-03	4.68500e+02
1359	4.73876e+02	1.35900e+03	7.99306e-03	4.69500e+02
1361	4.74812e+02	1.36100e+03	7.91738e-03	4.70500e+02
1363	4.75850e+02	1.36300e+03	7.85308e-03	4.71500e+02
1365	4.76810e+02	1.36500e+03	7.82490e-03	4.72500e+02
1367	4.77766e+02	1.36700e+03	7.79093e-03	4.73500e+02
1369	4.78712e+02	1.36900e+03	7.75847e-03	4.74500e+02
1371	4.79706e+02	1.37100e+03	7.71044e-03	4.75500e+02
1373	4.80677e+02	1.37300e+03	7.63962e-03	4.76500e+02
1375	4.81694e+02	1.37500e+03	7.56722e-03	4.77500e+02
1377	4.82659e+02	1.37700e+03	7.48550e-03	4.78500e+02
1379	4.83605e+02	1.37900e+03	7.41540e-03	4.79500e+02
1381	4.84578e+02	1.38100e+03	7.36389e-03	4.80500e+02
1383	4.85552e+02	1.38300e+03	7.31970e-03	4.81500e+02
1385	4.86541e+02	1.38500e+03	7.29085e-03	4.82500e+02
1387	4.87514e+02	1.38700e+03	7.24838e-03	4.83500e+02
1389	4.88534e+02	1.38900e+03	7.19203e-03	4.84500e+02
1391	4.89547e+02	1.39100e+03	7.13227e-03	4.85500e+02
1393	4.90513e+02	1.39300e+03	7.07167e-03	4.86500e+02
1395	4.91502e+02	1.39500e+03	7.02412e-03	4.87500e+02
1397	4.92491e+02	1.39700e+03	6.99550e-03	4.88500e+02
1399	4.93467e+02	1.39900e+03	6.96118e-03	4.89500e+02
1401	4.94459e+02	1.40100e+03	6.91700e-03	4.90500e+02
1403	4.95460e+02	1.40300e+03	6.85220e-03	4.91500e+02
1405	4.96425e+02	1.40500e+03	6.74994e-03	4.92500e+02
1407	4.97407e+02	1.40700e+03	6.65324e-03	4.93500e+02
1409	4.98407e+02	1.40900e+03	6.56852e-03	4.94500e+02
1411	4.99409e+02	1.41100e+03	6.50994e-03	4.95500e+02
1413	5.00386e+02	1.41300e+03	6.49305e-03	4.96500e+02
1415	5.01382e+02	1.41500e+03	6.45978e-03	4.97500e+02
1417	5.02364e+02	1.41700e+03	6.41809e-03	4.98500e+02
1419	5.03343e+02	1.41900e+03	6.36539e-03	4.99500e+02
1421	5.04306e+02	1.42100e+03	6.29978e-03	5.00500e+02
1423	5.05326e+02	1.42300e+03	6.24558e-03	5.01500e+02
1425	5.06332e+02	1.42500e+03	6.19874e-03	5.02500e+02
1427	5.07365e+02	1.42700e+03	6.15492e-03	5.03500e+02
1429	5.08383e+02	1.42900e+03	6.12545e-03	5.04500e+02
1431	5.09355e+02	1.43100e+03	6.10657e-03	5.05500e+02
1433	5.10309e+02	1.43300e+03	6.11290e-03	5.06500e+02
1435	5.11257e+02	1.43500e+03	6.11381e-03	5.07500e+02
1437	5.12196e+02	1.43700e+03	6.10096e-03	5.08500e+02
1439	5.13187e+02	1.43900e+03	6.06206e-03	5.09500e+02
1441	5.14191e+02	1.44100e+03	5.98384e-03	5.10500e+02
1443	5.15176e+02	1.44300e+03	5.91566e-03	5.11500e+02
1445	5.16188e+02	1.44500e+03	5.83437e-03	5.12500e+02
1447	5.17190e+02	1.44700e+03	5.73541e-03	5.13500e+02
1449	5.18214e+02	1.44900e+03	5.60220e-03	5.14500e+02
1451	5.19243e+02	1.45100e+03	5.48586e-03	5.15500e+02
1453	5.20223e+02	1.45300e+03	5.43932e-03	5.16500e+02
1455	5.21210e+02	1.45500e+03	5.47336e-03	5.17500e+02
1457	5.22176e+02	1.45700e+03	5.65241e-03	5.18500e+02
1459	5.23166e+02	1.45900e+03	5.78619e-03	5.19500e+02
1461	5.24183e+02	1.46100e+03	5.88337e-03	5.20500e+02
1463	5.25181e+02	1.46300e+03	5.91753e-03	5.21500e+02
1465	5.26200e+02	1.46500e+03	5.83862e-03	5.22500e+02
1467	5.27189e+02	1.46700e+03	5.77071e-03	5.23500e+02
1469	5.28181e+02	1.46900e+03	5.66823e-03	5.24500e+02
1471	5.29185e+02	1.47100e+03	5.58153e-03	5.25500e+02
1473	5.30244e+02	1.47300e+03	5.49735e-03	5.26500e+02
1475	5.31239e+02	1.47500e+03	5.42023e-03	5.27500e+02
1477	5.32241e+02	1.47700e+03	5.36920e-03	5.28500e+02
1479	5.33190e+02	1.47900e+03	5.33723e-03	5.29500e+02
1481	5.34151e+02	1.48100e+03	5.18834e-03	5.30500e+02
1483	5.35082e+02	1.48300e+03	4.39481e-03	5.31500e+02
1485	5.36010e+02	1.48500e+03	1.70810e-03	5.32500e+02
1487	5.36967e+02	1.48700e+03	-3.30824e-03	5.33500e+02
1489	5.37914e+02	1.48900e+03	-1.09213e-02	5.34500e+02
1491	5.38853e+02	1.49100e+03	-1.75740e-02	5.35500e+02
1493	5.39825e+02	1.49300e+03	-2.31263e-02	5.36500e+02
1495	5.40810e+02	1.49500e+03	-2.67865e-02	5.37500e+02
1497	5.41795e+02	1.49700e+03	-2.70025e-02	5.38500e+02
1499	5.42790e+02	1.49900e+03	-2.70485e-02	5.39500e+02
1501	5.43768e+02	1.50100e+03	-2.51180e-02	5.40500e+02
1503	5.44761e+02	1.50300e+03	-2.35152e-02	5.41500e+02
1505	5.45778e+02	1.50500e+03	-2.14204e-02	5.42500e+02
1507	5.46760e+02	1.50700e+03	-1.95302e-02	5.43500e+02
1509	5.47748e+02	1.50900e+03	-1.77283e-02	5.44500e+02
1511	5.48758e+02	1.51100e+03	-1.60253e-02	5.45500e+02
1513	5.49733e+02	1.51300e+03	-1.45503e-02	5.46500e+02
1515	5.50740e+02	1.51500e+03	-1.31356e-02	5.47500e+02
1517	5.51741e+02	1.51700e+03	-1.19525e-02	5.48500e+02
1519	5.52769e+02	1.51900e+03	-1.08061e-02	5.49500e+02
1521	5.53828e+02	1.52100e+03	-9.84881e-03	5.50500e+02
1523	5.54864e+02	1.52300e+03	-8.91604e-03	5.51500e+02
1525	5.55891e+02	1.52500e+03	-8.13754e-03	5.52500e+02
1527	5.56923e+02	1.52700e+03	-7.39419e-03	5.53500e+02
1529	5.57982e+02	1.52900e+03	-6.82525e-03	5.54500e+02
1531	5.59072e+02	1.53100e+03	-6.30415e-03	5.55500e+02
1533	5.60158e+02	1.53300e+03	-5.92474e-03	5.56500e+02
1535	5.60490e+02	1.53500e+03	-5.50388e-03	5.57500e+02
1537	5.60890e+02	1.53700e+03	-5.06331e-03	5.58500e+02
1539	5.61593e+02	1.53900e+03	-4.59772e-03	5.59500e+02
1541	5.62411e+02	1.54100e+03	-4.12879e-03	5.60500e+02
1543	5.63269e+02	1.54300e+03	-3.72924e-03	5.61500e+02
1545	5.64152e+02	1.54500e+03	-3.44940e-03	5.62500e+02
1547	5.65077e+02	1.54700e+03	-3.18614e-03	5.63500e+02
1549	5.66034e+02	1.54900e+03	-3.00516e-03	5.64500e+02
1551	5.67011e+02	1.55100e+03	-2.81293e-03	5.65500e+02
1553	5.67985e+02	1.55300e+03	-2.64841e-03	5.66500e+02
1555	5.68971e+02	1.55500e+03	-2.48624e-03	5.67500e+02
1557	5.69930e+02	1.55700e+03	-2.35361e-03	5.68500e+02
1559	5.70891e+02	1.55900e+03	-2.23454e-03	5.69500e+02
1561	5.71859e+02	1.56100e+03	-2.15798e-03	5.70500e+02
1563	5.72825e+02	1.56300e+03	-2.08548e-03	5.71500e+02
1565	5.73809e+02	1.56500e+03	-2.03899e-03	5.72500e+02
1567	5.74787e+02	1.56700e+03	-1.98982e-03	5.73500e+02
1569	5.75758e+02	1.56900e+03	-1.95001e-03	5.74500e+02
1571	5.76732e+02	1.57100e+03	-1.91046e-03	5.75500e+02
1573	5.77704e+02	1.57300e+03	-1.86887e-03	5.76500e+02
1575	5.78684e+02	1.57500e+03	-1.81926e-03	5.77500e+02
1577	5.79639e+02	1.57700e+03	-1.76279e-03	5.78500e+02
1579	5.80619e+02	1.57900e+03	-1.71391e-03	5.79500e+02
1581	5.81588e+02	1.58100e+03	-1.67694e-03	5.80500e+02
1583	5.82566e+02	1.58300e+03	-1.64483e-03	5.81500e+02
1585	5.83552e+02	1.58500e+03	-1.62652e-03	5.82500e+02
1587	5.84527e+02	1.58700e+03	-1.60633e-03	5.83500e+02
1589	5.85517e+02	1.58900e+03	-1.58249e-03	5.84500e+02
1591	5.86510e+02	1.59100e+03	-1.55148e-03	5.85500e+02
1593	5.87505e+02	1.59300e+03	-1.51084e-03	5.86500e+02
1595	5.88534e+02	1.59500e+03	-1.47568e-03	5.87500e+02
1597	5.89489e+02	1.59700e+03	-1.45523e-03	5.88500e+02
1599	5.90452e+02	1.59900e+03	-1.45212e-03	5.89500e+02
1601	5.91443e+02	1.60100e+03	-1.48477e-03	5.90500e+02
1603	5.92437e+02	1.60300e+03	-1.51642e-03	5.91500e+02
1605	5.93460e+02	1.60500e+03	-1.54985e-03	5.92500e+02
1607	5.94438e+02	1.60700e+03	-1.55986e-03	5.93500e+02
1609	5.95417e+02	1.60900e+03	-1.53666e-03	5.94500e+02
1611	5.96384e+02	1.61100e+03	-1.52144e-03	5.95500e+02
1613	5.97398e+02	1.61300e+03	-1.50735e-03	5.96500e+02
1615	5.98390e+02	1.61500e+03	-1.50858e-03	5.97500e+02
1617	5.99352e+02	1.61700e+03	-1.53034e-03	5.98500e+02
1619	6.00295e+02	1.61900e+03	-1.54845e-03	5.99500e+02
1621	6.01231e+02	1.62100e+03	-1.57493e-03	6.00500e+02
1623	6.02240e+02	1.62300e+03	-1.60399e-03	6.01500e+02
1625	6.03225e+02	1.62500e+03	-1.63928e-03	6.02500e+02
1627	6.04225e+02	1.62700e+03	-1.67224e-03	6.03500e+02
1629	6.05200e+02	1.62900e+03	-1.69507e-03	6.04500e+02
1631	6.06169e+02	1.63100e+03	-1.70715e-03	6.05500e+02
1633	6.07136e+02	1.63300e+03	-1.70293e-03	6.06500e+02
1635	6.08103e+02	1.63500e+03	-1.70561e-03	6.07500e+02
1637	6.09097e+02	1.63700e+03	-1.71554e-03	6.08500e+02
1639	6.10111e+02	1.63900e+03	-1.73377e-03	6.09500e+02
1641	6.11111e+02	1.64100e+03	-1.76143e-03	6.10500e+02
1643	6.12096e+02	1.64300e+03	-1.78094e-03	6.11500e+02
1645	6.13087e+02	1.64500e+03	-1.80016e-03	6.12500e+02
1647	6.14078e+02	1.64700e+03	-1.83080e-03	6.13500e+02
1649	6.15067e+02	1.64900e+03	-1.88445e-03	6.14500e+02
1651	6.16055e+02	1.65100e+03	-1.94092e-03	6.15500e+02
1653	6.17053e+02	1.65300e+03	-2.00065e-03	6.16500e+02
1655	6.18050e+02	1.65500e+03	-2.04606e-03	6.17500e+02
1657	6.19053e+02	1.65700e+03	-2.07569e-03	6.18500e+02
1659	6.20045e+02	1.65900e+03	-2.10014e-03	6.19500e+02
1661	6.21023e+02	1.66100e+03	-2.09695e-03	6.20500e+02
1663	6.22023e+02	1.66300e+03	-2.07618e-03	6.21500e+02
1665	6.23003e+02	1.66500e+03	-2.03037e-03	6.22500e+02
1667	6.23992e+02	1.66700e+03	-2.01542e-03	6.23500e+02
1669	6.24989e+02	1.66900e+03	-2.04336e-03	6.24500e+02
1671	6.25979e+02	1.67100e+03	-2.08903e-03	6.25500e+02
1673	6.26962e+02	1.67300e+03	-2.17544e-03	6.26500e+02
1675	6.27961e+02	1.67500e+03	-2.23910e-03	6.27500e+02
1677	6.28964e+02	1.67700e+03	-2.29333e-03	6.28500e+02
1679	6.29955e+02	1.67900e+03	-2.33902e-03	6.29500e+02
1681	6.30958e+02	1.68100e+03	-2.36315e-03	6.30500e+02
1683	6.31957e+02	1.68300e+03	-2.38521e-03	6.31500e+02
1685	6.32980e+02	1.68500e+03	-2.39123e-03	6.32500e+02
1687	6.33998e+02	1.68700e+03	-2.40226e-03	6.33500e+02
1689	6.35007e+02	1.68900e+03	-2.41388e-03	6.34500e+02
1691	6.36035e+02	1.69100e+03	-2.42612e-03	6.35500e+02
1693	6.37031e+02	1.69300e+03	-2.43451e-03	6.36500e+02
1695	6.38034e+02	1.69500e+03	-2.43149e-03	6.37500e+02
1697	6.39032e+02	1.69700e+03	-2.41083e-03	6.38500e+02
1699	6.40023e+02	1.69900e+03	-2.39570e-03	6.39500e+02
1701	6.41021e+02	1.70100e+03	-2.38943e-03	6.40500e+02
1703	6.41987e+02	1.70300e+03	-2.39601e-03	6.41500e+02
1705	6.42990e+02	1.70500e+03	-2.42646e-03	6.42500e+02
1707	6.43983e+02	1.70700e+03	-2.45417e-03	6.43500e+02
1709	6.44966e+02	1.70900e+03	-2.48840e-03	6.44500e+02
1711	6.45964e+02	1.71100e+03	-2.51695e-03	6.45500e+02
1713	6.46958e+02	1.71300e+03	-2.53792e-03	6.46500e+02
1715	6.47944e+02	1.71500e+03	-2.55778e-03	6.47500e+02
1717	6.48931e+02	1.71700e+03	-2.59537e-03	6.48500e+02
1719	6.49933e+02	1.71900e+03	-2.67186e-03	6.49500e+02
1721	6.50904e+02	1.72100e+03	-2.81242e-03	6.50500e+02
1723	6.51872e+02	1.72300e+03	-2.93044e-03	6.51500e+02
1725	6.52864e+02	1.72500e+03	-2.98682e-03	6.52500e+02
1727	6.53849e+02	1.72700e+03	-2.95704e-03	6.53500e+02
1729	6.54831e+02	1.72900e+03	-2.77100e-03	6.54500e+02
1731	6.55822e+02	1.73100e+03	-2.61115e-03	6.55500e+02
1733	6.56814e+02	1.73300e+03	-2.45254e-03	6.56500e+02
1735	6.57793e+02	1.73500e+03	-2.36407e-03	6.57500e+02
1737	6.58768e+02	1.73700e+03	-2.39788e-03	6.58500e+02
1739	6.59751e+02	1.73900e+03	-2.45156e-03	6.59500e+02
1741	6.60732e+02	1.74100e+03	-2.59298e-03	6.60500e+02
1743	6.61714e+02	1.74300e+03	-2.70563e-03	6.61500e+02
1745	6.62705e+02	1.74500e+03	-2.80898e-03	6.62500e+02
1747	6.63683e+02	1.74700e+03	-2.89029e-03	6.63500e+02
1749	6.64677e+02	1.74900e+03	-2.93113e-03	6.64500e+02
1751	6.65664e+02	1.75100e+03	-2.97196e-03	6.65500e+02
1753	6.66636e+02	1.75300e+03	-2.97742e-03	6.66500e+02
1755	6.67627e+02	1.75500e+03	-2.97538e-03	6.67500e+02
1757	6.68603e+02	1.75700e+03	-2.95234e-03	6.68500e+02
1759	6.69582e+02	1.75900e+03	-2.94528e-03	6.69500e+02
1761	6.70567e+02	1.76100e+03	-2.96812e-03	6.70500e+02
1763	6.71552e+02	1.76300e+03	-3.00723e-03	6.71500e+02
1765	6.72524e+02	1.76500e+03	-3.09017e-03	6.72500e+02
1767	6.73509e+02	1.76700e+03	-3.16227e-03	6.73500e+02
1769	6.74490e+02	1.76900e+03	-3.21476e-03	6.74500e+02
1771	6.75468e+02	1.77100e+03	-3.23838e-03	6.75500e+02
1773	6.76450e+02	1.77300e+03	-3.21313e-03	6.76500e+02
1775	6.77424e+02	1.77500e+03	-3.20153e-03	6.77500e+02
1777	6.78413e+02	1.77700e+03	-3.18659e-03	6.78500e+02
1779	6.79402e+02	1.77900e+03	-3.17826e-03	6.79500e+02
1781	6.80379e+02	1.78100e+03	-3.17914e-03	6.80500e+02
1783	6.81369e+02	1.78300e+03	-3.19516e-03	6.81500e+02
1785	6.82349e+02	1.78500e+03	-3.26930e-03	6.82500e+02
1787	6.83331e+02	1.78700e+03	-3.36692e-03	6.83500e+02
1789	6.84330e+02	1.78900e+03	-3.48589e-03	6.84500e+02
1791	6.85314e+02	1.79100e+03	-3.53064e-03	6.85500e+02
1793	6.86299e+02	1.79300e+03	-3.44239e-03	6.86500e+02
1795	6.86996e+02	1.79500e+03	-3.32915e-03	6.87500e+02
1797	6.87445e+02	1.79700e+03	-3.13973e-03	6.88500e+02
1799	6.88135e+02	1.79900e+03	-3.01741e-03	6.89500e+02
1801	6.88788e+02	1.80100e+03	-2.97787e-03	6.90500e+02
1803	6.89401e+02	1.80300e+03	-2.98711e-03	6.91500e+02
1805	6.89966e+02	1.80500e+03	-3.08527e-03	6.92500e+02
1807	6.90494e+02	1.80700e+03	-3.16333e-03	6.93500e+02
1809	6.91008e+02	1.80900e+03	-3.24121e-03	6.94500e+02
1811	6.91478e+02	1.81100e+03	-3.28128e-03	6.95500e+02
1813	6.91917e+02	1.81300e+03	-3.26219e-03	6.96500e+02
1815	6.92325e+02	1.81500e+03	-3.23379e-03	6.97500e+02
1817	6.92713e+02	1.81700e+03	-3.17154e-03	6.98500e+02
1819	6.93072e+02	1.81900e+03	-3.12597e-03	6.99500e+02
1820	6.93249e+02	1.82000e+03	-3.10899e-03	7.00000e+02