File: Experiments/TUBS/tga_nonisotherm/tga_dynamic_n2_dyn10_piece_1mg_r1.txt
index	ts	t	weight	tr
[#]	[°C]	[s]	[mg]	[°C]
843	1.30783e+02	8.43000e+02	1.03569e+00	1.30500e+02
847	1.31441e+02	8.47000e+02	1.03567e+00	1.31167e+02
851	1.32098e+02	8.51000e+02	1.03562e+00	1.31833e+02
855	1.32790e+02	8.55000e+02	1.03561e+00	1.32500e+02
859	1.33461e+02	8.59000e+02	1.03564e+00	1.33167e+02
863	1.34133e+02	8.63000e+02	1.03562e+00	1.33833e+02
867	1.34801e+02	8.67000e+02	1.03550e+00	1.34500e+02
871	1.35477e+02	8.71000e+02	1.03540e+00	1.35167e+02
875	1.36147e+02	8.75000e+02	1.03537e+00	1.35833e+02
879	1.36815e+02	8.79000e+02	1.03535e+00	1.36500e+02
883	1.37510e+02	8.83000e+02	1.03535e+00	1.37167e+02
887	1.38180e+02	8.87000e+02	1.03541e+00	1.37833e+02
891	1.38847e+02	8.91000e+02	1.03549e+00	1.38500e+02
895	1.39529e+02	8.95000e+02	1.03550e+00	1.39167e+02
899	1.40209e+02	8.99000e+02	1.03548e+00	1.39833e+02
903	1.40874e+02	9.03000e+02	1.03549e+00	1.40500e+02
907	1.41563e+02	9.07000e+02	1.03548e+00	1.41167e+02
911	1.42226e+02	9.11000e+02	1.03541e+00	1.41833e+02
915	1.42899e+02	9.15000e+02	1.03541e+00	1.42500e+02
919	1.43574e+02	9.19000e+02	1.03541e+00	1.43167e+02
923	1.44254e+02	9.23000e+02	1.03524e+00	1.43833e+02
927	1.44926e+02	9.27000e+02	1.03524e+00	1.44500e+02
931	1.45600e+02	9.31000e+02	1.03567e+00	1.45167e+02
935	1.46292e+02	9.35000e+02	1.03598e+00	1.45833e+02
939	1.46954e+02	9.39000e+02	1.03588e+00	1.46500e+02
943	1.47644e+02	9.43000e+02	1.03572e+00	1.47167e+02
947	1.48318e+02	9.47000e+02	1.03561e+00	1.47833e+02
951	1.48999e+02	9.51000e+02	1.03549e+00	1.48500e+02
955	1.49680e+02	9.55000e+02	1.03546e+00	1.49167e+02
959	1.50345e+02	9.59000e+02	1.03543e+00	1.49833e+02
963	1.51027e+02	9.63000e+02	1.03527e+00	1.50500e+02
967	1.51705e+02	9.67000e+02	1.03514e+00	1.51167e+02
971	1.52385e+02	9.71000e+02	1.03514e+00	1.51833e+02
975	1.53063e+02	9.75000e+02	1.03510e+00	1.52500e+02
979	1.53733e+02	9.79000e+02	1.03499e+00	1.53167e+02
983	1.54408e+02	9.83000e+02	1.03490e+00	1.53833e+02
987	1.55080e+02	9.87000e+02	1.03486e+00	1.54500e+02
991	1.55765e+02	9.91000e+02	1.03488e+00	1.55167e+02
995	1.56443e+02	9.95000e+02	1.03492e+00	1.55833e+02
999	1.57114e+02	9.99000e+02	1.03487e+00	1.56500e+02
1003	1.57795e+02	1.00300e+03	1.03475e+00	1.57167e+02
1007	1.58475e+02	1.00700e+03	1.03472e+00	1.57833e+02
1011	1.59149e+02	1.01100e+03	1.03479e+00	1.58500e+02
1015	1.59825e+02	1.01500e+03	1.03478e+00	1.59167e+02
1019	1.60510e+02	1.01900e+03	1.03472e+00	1.59833e+02
1023	1.61183e+02	1.02300e+03	1.03475e+00	1.60500e+02
1027	1.61848e+02	1.02700e+03	1.03483e+00	1.61167e+02
1031	1.62531e+02	1.03100e+03	1.03485e+00	1.61833e+02
1035	1.63214e+02	1.03500e+03	1.03475e+00	1.62500e+02
1039	1.63887e+02	1.03900e+03	1.03464e+00	1.63167e+02
1043	1.64560e+02	1.04300e+03	1.03465e+00	1.63833e+02
1047	1.65251e+02	1.04700e+03	1.03470e+00	1.64500e+02
1051	1.65923e+02	1.05100e+03	1.03463e+00	1.65167e+02
1055	1.66588e+02	1.05500e+03	1.03448e+00	1.65833e+02
1059	1.67282e+02	1.05900e+03	1.03441e+00	1.66500e+02
1063	1.67957e+02	1.06300e+03	1.03436e+00	1.67167e+02
1067	1.68626e+02	1.06700e+03	1.03431e+00	1.67833e+02
1071	1.69308e+02	1.07100e+03	1.03434e+00	1.68500e+02
1075	1.69980e+02	1.07500e+03	1.03434e+00	1.69167e+02
1079	1.70657e+02	1.07900e+03	1.03418e+00	1.69833e+02
1083	1.71331e+02	1.08300e+03	1.03393e+00	1.70500e+02
1087	1.72003e+02	1.08700e+03	1.03376e+00	1.71167e+02
1091	1.72682e+02	1.09100e+03	1.03365e+00	1.71833e+02
1095	1.73358e+02	1.09500e+03	1.03358e+00	1.72500e+02
1099	1.74037e+02	1.09900e+03	1.03359e+00	1.73167e+02
1103	1.74719e+02	1.10300e+03	1.03364e+00	1.73833e+02
1107	1.75385e+02	1.10700e+03	1.03363e+00	1.74500e+02
1111	1.76059e+02	1.11100e+03	1.03347e+00	1.75167e+02
1115	1.76751e+02	1.11500e+03	1.03325e+00	1.75833e+02
1119	1.77421e+02	1.11900e+03	1.03311e+00	1.76500e+02
1123	1.78088e+02	1.12300e+03	1.03298e+00	1.77167e+02
1127	1.78780e+02	1.12700e+03	1.03284e+00	1.77833e+02
1131	1.79458e+02	1.13100e+03	1.03267e+00	1.78500e+02
1135	1.80129e+02	1.13500e+03	1.03248e+00	1.79167e+02
1139	1.80822e+02	1.13900e+03	1.03231e+00	1.79833e+02
1143	1.81489e+02	1.14300e+03	1.03211e+00	1.80500e+02
1147	1.82157e+02	1.14700e+03	1.03187e+00	1.81167e+02
1151	1.82853e+02	1.15100e+03	1.03160e+00	1.81833e+02
1155	1.83516e+02	1.15500e+03	1.03134e+00	1.82500e+02
1159	1.84195e+02	1.15900e+03	1.03113e+00	1.83167e+02
1163	1.84867e+02	1.16300e+03	1.03087e+00	1.83833e+02
1167	1.85541e+02	1.16700e+03	1.03059e+00	1.84500e+02
1171	1.86217e+02	1.17100e+03	1.03035e+00	1.85167e+02
1175	1.86901e+02	1.17500e+03	1.03014e+00	1.85833e+02
1179	1.87573e+02	1.17900e+03	1.02988e+00	1.86500e+02
1183	1.88256e+02	1.18300e+03	1.02950e+00	1.87167e+02
1187	1.88908e+02	1.18700e+03	1.02911e+00	1.87833e+02
1191	1.89603e+02	1.19100e+03	1.02882e+00	1.88500e+02
1195	1.90267e+02	1.19500e+03	1.02856e+00	1.89167e+02
1199	1.90951e+02	1.19900e+03	1.02823e+00	1.89833e+02
1203	1.91630e+02	1.20300e+03	1.02793e+00	1.90500e+02
1207	1.92292e+02	1.20700e+03	1.02769e+00	1.91167e+02
1211	1.92981e+02	1.21100e+03	1.02739e+00	1.91833e+02
1215	1.93641e+02	1.21500e+03	1.02698e+00	1.92500e+02
1219	1.94330e+02	1.21900e+03	1.02653e+00	1.93167e+02
1223	1.95008e+02	1.22300e+03	1.02613e+00	1.93833e+02
1227	1.95690e+02	1.22700e+03	1.02571e+00	1.94500e+02
1231	1.96359e+02	1.23100e+03	1.02518e+00	1.95167e+02
1235	1.97036e+02	1.23500e+03	1.02466e+00	1.95833e+02
1239	1.97702e+02	1.23900e+03	1.02447e+00	1.96500e+02
1243	1.98389e+02	1.24300e+03	1.02448e+00	1.97167e+02
1247	1.99058e+02	1.24700e+03	1.02421e+00	1.97833e+02
1251	1.99737e+02	1.25100e+03	1.02374e+00	1.98500e+02
1255	2.00425e+02	1.25500e+03	1.02324e+00	1.99167e+02
1259	2.01083e+02	1.25900e+03	1.02274e+00	1.99833e+02
1263	2.01764e+02	1.26300e+03	1.02233e+00	2.00500e+02
1267	2.02439e+02	1.26700e+03	1.02202e+00	2.01167e+02
1271	2.03117e+02	1.27100e+03	1.02176e+00	2.01833e+02
1275	2.03801e+02	1.27500e+03	1.02153e+00	2.02500e+02
1279	2.04472e+02	1.27900e+03	1.02126e+00	2.03167e+02
1283	2.05157e+02	1.28300e+03	1.02089e+00	2.03833e+02
1287	2.05822e+02	1.28700e+03	1.02049e+00	2.04500e+02
1291	2.06496e+02	1.29100e+03	1.02003e+00	2.05167e+02
1295	2.07166e+02	1.29500e+03	1.01957e+00	2.05833e+02
1299	2.07852e+02	1.29900e+03	1.01925e+00	2.06500e+02
1303	2.08517e+02	1.30300e+03	1.01904e+00	2.07167e+02
1307	2.09178e+02	1.30700e+03	1.01881e+00	2.07833e+02
1311	2.09857e+02	1.31100e+03	1.01838e+00	2.08500e+02
1315	2.10538e+02	1.31500e+03	1.01775e+00	2.09167e+02
1319	2.11207e+02	1.31900e+03	1.01744e+00	2.09833e+02
1323	2.11890e+02	1.32300e+03	1.01756e+00	2.10500e+02
1327	2.12569e+02	1.32700e+03	1.01742e+00	2.11167e+02
1331	2.13235e+02	1.33100e+03	1.01687e+00	2.11833e+02
1335	2.13915e+02	1.33500e+03	1.01640e+00	2.12500e+02
1339	2.14586e+02	1.33900e+03	1.01615e+00	2.13167e+02
1343	2.15261e+02	1.34300e+03	1.01591e+00	2.13833e+02
1347	2.15931e+02	1.34700e+03	1.01557e+00	2.14500e+02
1351	2.16612e+02	1.35100e+03	1.01521e+00	2.15167e+02
1355	2.17270e+02	1.35500e+03	1.01488e+00	2.15833e+02
1359	2.17958e+02	1.35900e+03	1.01448e+00	2.16500e+02
1363	2.18620e+02	1.36300e+03	1.01401e+00	2.17167e+02
1367	2.19303e+02	1.36700e+03	1.01368e+00	2.17833e+02
1371	2.19968e+02	1.37100e+03	1.01338e+00	2.18500e+02
1375	2.20641e+02	1.37500e+03	1.01305e+00	2.19167e+02
1379	2.21317e+02	1.37900e+03	1.01274e+00	2.19833e+02
1383	2.21978e+02	1.38300e+03	1.01245e+00	2.20500e+02
1387	2.22662e+02	1.38700e+03	1.01219e+00	2.21167e+02
1391	2.23330e+02	1.39100e+03	1.01191e+00	2.21833e+02
1395	2.24009e+02	1.39500e+03	1.01152e+00	2.22500e+02
1399	2.24683e+02	1.39900e+03	1.01109e+00	2.23167e+02
1403	2.25355e+02	1.40300e+03	1.01068e+00	2.23833e+02
1407	2.26019e+02	1.40700e+03	1.01033e+00	2.24500e+02
1411	2.26696e+02	1.41100e+03	1.01003e+00	2.25167e+02
1415	2.27369e+02	1.41500e+03	1.00974e+00	2.25833e+02
1419	2.28043e+02	1.41900e+03	1.00947e+00	2.26500e+02
1423	2.28703e+02	1.42300e+03	1.00920e+00	2.27167e+02
1427	2.29377e+02	1.42700e+03	1.00889e+00	2.27833e+02
1431	2.30052e+02	1.43100e+03	1.00857e+00	2.28500e+02
1435	2.30723e+02	1.43500e+03	1.00826e+00	2.29167e+02
1439	2.31383e+02	1.43900e+03	1.00795e+00	2.29833e+02
1443	2.32069e+02	1.44300e+03	1.00767e+00	2.30500e+02
1447	2.32733e+02	1.44700e+03	1.00734e+00	2.31167e+02
1451	2.33407e+02	1.45100e+03	1.00701e+00	2.31833e+02
1455	2.34076e+02	1.45500e+03	1.00675e+00	2.32500e+02
1459	2.34755e+02	1.45900e+03	1.00646e+00	2.33167e+02
1463	2.35415e+02	1.46300e+03	1.00613e+00	2.33833e+02
1467	2.36095e+02	1.46700e+03	1.00578e+00	2.34500e+02
1471	2.36759e+02	1.47100e+03	1.00544e+00	2.35167e+02
1475	2.37434e+02	1.47500e+03	1.00515e+00	2.35833e+02
1479	2.38106e+02	1.47900e+03	1.00494e+00	2.36500e+02
1483	2.38776e+02	1.48300e+03	1.00474e+00	2.37167e+02
1487	2.39446e+02	1.48700e+03	1.00440e+00	2.37833e+02
1491	2.40112e+02	1.49100e+03	1.00399e+00	2.38500e+02
1495	2.40786e+02	1.49500e+03	1.00376e+00	2.39167e+02
1499	2.41470e+02	1.49900e+03	1.00359e+00	2.39833e+02
1503	2.42140e+02	1.50300e+03	1.00322e+00	2.40500e+02
1507	2.42795e+02	1.50700e+03	1.00278e+00	2.41167e+02
1511	2.43475e+02	1.51100e+03	1.00248e+00	2.41833e+02
1515	2.44144e+02	1.51500e+03	1.00230e+00	2.42500e+02
1519	2.44810e+02	1.51900e+03	1.00202e+00	2.43167e+02
1523	2.45488e+02	1.52300e+03	1.00171e+00	2.43833e+02
1527	2.46169e+02	1.52700e+03	1.00153e+00	2.44500e+02
1531	2.46822e+02	1.53100e+03	1.00121e+00	2.45167e+02
1535	2.47493e+02	1.53500e+03	1.00077e+00	2.45833e+02
1539	2.48164e+02	1.53900e+03	1.00042e+00	2.46500e+02
1543	2.48835e+02	1.54300e+03	1.00009e+00	2.47167e+02
1547	2.49500e+02	1.54700e+03	9.99770e-01	2.47833e+02
1551	2.50170e+02	1.55100e+03	9.99507e-01	2.48500e+02
1555	2.50840e+02	1.55500e+03	9.99248e-01	2.49167e+02
1559	2.51502e+02	1.55900e+03	9.99003e-01	2.49833e+02
1563	2.52171e+02	1.56300e+03	9.98752e-01	2.50500e+02
1567	2.52847e+02	1.56700e+03	9.98445e-01	2.51167e+02
1571	2.53513e+02	1.57100e+03	9.98101e-01	2.51833e+02
1575	2.54184e+02	1.57500e+03	9.97723e-01	2.52500e+02
1579	2.54844e+02	1.57900e+03	9.97367e-01	2.53167e+02
1583	2.55514e+02	1.58300e+03	9.97107e-01	2.53833e+02
1587	2.56182e+02	1.58700e+03	9.96896e-01	2.54500e+02
1591	2.56854e+02	1.59100e+03	9.96690e-01	2.55167e+02
1595	2.57524e+02	1.59500e+03	9.96487e-01	2.55833e+02
1599	2.58192e+02	1.59900e+03	9.96259e-01	2.56500e+02
1603	2.58865e+02	1.60300e+03	9.95931e-01	2.57167e+02
1607	2.59529e+02	1.60700e+03	9.95595e-01	2.57833e+02
1611	2.60195e+02	1.61100e+03	9.95323e-01	2.58500e+02
1615	2.60870e+02	1.61500e+03	9.95024e-01	2.59167e+02
1619	2.61542e+02	1.61900e+03	9.94748e-01	2.59833e+02
1623	2.62212e+02	1.62300e+03	9.94505e-01	2.60500e+02
1627	2.62869e+02	1.62700e+03	9.94180e-01	2.61167e+02
1631	2.63546e+02	1.63100e+03	9.93805e-01	2.61833e+02
1635	2.64211e+02	1.63500e+03	9.93487e-01	2.62500e+02
1639	2.64888e+02	1.63900e+03	9.93244e-01	2.63167e+02
1643	2.65552e+02	1.64300e+03	9.93057e-01	2.63833e+02
1647	2.66226e+02	1.64700e+03	9.92808e-01	2.64500e+02
1651	2.66893e+02	1.65100e+03	9.92479e-01	2.65167e+02
1655	2.67562e+02	1.65500e+03	9.92151e-01	2.65833e+02
1659	2.68235e+02	1.65900e+03	9.91790e-01	2.66500e+02
1663	2.68907e+02	1.66300e+03	9.91450e-01	2.67167e+02
1667	2.69569e+02	1.66700e+03	9.91117e-01	2.67833e+02
1671	2.70232e+02	1.67100e+03	9.90724e-01	2.68500e+02
1675	2.70907e+02	1.67500e+03	9.90337e-01	2.69167e+02
1679	2.71578e+02	1.67900e+03	9.89997e-01	2.69833e+02
1683	2.72243e+02	1.68300e+03	9.89705e-01	2.70500e+02
1687	2.72916e+02	1.68700e+03	9.89371e-01	2.71167e+02
1691	2.73580e+02	1.69100e+03	9.89048e-01	2.71833e+02
1695	2.74252e+02	1.69500e+03	9.88791e-01	2.72500e+02
1699	2.74926e+02	1.69900e+03	9.88439e-01	2.73167e+02
1703	2.75612e+02	1.70300e+03	9.87978e-01	2.73833e+02
1707	2.76273e+02	1.70700e+03	9.87504e-01	2.74500e+02
1711	2.76949e+02	1.71100e+03	9.87019e-01	2.75167e+02
1715	2.77600e+02	1.71500e+03	9.86519e-01	2.75833e+02
1719	2.78279e+02	1.71900e+03	9.86067e-01	2.76500e+02
1723	2.78961e+02	1.72300e+03	9.85631e-01	2.77167e+02
1727	2.79619e+02	1.72700e+03	9.85207e-01	2.77833e+02
1731	2.80292e+02	1.73100e+03	9.84835e-01	2.78500e+02
1735	2.80972e+02	1.73500e+03	9.84430e-01	2.79167e+02
1739	2.81650e+02	1.73900e+03	9.83965e-01	2.79833e+02
1743	2.82322e+02	1.74300e+03	9.83496e-01	2.80500e+02
1747	2.82995e+02	1.74700e+03	9.82996e-01	2.81167e+02
1751	2.83676e+02	1.75100e+03	9.82496e-01	2.81833e+02
1755	2.84346e+02	1.75500e+03	9.81983e-01	2.82500e+02
1759	2.85020e+02	1.75900e+03	9.81323e-01	2.83167e+02
1763	2.85685e+02	1.76300e+03	9.80613e-01	2.83833e+02
1767	2.86356e+02	1.76700e+03	9.80071e-01	2.84500e+02
1771	2.87017e+02	1.77100e+03	9.79606e-01	2.85167e+02
1775	2.87684e+02	1.77500e+03	9.79075e-01	2.85833e+02
1779	2.88342e+02	1.77900e+03	9.78491e-01	2.86500e+02
1783	2.89022e+02	1.78300e+03	9.77735e-01	2.87167e+02
1787	2.89686e+02	1.78700e+03	9.76806e-01	2.87833e+02
1791	2.90356e+02	1.79100e+03	9.75986e-01	2.88500e+02
1795	2.91030e+02	1.79500e+03	9.75266e-01	2.89167e+02
1799	2.91717e+02	1.79900e+03	9.74519e-01	2.89833e+02
1803	2.92405e+02	1.80300e+03	9.73750e-01	2.90500e+02
1807	2.93070e+02	1.80700e+03	9.72918e-01	2.91167e+02
1811	2.93737e+02	1.81100e+03	9.72029e-01	2.91833e+02
1815	2.94412e+02	1.81500e+03	9.71110e-01	2.92500e+02
1819	2.95091e+02	1.81900e+03	9.70317e-01	2.93167e+02
1823	2.95752e+02	1.82300e+03	9.69509e-01	2.93833e+02
1827	2.96422e+02	1.82700e+03	9.68452e-01	2.94500e+02
1831	2.97092e+02	1.83100e+03	9.67400e-01	2.95167e+02
1835	2.97755e+02	1.83500e+03	9.66433e-01	2.95833e+02
1839	2.98423e+02	1.83900e+03	9.65404e-01	2.96500e+02
1843	2.99083e+02	1.84300e+03	9.64373e-01	2.97167e+02
1847	2.99754e+02	1.84700e+03	9.63382e-01	2.97833e+02
1851	3.00426e+02	1.85100e+03	9.62407e-01	2.98500e+02
1855	3.01078e+02	1.85500e+03	9.61421e-01	2.99167e+02
1859	3.01749e+02	1.85900e+03	9.60390e-01	2.99833e+02
1863	3.02394e+02	1.86300e+03	9.59341e-01	3.00500e+02
1867	3.03055e+02	1.86700e+03	9.58286e-01	3.01167e+02
1871	3.03709e+02	1.87100e+03	9.57183e-01	3.01833e+02
1875	3.04377e+02	1.87500e+03	9.55987e-01	3.02500e+02
1879	3.05025e+02	1.87900e+03	9.54797e-01	3.03167e+02
1883	3.05677e+02	1.88300e+03	9.53678e-01	3.03833e+02
1887	3.06341e+02	1.88700e+03	9.52556e-01	3.04500e+02
1891	3.06996e+02	1.89100e+03	9.51405e-01	3.05167e+02
1895	3.07646e+02	1.89500e+03	9.50217e-01	3.05833e+02
1899	3.08282e+02	1.89900e+03	9.48996e-01	3.06500e+02
1903	3.08934e+02	1.90300e+03	9.47886e-01	3.07167e+02
1907	3.09564e+02	1.90700e+03	9.46802e-01	3.07833e+02
1911	3.10202e+02	1.91100e+03	9.45444e-01	3.08500e+02
1915	3.10840e+02	1.91500e+03	9.44039e-01	3.09167e+02
1919	3.11475e+02	1.91900e+03	9.42891e-01	3.09833e+02
1923	3.12113e+02	1.92300e+03	9.41803e-01	3.10500e+02
1927	3.12733e+02	1.92700e+03	9.40612e-01	3.11167e+02
1931	3.13358e+02	1.93100e+03	9.39360e-01	3.11833e+02
1935	3.13999e+02	1.93500e+03	9.38206e-01	3.12500e+02
1939	3.14632e+02	1.93900e+03	9.37098e-01	3.13167e+02
1943	3.15269e+02	1.94300e+03	9.35695e-01	3.13833e+02
1947	3.15911e+02	1.94700e+03	9.34068e-01	3.14500e+02
1951	3.16546e+02	1.95100e+03	9.32492e-01	3.15167e+02
1955	3.17197e+02	1.95500e+03	9.30814e-01	3.15833e+02
1959	3.17857e+02	1.95900e+03	9.28830e-01	3.16500e+02
1963	3.18520e+02	1.96300e+03	9.26780e-01	3.17167e+02
1967	3.19175e+02	1.96700e+03	9.24860e-01	3.17833e+02
1971	3.19835e+02	1.97100e+03	9.22985e-01	3.18500e+02
1975	3.20487e+02	1.97500e+03	9.21149e-01	3.19167e+02
1979	3.21153e+02	1.97900e+03	9.19321e-01	3.19833e+02
1983	3.21804e+02	1.98300e+03	9.17369e-01	3.20500e+02
1987	3.22482e+02	1.98700e+03	9.15341e-01	3.21167e+02
1991	3.23140e+02	1.99100e+03	9.13518e-01	3.21833e+02
1995	3.23790e+02	1.99500e+03	9.11836e-01	3.22500e+02
1999	3.24455e+02	1.99900e+03	9.10017e-01	3.23167e+02
2003	3.25119e+02	2.00300e+03	9.08143e-01	3.23833e+02
2007	3.25773e+02	2.00700e+03	9.06314e-01	3.24500e+02
2011	3.26438e+02	2.01100e+03	9.04411e-01	3.25167e+02
2015	3.27107e+02	2.01500e+03	9.02454e-01	3.25833e+02
2019	3.27758e+02	2.01900e+03	9.00496e-01	3.26500e+02
2023	3.28433e+02	2.02300e+03	8.98325e-01	3.27167e+02
2027	3.29087e+02	2.02700e+03	8.95999e-01	3.27833e+02
2031	3.29761e+02	2.03100e+03	8.93729e-01	3.28500e+02
2035	3.30419e+02	2.03500e+03	8.91344e-01	3.29167e+02
2039	3.31080e+02	2.03900e+03	8.88801e-01	3.29833e+02
2043	3.31751e+02	2.04300e+03	8.86460e-01	3.30500e+02
2047	3.32398e+02	2.04700e+03	8.84141e-01	3.31167e+02
2051	3.33069e+02	2.05100e+03	8.81240e-01	3.31833e+02
2055	3.33736e+02	2.05500e+03	8.77848e-01	3.32500e+02
2059	3.34405e+02	2.05900e+03	8.74608e-01	3.33167e+02
2063	3.35058e+02	2.06300e+03	8.71850e-01	3.33833e+02
2067	3.35721e+02	2.06700e+03	8.69059e-01	3.34500e+02
2071	3.36384e+02	2.07100e+03	8.65709e-01	3.35167e+02
2075	3.37055e+02	2.07500e+03	8.61895e-01	3.35833e+02
2079	3.37718e+02	2.07900e+03	8.57924e-01	3.36500e+02
2083	3.38385e+02	2.08300e+03	8.54028e-01	3.37167e+02
2087	3.39051e+02	2.08700e+03	8.50105e-01	3.37833e+02
2091	3.39710e+02	2.09100e+03	8.45987e-01	3.38500e+02
2095	3.40370e+02	2.09500e+03	8.41689e-01	3.39167e+02
2099	3.41045e+02	2.09900e+03	8.37228e-01	3.39833e+02
2103	3.41706e+02	2.10300e+03	8.32576e-01	3.40500e+02
2107	3.42365e+02	2.10700e+03	8.27712e-01	3.41167e+02
2111	3.43035e+02	2.11100e+03	8.22634e-01	3.41833e+02
2115	3.43698e+02	2.11500e+03	8.17251e-01	3.42500e+02
2119	3.44352e+02	2.11900e+03	8.11667e-01	3.43167e+02
2123	3.45022e+02	2.12300e+03	8.06023e-01	3.43833e+02
2127	3.45678e+02	2.12700e+03	8.00122e-01	3.44500e+02
2131	3.46340e+02	2.13100e+03	7.93805e-01	3.45167e+02
2135	3.47001e+02	2.13500e+03	7.87231e-01	3.45833e+02
2139	3.47665e+02	2.13900e+03	7.80616e-01	3.46500e+02
2143	3.48325e+02	2.14300e+03	7.73718e-01	3.47167e+02
2147	3.48975e+02	2.14700e+03	7.66244e-01	3.47833e+02
2151	3.49633e+02	2.15100e+03	7.58470e-01	3.48500e+02
2155	3.50295e+02	2.15500e+03	7.50649e-01	3.49167e+02
2159	3.50961e+02	2.15900e+03	7.42642e-01	3.49833e+02
2163	3.51613e+02	2.16300e+03	7.34377e-01	3.50500e+02
2167	3.52280e+02	2.16700e+03	7.25903e-01	3.51167e+02
2171	3.52948e+02	2.17100e+03	7.17151e-01	3.51833e+02
2175	3.53614e+02	2.17500e+03	7.08060e-01	3.52500e+02
2179	3.54278e+02	2.17900e+03	6.98728e-01	3.53167e+02
2183	3.54944e+02	2.18300e+03	6.89148e-01	3.53833e+02
2187	3.55601e+02	2.18700e+03	6.79290e-01	3.54500e+02
2191	3.56274e+02	2.19100e+03	6.69170e-01	3.55167e+02
2195	3.56932e+02	2.19500e+03	6.58738e-01	3.55833e+02
2199	3.57585e+02	2.19900e+03	6.47978e-01	3.56500e+02
2203	3.58266e+02	2.20300e+03	6.36886e-01	3.57167e+02
2207	3.58927e+02	2.20700e+03	6.25461e-01	3.57833e+02
2211	3.59606e+02	2.21100e+03	6.13881e-01	3.58500e+02
2215	3.60273e+02	2.21500e+03	6.02263e-01	3.59167e+02
2219	3.60936e+02	2.21900e+03	5.90459e-01	3.59833e+02
2223	3.61609e+02	2.22300e+03	5.78173e-01	3.60500e+02
2227	3.62278e+02	2.22700e+03	5.65287e-01	3.61167e+02
2231	3.62955e+02	2.23100e+03	5.52173e-01	3.61833e+02
2235	3.63623e+02	2.23500e+03	5.39204e-01	3.62500e+02
2239	3.64311e+02	2.23900e+03	5.26307e-01	3.63167e+02
2243	3.64997e+02	2.24300e+03	5.13335e-01	3.63833e+02
2247	3.65709e+02	2.24700e+03	5.00266e-01	3.64500e+02
2251	3.66383e+02	2.25100e+03	4.86992e-01	3.65167e+02
2255	3.67061e+02	2.25500e+03	4.73830e-01	3.65833e+02
2259	3.67746e+02	2.25900e+03	4.61297e-01	3.66500e+02
2263	3.68437e+02	2.26300e+03	4.49187e-01	3.67167e+02
2267	3.69131e+02	2.26700e+03	4.36823e-01	3.67833e+02
2271	3.69824e+02	2.27100e+03	4.23935e-01	3.68500e+02
2275	3.70506e+02	2.27500e+03	4.10702e-01	3.69167e+02
2279	3.71205e+02	2.27900e+03	3.97385e-01	3.69833e+02
2283	3.71922e+02	2.28300e+03	3.84170e-01	3.70500e+02
2287	3.72587e+02	2.28700e+03	3.70838e-01	3.71167e+02
2291	3.73239e+02	2.29100e+03	3.57332e-01	3.71833e+02
2295	3.73905e+02	2.29500e+03	3.44080e-01	3.72500e+02
2299	3.74561e+02	2.29900e+03	3.31322e-01	3.73167e+02
2303	3.75215e+02	2.30300e+03	3.18797e-01	3.73833e+02
2307	3.75875e+02	2.30700e+03	3.06276e-01	3.74500e+02
2311	3.76565e+02	2.31100e+03	2.93707e-01	3.75167e+02
2315	3.77242e+02	2.31500e+03	2.81062e-01	3.75833e+02
2319	3.77939e+02	2.31900e+03	2.68541e-01	3.76500e+02
2323	3.78635e+02	2.32300e+03	2.56285e-01	3.77167e+02
2327	3.79317e+02	2.32700e+03	2.44297e-01	3.77833e+02
2331	3.79985e+02	2.33100e+03	2.32508e-01	3.78500e+02
2335	3.80640e+02	2.33500e+03	2.20925e-01	3.79167e+02
2339	3.81317e+02	2.33900e+03	2.09649e-01	3.79833e+02
2343	3.81975e+02	2.34300e+03	1.98671e-01	3.80500e+02
2347	3.82638e+02	2.34700e+03	1.87951e-01	3.81167e+02
2351	3.83298e+02	2.35100e+03	1.77584e-01	3.81833e+02
2355	3.83965e+02	2.35500e+03	1.67782e-01	3.82500e+02
2359	3.84631e+02	2.35900e+03	1.58409e-01	3.83167e+02
2363	3.85290e+02	2.36300e+03	1.49169e-01	3.83833e+02
2367	3.85948e+02	2.36700e+03	1.40089e-01	3.84500e+02
2371	3.86596e+02	2.37100e+03	1.31515e-01	3.85167e+02
2375	3.87261e+02	2.37500e+03	1.23729e-01	3.85833e+02
2379	3.87910e+02	2.37900e+03	1.16324e-01	3.86500e+02
2383	3.88579e+02	2.38300e+03	1.08928e-01	3.87167e+02
2387	3.89234e+02	2.38700e+03	1.01911e-01	3.87833e+02
2391	3.89893e+02	2.39100e+03	9.54020e-02	3.88500e+02
2395	3.90578e+02	2.39500e+03	8.91661e-02	3.89167e+02
2399	3.91234e+02	2.39900e+03	8.32117e-02	3.89833e+02
2403	3.91901e+02	2.40300e+03	7.75794e-02	3.90500e+02
2407	3.92561e+02	2.40700e+03	7.22658e-02	3.91167e+02
2411	3.93220e+02	2.41100e+03	6.73062e-02	3.91833e+02
2415	3.93876e+02	2.41500e+03	6.26400e-02	3.92500e+02
2419	3.94559e+02	2.41900e+03	5.82190e-02	3.93167e+02
2423	3.95203e+02	2.42300e+03	5.41203e-02	3.93833e+02
2427	3.95863e+02	2.42700e+03	5.03340e-02	3.94500e+02
2431	3.96534e+02	2.43100e+03	4.67501e-02	3.95167e+02
2435	3.97197e+02	2.43500e+03	4.33501e-02	3.95833e+02
2439	3.97865e+02	2.43900e+03	4.02121e-02	3.96500e+02
2443	3.98538e+02	2.44300e+03	3.73018e-02	3.97167e+02
2447	3.99209e+02	2.44700e+03	3.44940e-02	3.97833e+02
2451	3.99872e+02	2.45100e+03	3.18345e-02	3.98500e+02
2455	4.00535e+02	2.45500e+03	2.93741e-02	3.99167e+02
2459	4.01195e+02	2.45900e+03	2.71235e-02	3.99833e+02
2463	4.01859e+02	2.46300e+03	2.50352e-02	4.00500e+02
2467	4.02518e+02	2.46700e+03	2.29210e-02	4.01167e+02
2471	4.03186e+02	2.47100e+03	2.09075e-02	4.01833e+02
2475	4.03841e+02	2.47500e+03	1.92377e-02	4.02500e+02
2479	4.04519e+02	2.47900e+03	1.78145e-02	4.03167e+02
2483	4.05171e+02	2.48300e+03	1.64289e-02	4.03833e+02
2487	4.05833e+02	2.48700e+03	1.49630e-02	4.04500e+02
2491	4.06502e+02	2.49100e+03	1.35308e-02	4.05167e+02
2495	4.07156e+02	2.49500e+03	1.22772e-02	4.05833e+02
2499	4.07815e+02	2.49900e+03	1.11139e-02	4.06500e+02
2503	4.08477e+02	2.50300e+03	9.93866e-03	4.07167e+02
2507	4.09140e+02	2.50700e+03	8.75506e-03	4.07833e+02
2511	4.09809e+02	2.51100e+03	7.63900e-03	4.08500e+02
2515	4.10468e+02	2.51500e+03	6.68425e-03	4.09167e+02
2519	4.11136e+02	2.51900e+03	5.86078e-03	4.09833e+02
2523	4.11805e+02	2.52300e+03	5.07698e-03	4.10500e+02
2527	4.12470e+02	2.52700e+03	4.32292e-03	4.11167e+02
2531	4.13141e+02	2.53100e+03	3.55952e-03	4.11833e+02
2535	4.13814e+02	2.53500e+03	2.79968e-03	4.12500e+02
2539	4.14480e+02	2.53900e+03	2.15198e-03	4.13167e+02
2543	4.15148e+02	2.54300e+03	1.59876e-03	4.13833e+02
2547	4.15816e+02	2.54700e+03	1.03121e-03	4.14500e+02
2551	4.16485e+02	2.55100e+03	4.24759e-04	4.15167e+02
2555	4.17134e+02	2.55500e+03	-1.57242e-04	4.15833e+02
2559	4.17798e+02	2.55900e+03	-6.59513e-04	4.16500e+02
2563	4.18469e+02	2.56300e+03	-1.17872e-03	4.17167e+02
2567	4.19117e+02	2.56700e+03	-1.72155e-03	4.17833e+02
2571	4.19778e+02	2.57100e+03	-2.17898e-03	4.18500e+02
2575	4.20433e+02	2.57500e+03	-2.59959e-03	4.19167e+02
2579	4.21090e+02	2.57900e+03	-3.01723e-03	4.19833e+02
2583	4.21749e+02	2.58300e+03	-3.38720e-03	4.20500e+02
2587	4.22399e+02	2.58700e+03	-3.72445e-03	4.21167e+02
2591	4.23041e+02	2.59100e+03	-4.12929e-03	4.21833e+02
2595	4.23692e+02	2.59500e+03	-4.60067e-03	4.22500e+02
2599	4.24343e+02	2.59900e+03	-5.05975e-03	4.23167e+02
2603	4.24997e+02	2.60300e+03	-5.50600e-03	4.23833e+02
2607	4.25646e+02	2.60700e+03	-5.93107e-03	4.24500e+02
2611	4.26306e+02	2.61100e+03	-6.28677e-03	4.25167e+02
2615	4.26952e+02	2.61500e+03	-6.54676e-03	4.25833e+02
2619	4.27598e+02	2.61900e+03	-6.75566e-03	4.26500e+02
2623	4.28254e+02	2.62300e+03	-6.91449e-03	4.27167e+02
2627	4.28904e+02	2.62700e+03	-7.03027e-03	4.27833e+02
2631	4.29567e+02	2.63100e+03	-7.17836e-03	4.28500e+02
2635	4.30227e+02	2.63500e+03	-7.31461e-03	4.29167e+02
2639	4.30893e+02	2.63900e+03	-7.42808e-03	4.29833e+02
2643	4.31533e+02	2.64300e+03	-7.62247e-03	4.30500e+02
2647	4.32189e+02	2.64700e+03	-7.85690e-03	4.31167e+02
2651	4.32847e+02	2.65100e+03	-8.01197e-03	4.31833e+02
2655	4.33503e+02	2.65500e+03	-8.14211e-03	4.32500e+02
2659	4.34161e+02	2.65900e+03	-8.27855e-03	4.33167e+02
2663	4.34812e+02	2.66300e+03	-8.36580e-03	4.33833e+02
2667	4.35465e+02	2.66700e+03	-8.44184e-03	4.34500e+02
2671	4.36108e+02	2.67100e+03	-8.56384e-03	4.35167e+02
2675	4.36740e+02	2.67500e+03	-8.64383e-03	4.35833e+02
2679	4.37385e+02	2.67900e+03	-8.65964e-03	4.36500e+02
2683	4.38014e+02	2.68300e+03	-8.77026e-03	4.37167e+02
2687	4.38666e+02	2.68700e+03	-8.87883e-03	4.37833e+02
2691	4.39326e+02	2.69100e+03	-8.89024e-03	4.38500e+02
2695	4.39970e+02	2.69500e+03	-8.92190e-03	4.39167e+02
2699	4.40624e+02	2.69900e+03	-8.95384e-03	4.39833e+02
2703	4.41282e+02	2.70300e+03	-8.94267e-03	4.40500e+02
2707	4.41937e+02	2.70700e+03	-8.97789e-03	4.41167e+02
2711	4.42593e+02	2.71100e+03	-9.07857e-03	4.41833e+02
2715	4.43246e+02	2.71500e+03	-9.20612e-03	4.42500e+02
2719	4.43908e+02	2.71900e+03	-9.26674e-03	4.43167e+02
2723	4.44576e+02	2.72300e+03	-9.18674e-03	4.43833e+02
2727	4.45229e+02	2.72700e+03	-9.12832e-03	4.44500e+02
2731	4.45894e+02	2.73100e+03	-9.12470e-03	4.45167e+02
2735	4.46553e+02	2.73500e+03	-9.05744e-03	4.45833e+02
2739	4.47207e+02	2.73900e+03	-9.03585e-03	4.46500e+02
2743	4.47859e+02	2.74300e+03	-9.13415e-03	4.47167e+02
2747	4.48533e+02	2.74700e+03	-9.23217e-03	4.47833e+02
2751	4.49178e+02	2.75100e+03	-9.26443e-03	4.48500e+02
2755	4.49836e+02	2.75500e+03	-9.29864e-03	4.49167e+02
2759	4.50504e+02	2.75900e+03	-9.31169e-03	4.49833e+02
2763	4.51165e+02	2.76300e+03	-9.25990e-03	4.50500e+02
2767	4.51827e+02	2.76700e+03	-9.28186e-03	4.51167e+02
2771	4.52489e+02	2.77100e+03	-9.38765e-03	4.51833e+02
2775	4.53149e+02	2.77500e+03	-9.48940e-03	4.52500e+02
2779	4.53808e+02	2.77900e+03	-9.59483e-03	4.53167e+02
2783	4.54467e+02	2.78300e+03	-9.65911e-03	4.53833e+02
2787	4.55131e+02	2.78700e+03	-9.62714e-03	4.54500e+02
2791	4.55791e+02	2.79100e+03	-9.54262e-03	4.55167e+02
2795	4.56458e+02	2.79500e+03	-9.47030e-03	4.55833e+02
2799	4.57130e+02	2.79900e+03	-9.47481e-03	4.56500e+02
2803	4.57782e+02	2.80300e+03	-9.55986e-03	4.57167e+02
2807	4.58441e+02	2.80700e+03	-9.66723e-03	4.57833e+02
2811	4.59101e+02	2.81100e+03	-9.75973e-03	4.58500e+02
2815	4.59762e+02	2.81500e+03	-9.85284e-03	4.59167e+02
2819	4.60436e+02	2.81900e+03	-9.94138e-03	4.59833e+02
2823	4.61103e+02	2.82300e+03	-9.96977e-03	4.60500e+02
2827	4.61760e+02	2.82700e+03	-9.94941e-03	4.61167e+02
2831	4.62422e+02	2.83100e+03	-9.91954e-03	4.61833e+02
2835	4.63074e+02	2.83500e+03	-9.93232e-03	4.62500e+02
2839	4.63744e+02	2.83900e+03	-9.99956e-03	4.63167e+02
2843	4.64415e+02	2.84300e+03	-1.00232e-02	4.63833e+02
2847	4.65061e+02	2.84700e+03	-9.96321e-03	4.64500e+02
2851	4.65727e+02	2.85100e+03	-9.93882e-03	4.65167e+02
2855	4.66387e+02	2.85500e+03	-9.99635e-03	4.65833e+02
2859	4.67058e+02	2.85900e+03	-1.00574e-02	4.66500e+02
2863	4.67709e+02	2.86300e+03	-1.00383e-02	4.67167e+02
2867	4.68370e+02	2.86700e+03	-9.98853e-03	4.67833e+02
2871	4.69023e+02	2.87100e+03	-9.98938e-03	4.68500e+02
2875	4.69690e+02	2.87500e+03	-9.98947e-03	4.69167e+02
2879	4.70342e+02	2.87900e+03	-9.97107e-03	4.69833e+02
2883	4.71010e+02	2.88300e+03	-9.97547e-03	4.70500e+02
2887	4.71671e+02	2.88700e+03	-1.00268e-02	4.71167e+02
2891	4.72324e+02	2.89100e+03	-1.01112e-02	4.71833e+02
2895	4.72990e+02	2.89500e+03	-1.01572e-02	4.72500e+02
2899	4.73640e+02	2.89900e+03	-1.02095e-02	4.73167e+02
2903	4.74307e+02	2.90300e+03	-1.03220e-02	4.73833e+02
2907	4.74958e+02	2.90700e+03	-1.03037e-02	4.74500e+02
2911	4.75610e+02	2.91100e+03	-1.02016e-02	4.75167e+02
2915	4.76262e+02	2.91500e+03	-1.01582e-02	4.75833e+02
2919	4.76941e+02	2.91900e+03	-1.02115e-02	4.76500e+02
2923	4.77595e+02	2.92300e+03	-1.03728e-02	4.77167e+02
2927	4.78251e+02	2.92700e+03	-1.04487e-02	4.77833e+02
2931	4.78911e+02	2.93100e+03	-1.03663e-02	4.78500e+02
2935	4.79569e+02	2.93500e+03	-1.02655e-02	4.79167e+02
2939	4.80236e+02	2.93900e+03	-1.02115e-02	4.79833e+02
2943	4.80907e+02	2.94300e+03	-1.01218e-02	4.80500e+02
2947	4.81568e+02	2.94700e+03	-1.00468e-02	4.81167e+02
2951	4.82237e+02	2.95100e+03	-1.00752e-02	4.81833e+02
2955	4.82906e+02	2.95500e+03	-1.01056e-02	4.82500e+02
2959	4.83577e+02	2.95900e+03	-1.01746e-02	4.83167e+02
2963	4.84227e+02	2.96300e+03	-1.03408e-02	4.83833e+02
2967	4.84886e+02	2.96700e+03	-1.03894e-02	4.84500e+02
2971	4.85550e+02	2.97100e+03	-1.02963e-02	4.85167e+02
2975	4.86211e+02	2.97500e+03	-1.02493e-02	4.85833e+02
2979	4.86883e+02	2.97900e+03	-1.03307e-02	4.86500e+02
2983	4.87560e+02	2.98300e+03	-1.04642e-02	4.87167e+02
2987	4.88203e+02	2.98700e+03	-1.05034e-02	4.87833e+02
2991	4.88890e+02	2.99100e+03	-1.04819e-02	4.88500e+02
2995	4.89557e+02	2.99500e+03	-1.04211e-02	4.89167e+02
2999	4.90223e+02	2.99900e+03	-1.03225e-02	4.89833e+02
3003	4.90887e+02	3.00300e+03	-1.02655e-02	4.90500e+02
3007	4.91552e+02	3.00700e+03	-1.02338e-02	4.91167e+02
3011	4.92212e+02	3.01100e+03	-1.02363e-02	4.91833e+02
3015	4.92885e+02	3.01500e+03	-1.02342e-02	4.92500e+02
3019	4.93549e+02	3.01900e+03	-1.01795e-02	4.93167e+02
3023	4.94213e+02	3.02300e+03	-1.01458e-02	4.93833e+02
3027	4.94882e+02	3.02700e+03	-1.01433e-02	4.94500e+02
3031	4.95541e+02	3.03100e+03	-1.00863e-02	4.95167e+02
3035	4.96205e+02	3.03500e+03	-1.00579e-02	4.95833e+02
3039	4.96862e+02	3.03900e+03	-1.01268e-02	4.96500e+02
3043	4.97517e+02	3.04300e+03	-1.01580e-02	4.97167e+02
3047	4.98179e+02	3.04700e+03	-1.02186e-02	4.97833e+02
3051	4.98836e+02	3.05100e+03	-1.03240e-02	4.98500e+02
3055	4.99502e+02	3.05500e+03	-1.03627e-02	4.99167e+02
3059	5.00163e+02	3.05900e+03	-1.03912e-02	4.99833e+02
3063	5.00823e+02	3.06300e+03	-1.04047e-02	5.00500e+02
3067	5.01481e+02	3.06700e+03	-1.03729e-02	5.01167e+02
3071	5.02138e+02	3.07100e+03	-1.03477e-02	5.01833e+02
3075	5.02810e+02	3.07500e+03	-1.03947e-02	5.02500e+02
3079	5.03475e+02	3.07900e+03	-1.04668e-02	5.03167e+02
3083	5.04139e+02	3.08300e+03	-1.04507e-02	5.03833e+02
3087	5.04801e+02	3.08700e+03	-1.03620e-02	5.04500e+02
3091	5.05463e+02	3.09100e+03	-1.03182e-02	5.05167e+02
3095	5.06132e+02	3.09500e+03	-1.03060e-02	5.05833e+02
3099	5.06781e+02	3.09900e+03	-1.02412e-02	5.06500e+02
3103	5.07447e+02	3.10300e+03	-1.01830e-02	5.07167e+02
3107	5.08107e+02	3.10700e+03	-1.01819e-02	5.07833e+02
3111	5.08777e+02	3.11100e+03	-1.02425e-02	5.08500e+02
3115	5.09432e+02	3.11500e+03	-1.03649e-02	5.09167e+02
3119	5.10100e+02	3.11900e+03	-1.04598e-02	5.09833e+02
3123	5.10750e+02	3.12300e+03	-1.04823e-02	5.10500e+02
3127	5.11418e+02	3.12700e+03	-1.04646e-02	5.11167e+02
3131	5.12075e+02	3.13100e+03	-1.04044e-02	5.11833e+02
3135	5.12739e+02	3.13500e+03	-1.03555e-02	5.12500e+02
3139	5.13400e+02	3.13900e+03	-1.03196e-02	5.13167e+02
3143	5.14050e+02	3.14300e+03	-1.02423e-02	5.13833e+02
3147	5.14713e+02	3.14700e+03	-1.01684e-02	5.14500e+02
3151	5.15374e+02	3.15100e+03	-1.01172e-02	5.15167e+02
3155	5.16023e+02	3.15500e+03	-1.00834e-02	5.15833e+02
3159	5.16690e+02	3.15900e+03	-1.01640e-02	5.16500e+02
3163	5.17350e+02	3.16300e+03	-1.02933e-02	5.17167e+02
3167	5.18013e+02	3.16700e+03	-1.03746e-02	5.17833e+02
3171	5.18673e+02	3.17100e+03	-1.04030e-02	5.18500e+02
3175	5.19353e+02	3.17500e+03	-1.03613e-02	5.19167e+02
3179	5.20013e+02	3.17900e+03	-1.03724e-02	5.19833e+02
3183	5.20677e+02	3.18300e+03	-1.04319e-02	5.20500e+02
3187	5.21345e+02	3.18700e+03	-1.04159e-02	5.21167e+02
3191	5.22003e+02	3.19100e+03	-1.04152e-02	5.21833e+02
3195	5.22684e+02	3.19500e+03	-1.04502e-02	5.22500e+02
3199	5.23350e+02	3.19900e+03	-1.04066e-02	5.23167e+02
3203	5.24023e+02	3.20300e+03	-1.03091e-02	5.23833e+02
3207	5.24698e+02	3.20700e+03	-1.02216e-02	5.24500e+02
3211	5.25393e+02	3.21100e+03	-1.02094e-02	5.25167e+02
3215	5.26074e+02	3.21500e+03	-1.02918e-02	5.25833e+02
3219	5.26780e+02	3.21900e+03	-1.03752e-02	5.26500e+02
3223	5.27442e+02	3.22300e+03	-1.03500e-02	5.27167e+02
3227	5.28117e+02	3.22700e+03	-1.03392e-02	5.27833e+02
3231	5.28792e+02	3.23100e+03	-1.03934e-02	5.28500e+02
3235	5.29477e+02	3.23500e+03	-1.03703e-02	5.29167e+02
3239	5.30160e+02	3.23900e+03	-1.03217e-02	5.29833e+02
3243	5.30861e+02	3.24300e+03	-1.03200e-02	5.30500e+02
3247	5.31600e+02	3.24700e+03	-1.03240e-02	5.31167e+02
3251	5.32285e+02	3.25100e+03	-1.03688e-02	5.31833e+02
3255	5.32958e+02	3.25500e+03	-1.04571e-02	5.32500e+02
3259	5.33646e+02	3.25900e+03	-1.05454e-02	5.33167e+02
3263	5.34273e+02	3.26300e+03	-1.05919e-02	5.33833e+02
3267	5.34919e+02	3.26700e+03	-1.04789e-02	5.34500e+02
3271	5.35584e+02	3.27100e+03	-1.03268e-02	5.35167e+02
3275	5.36237e+02	3.27500e+03	-1.03327e-02	5.35833e+02
3279	5.36901e+02	3.27900e+03	-1.04458e-02	5.36500e+02
3283	5.37554e+02	3.28300e+03	-1.05720e-02	5.37167e+02
3287	5.38229e+02	3.28700e+03	-1.05890e-02	5.37833e+02
3291	5.38898e+02	3.29100e+03	-1.05147e-02	5.38500e+02
3295	5.39549e+02	3.29500e+03	-1.05098e-02	5.39167e+02
3299	5.40208e+02	3.29900e+03	-1.05655e-02	5.39833e+02
3303	5.40865e+02	3.30300e+03	-1.05680e-02	5.40500e+02
3307	5.41534e+02	3.30700e+03	-1.05181e-02	5.41167e+02
3311	5.42183e+02	3.31100e+03	-1.05745e-02	5.41833e+02
3315	5.42845e+02	3.31500e+03	-1.07070e-02	5.42500e+02
3319	5.43512e+02	3.31900e+03	-1.08356e-02	5.43167e+02
3323	5.44177e+02	3.32300e+03	-1.08187e-02	5.43833e+02
3327	5.44845e+02	3.32700e+03	-1.05184e-02	5.44500e+02
3331	5.45496e+02	3.33100e+03	-1.02115e-02	5.45167e+02
3335	5.46155e+02	3.33500e+03	-1.01870e-02	5.45833e+02
3339	5.46808e+02	3.33900e+03	-1.04159e-02	5.46500e+02
3343	5.47473e+02	3.34300e+03	-1.06025e-02	5.47167e+02
3347	5.48128e+02	3.34700e+03	-1.05811e-02	5.47833e+02
3351	5.48791e+02	3.35100e+03	-1.05295e-02	5.48500e+02
3355	5.49458e+02	3.35500e+03	-1.05405e-02	5.49167e+02
3359	5.50119e+02	3.35900e+03	-1.05358e-02	5.49833e+02
3363	5.50772e+02	3.36300e+03	-1.05292e-02	5.50500e+02
3367	5.51430e+02	3.36700e+03	-1.05194e-02	5.51167e+02
3371	5.52092e+02	3.37100e+03	-1.05256e-02	5.51833e+02
3375	5.52746e+02	3.37500e+03	-1.06059e-02	5.52500e+02
3379	5.53402e+02	3.37900e+03	-1.07120e-02	5.53167e+02
3383	5.54072e+02	3.38300e+03	-1.07144e-02	5.53833e+02
3387	5.54727e+02	3.38700e+03	-1.06197e-02	5.54500e+02
3391	5.55386e+02	3.39100e+03	-1.05958e-02	5.55167e+02
3395	5.56048e+02	3.39500e+03	-1.07232e-02	5.55833e+02
3399	5.56706e+02	3.39900e+03	-1.09174e-02	5.56500e+02
3403	5.57367e+02	3.40300e+03	-1.10149e-02	5.57167e+02
3407	5.58029e+02	3.40700e+03	-1.09849e-02	5.57833e+02
3411	5.58690e+02	3.41100e+03	-1.09115e-02	5.58500e+02
3415	5.59350e+02	3.41500e+03	-1.09131e-02	5.59167e+02
3419	5.60005e+02	3.41900e+03	-1.09131e-02	5.59833e+02
3423	5.60674e+02	3.42300e+03	-1.08697e-02	5.60500e+02
3427	5.61323e+02	3.42700e+03	-1.08943e-02	5.61167e+02
3431	5.61989e+02	3.43100e+03	-1.10050e-02	5.61833e+02
3435	5.62659e+02	3.43500e+03	-1.11152e-02	5.62500e+02
3439	5.63313e+02	3.43900e+03	-1.11300e-02	5.63167e+02
3443	5.63974e+02	3.44300e+03	-1.10647e-02	5.63833e+02
3447	5.64632e+02	3.44700e+03	-1.09698e-02	5.64500e+02
3451	5.65300e+02	3.45100e+03	-1.09177e-02	5.65167e+02
3455	5.65958e+02	3.45500e+03	-1.09456e-02	5.65833e+02
3459	5.66613e+02	3.45900e+03	-1.10003e-02	5.66500e+02
3463	5.67267e+02	3.46300e+03	-1.10330e-02	5.67167e+02
3467	5.67924e+02	3.46700e+03	-1.10181e-02	5.67833e+02
3471	5.68579e+02	3.47100e+03	-1.10204e-02	5.68500e+02
3475	5.69234e+02	3.47500e+03	-1.11186e-02	5.69167e+02
3479	5.69894e+02	3.47900e+03	-1.11920e-02	5.69833e+02
3483	5.70557e+02	3.48300e+03	-1.11442e-02	5.70500e+02
3487	5.71204e+02	3.48700e+03	-1.10304e-02	5.71167e+02
3491	5.71863e+02	3.49100e+03	-1.09264e-02	5.71833e+02
3495	5.72525e+02	3.49500e+03	-1.08937e-02	5.72500e+02
3499	5.73175e+02	3.49900e+03	-1.09075e-02	5.73167e+02
3503	5.73827e+02	3.50300e+03	-1.08905e-02	5.73833e+02
3507	5.74485e+02	3.50700e+03	-1.09271e-02	5.74500e+02
3511	5.75137e+02	3.51100e+03	-1.11046e-02	5.75167e+02
3515	5.75792e+02	3.51500e+03	-1.12325e-02	5.75833e+02
3519	5.76446e+02	3.51900e+03	-1.12047e-02	5.76500e+02
3523	5.77105e+02	3.52300e+03	-1.11255e-02	5.77167e+02
3527	5.77766e+02	3.52700e+03	-1.10045e-02	5.77833e+02
3531	5.78419e+02	3.53100e+03	-1.09612e-02	5.78500e+02
3535	5.79074e+02	3.53500e+03	-1.10249e-02	5.79167e+02
3539	5.79718e+02	3.53900e+03	-1.10545e-02	5.79833e+02
3543	5.80365e+02	3.54300e+03	-1.10718e-02	5.80500e+02
3547	5.81024e+02	3.54700e+03	-1.11409e-02	5.81167e+02
3551	5.81682e+02	3.55100e+03	-1.11953e-02	5.81833e+02
3555	5.82325e+02	3.55500e+03	-1.11598e-02	5.82500e+02
3559	5.82996e+02	3.55900e+03	-1.10969e-02	5.83167e+02
3563	5.83650e+02	3.56300e+03	-1.10581e-02	5.83833e+02
3567	5.84304e+02	3.56700e+03	-1.10286e-02	5.84500e+02
3571	5.84964e+02	3.57100e+03	-1.10496e-02	5.85167e+02
3575	5.85623e+02	3.57500e+03	-1.11817e-02	5.85833e+02
3579	5.86264e+02	3.57900e+03	-1.12944e-02	5.86500e+02
3583	5.86933e+02	3.58300e+03	-1.12396e-02	5.87167e+02
3587	5.87591e+02	3.58700e+03	-1.10970e-02	5.87833e+02
3591	5.88247e+02	3.59100e+03	-1.10446e-02	5.88500e+02
3595	5.88902e+02	3.59500e+03	-1.11199e-02	5.89167e+02
3599	5.89557e+02	3.59900e+03	-1.12324e-02	5.89833e+02
3603	5.90214e+02	3.60300e+03	-1.13103e-02	5.90500e+02
3607	5.90872e+02	3.60700e+03	-1.13220e-02	5.91167e+02
3611	5.91524e+02	3.61100e+03	-1.12666e-02	5.91833e+02
3615	5.92190e+02	3.61500e+03	-1.11859e-02	5.92500e+02
3619	5.92849e+02	3.61900e+03	-1.11596e-02	5.93167e+02
3623	5.93508e+02	3.62300e+03	-1.11944e-02	5.93833e+02
3627	5.94162e+02	3.62700e+03	-1.12062e-02	5.94500e+02
3631	5.94831e+02	3.63100e+03	-1.11533e-02	5.95167e+02
3635	5.95499e+02	3.63500e+03	-1.10964e-02	5.95833e+02
3639	5.96144e+02	3.63900e+03	-1.10907e-02	5.96500e+02
3643	5.96820e+02	3.64300e+03	-1.11627e-02	5.97167e+02
3647	5.97486e+02	3.64700e+03	-1.12998e-02	5.97833e+02
3651	5.98142e+02	3.65100e+03	-1.13500e-02	5.98500e+02
3655	5.98794e+02	3.65500e+03	-1.12291e-02	5.99167e+02
3659	5.99451e+02	3.65900e+03	-1.11248e-02	5.99833e+02
3663	6.00124e+02	3.66300e+03	-1.11353e-02	6.00500e+02
3667	6.00770e+02	3.66700e+03	-1.11710e-02	6.01167e+02
3671	6.01434e+02	3.67100e+03	-1.11904e-02	6.01833e+02
3675	6.02109e+02	3.67500e+03	-1.11573e-02	6.02500e+02
3679	6.02774e+02	3.67900e+03	-1.10975e-02	6.03167e+02
3683	6.03443e+02	3.68300e+03	-1.10821e-02	6.03833e+02
3687	6.04103e+02	3.68700e+03	-1.10988e-02	6.04500e+02
3691	6.04768e+02	3.69100e+03	-1.10902e-02	6.05167e+02
3695	6.05434e+02	3.69500e+03	-1.10909e-02	6.05833e+02
3699	6.06099e+02	3.69900e+03	-1.11646e-02	6.06500e+02
3703	6.06761e+02	3.70300e+03	-1.11893e-02	6.07167e+02
3707	6.07411e+02	3.70700e+03	-1.11336e-02	6.07833e+02
3711	6.08073e+02	3.71100e+03	-1.11767e-02	6.08500e+02
3715	6.08742e+02	3.71500e+03	-1.12814e-02	6.09167e+02
3719	6.09405e+02	3.71900e+03	-1.12959e-02	6.09833e+02
3723	6.10074e+02	3.72300e+03	-1.12448e-02	6.10500e+02
3727	6.10733e+02	3.72700e+03	-1.11956e-02	6.11167e+02
3731	6.11392e+02	3.73100e+03	-1.11695e-02	6.11833e+02
3735	6.12059e+02	3.73500e+03	-1.11743e-02	6.12500e+02
3739	6.12721e+02	3.73900e+03	-1.11604e-02	6.13167e+02
3743	6.13387e+02	3.74300e+03	-1.11284e-02	6.13833e+02
3747	6.14053e+02	3.74700e+03	-1.12112e-02	6.14500e+02
3751	6.14720e+02	3.75100e+03	-1.13639e-02	6.15167e+02
3755	6.15376e+02	3.75500e+03	-1.14012e-02	6.15833e+02
3759	6.16027e+02	3.75900e+03	-1.13480e-02	6.16500e+02
3763	6.16683e+02	3.76300e+03	-1.13312e-02	6.17167e+02
3767	6.17349e+02	3.76700e+03	-1.13581e-02	6.17833e+02
3771	6.18003e+02	3.77100e+03	-1.13398e-02	6.18500e+02
3775	6.18669e+02	3.77500e+03	-1.12679e-02	6.19167e+02
3779	6.19324e+02	3.77900e+03	-1.11834e-02	6.19833e+02
3783	6.19980e+02	3.78300e+03	-1.11288e-02	6.20500e+02
3787	6.20647e+02	3.78700e+03	-1.11392e-02	6.21167e+02
3791	6.21316e+02	3.79100e+03	-1.12020e-02	6.21833e+02
3795	6.21982e+02	3.79500e+03	-1.12603e-02	6.22500e+02
3799	6.22630e+02	3.79900e+03	-1.13280e-02	6.23167e+02
3803	6.23299e+02	3.80300e+03	-1.13457e-02	6.23833e+02
3807	6.23955e+02	3.80700e+03	-1.12819e-02	6.24500e+02
3811	6.24608e+02	3.81100e+03	-1.12507e-02	6.25167e+02
3815	6.25270e+02	3.81500e+03	-1.12131e-02	6.25833e+02
3819	6.25935e+02	3.81900e+03	-1.11626e-02	6.26500e+02
3823	6.26592e+02	3.82300e+03	-1.11568e-02	6.27167e+02
3827	6.27266e+02	3.82700e+03	-1.11818e-02	6.27833e+02
3831	6.27925e+02	3.83100e+03	-1.11743e-02	6.28500e+02
3835	6.28583e+02	3.83500e+03	-1.11170e-02	6.29167e+02
3839	6.29247e+02	3.83900e+03	-1.10570e-02	6.29833e+02
3843	6.29911e+02	3.84300e+03	-1.10025e-02	6.30500e+02
3847	6.30570e+02	3.84700e+03	-1.10148e-02	6.31167e+02
3851	6.31228e+02	3.85100e+03	-1.11640e-02	6.31833e+02
3855	6.31892e+02	3.85500e+03	-1.12705e-02	6.32500e+02
3859	6.32554e+02	3.85900e+03	-1.12098e-02	6.33167e+02
3863	6.33229e+02	3.86300e+03	-1.11147e-02	6.33833e+02
3867	6.33888e+02	3.86700e+03	-1.10238e-02	6.34500e+02
3871	6.34550e+02	3.87100e+03	-1.09709e-02	6.35167e+02
3875	6.35212e+02	3.87500e+03	-1.10251e-02	6.35833e+02
3879	6.35880e+02	3.87900e+03	-1.10415e-02	6.36500e+02
3883	6.36546e+02	3.88300e+03	-1.09688e-02	6.37167e+02
3887	6.37206e+02	3.88700e+03	-1.09436e-02	6.37833e+02
3891	6.37872e+02	3.89100e+03	-1.09744e-02	6.38500e+02
3895	6.38535e+02	3.89500e+03	-1.10475e-02	6.39167e+02
3899	6.39201e+02	3.89900e+03	-1.11270e-02	6.39833e+02
3903	6.39870e+02	3.90300e+03	-1.11297e-02	6.40500e+02
3907	6.40522e+02	3.90700e+03	-1.10487e-02	6.41167e+02
3911	6.41191e+02	3.91100e+03	-1.09981e-02	6.41833e+02
3915	6.41842e+02	3.91500e+03	-1.10247e-02	6.42500e+02
3919	6.42505e+02	3.91900e+03	-1.10865e-02	6.43167e+02
3923	6.43161e+02	3.92300e+03	-1.11827e-02	6.43833e+02
3927	6.43826e+02	3.92700e+03	-1.12687e-02	6.44500e+02
3931	6.44486e+02	3.93100e+03	-1.13757e-02	6.45167e+02
3935	6.45150e+02	3.93500e+03	-1.14650e-02	6.45833e+02
3939	6.45804e+02	3.93900e+03	-1.14419e-02	6.46500e+02
3943	6.46470e+02	3.94300e+03	-1.13569e-02	6.47167e+02
3947	6.47135e+02	3.94700e+03	-1.12772e-02	6.47833e+02
3951	6.47800e+02	3.95100e+03	-1.12083e-02	6.48500e+02
3955	6.48464e+02	3.95500e+03	-1.11332e-02	6.49167e+02
3959	6.49122e+02	3.95900e+03	-1.11264e-02	6.49833e+02
3963	6.49790e+02	3.96300e+03	-1.11677e-02	6.50500e+02
3967	6.50451e+02	3.96700e+03	-1.11948e-02	6.51167e+02
3971	6.51116e+02	3.97100e+03	-1.12063e-02	6.51833e+02
3975	6.51775e+02	3.97500e+03	-1.12049e-02	6.52500e+02
3979	6.52449e+02	3.97900e+03	-1.12046e-02	6.53167e+02
3983	6.53117e+02	3.98300e+03	-1.11940e-02	6.53833e+02
3987	6.53786e+02	3.98700e+03	-1.11882e-02	6.54500e+02
3991	6.54456e+02	3.99100e+03	-1.11588e-02	6.55167e+02
3995	6.55123e+02	3.99500e+03	-1.11168e-02	6.55833e+02
3999	6.55791e+02	3.99900e+03	-1.11648e-02	6.56500e+02
4003	6.56465e+02	4.00300e+03	-1.12436e-02	6.57167e+02
4007	6.57122e+02	4.00700e+03	-1.12240e-02	6.57833e+02
4011	6.57785e+02	4.01100e+03	-1.11781e-02	6.58500e+02
4015	6.58464e+02	4.01500e+03	-1.11958e-02	6.59167e+02
4019	6.59131e+02	4.01900e+03	-1.12351e-02	6.59833e+02
4023	6.59796e+02	4.02300e+03	-1.12034e-02	6.60500e+02
4027	6.60459e+02	4.02700e+03	-1.11650e-02	6.61167e+02
4031	6.61143e+02	4.03100e+03	-1.11654e-02	6.61833e+02
4035	6.61811e+02	4.03500e+03	-1.11736e-02	6.62500e+02
4039	6.62472e+02	4.03900e+03	-1.11971e-02	6.63167e+02
4043	6.63132e+02	4.04300e+03	-1.12136e-02	6.63833e+02
4047	6.63802e+02	4.04700e+03	-1.12144e-02	6.64500e+02
4051	6.64467e+02	4.05100e+03	-1.12304e-02	6.65167e+02
4055	6.65138e+02	4.05500e+03	-1.12850e-02	6.65833e+02
4059	6.65800e+02	4.05900e+03	-1.13341e-02	6.66500e+02
4063	6.66469e+02	4.06300e+03	-1.12917e-02	6.67167e+02
4067	6.67148e+02	4.06700e+03	-1.12412e-02	6.67833e+02
4071	6.67815e+02	4.07100e+03	-1.12466e-02	6.68500e+02
4075	6.68481e+02	4.07500e+03	-1.12390e-02	6.69167e+02
4079	6.69154e+02	4.07900e+03	-1.12454e-02	6.69833e+02
4083	6.69823e+02	4.08300e+03	-1.12354e-02	6.70500e+02
4087	6.70492e+02	4.08700e+03	-1.11706e-02	6.71167e+02
4091	6.71164e+02	4.09100e+03	-1.11260e-02	6.71833e+02
4095	6.71824e+02	4.09500e+03	-1.11354e-02	6.72500e+02
4099	6.72492e+02	4.09900e+03	-1.11134e-02	6.73167e+02
4103	6.73165e+02	4.10300e+03	-1.10670e-02	6.73833e+02
4107	6.73823e+02	4.10700e+03	-1.10597e-02	6.74500e+02
4111	6.74485e+02	4.11100e+03	-1.10975e-02	6.75167e+02
4115	6.75144e+02	4.11500e+03	-1.12225e-02	6.75833e+02
4119	6.75811e+02	4.11900e+03	-1.13032e-02	6.76500e+02
4123	6.76476e+02	4.12300e+03	-1.12425e-02	6.77167e+02
4127	6.77133e+02	4.12700e+03	-1.11867e-02	6.77833e+02
4131	6.77809e+02	4.13100e+03	-1.11857e-02	6.78500e+02
4135	6.78471e+02	4.13500e+03	-1.12217e-02	6.79167e+02
4139	6.79133e+02	4.13900e+03	-1.12697e-02	6.79833e+02
4143	6.79793e+02	4.14300e+03	-1.13227e-02	6.80500e+02
4147	6.80449e+02	4.14700e+03	-1.13790e-02	6.81167e+02
4151	6.81115e+02	4.15100e+03	-1.14395e-02	6.81833e+02
4155	6.81777e+02	4.15500e+03	-1.14862e-02	6.82500e+02
4159	6.82431e+02	4.15900e+03	-1.14497e-02	6.83167e+02
4163	6.83110e+02	4.16300e+03	-1.13548e-02	6.83833e+02
4167	6.83755e+02	4.16700e+03	-1.12677e-02	6.84500e+02
4171	6.84419e+02	4.17100e+03	-1.12310e-02	6.85167e+02
4175	6.85089e+02	4.17500e+03	-1.12371e-02	6.85833e+02
4179	6.85758e+02	4.17900e+03	-1.12414e-02	6.86500e+02
4183	6.86411e+02	4.18300e+03	-1.12562e-02	6.87167e+02
4187	6.87070e+02	4.18700e+03	-1.13157e-02	6.87833e+02
4191	6.87733e+02	4.19100e+03	-1.13557e-02	6.88500e+02
4195	6.88391e+02	4.19500e+03	-1.12825e-02	6.89167e+02
4199	6.89058e+02	4.19900e+03	-1.11289e-02	6.89833e+02
4203	6.89717e+02	4.20300e+03	-1.09863e-02	6.90500e+02
4207	6.90383e+02	4.20700e+03	-1.09143e-02	6.91167e+02
4211	6.91048e+02	4.21100e+03	-1.09745e-02	6.91833e+02
4215	6.91728e+02	4.21500e+03	-1.11267e-02	6.92500e+02
4219	6.92390e+02	4.21900e+03	-1.12246e-02	6.93167e+02
4223	6.93058e+02	4.22300e+03	-1.12307e-02	6.93833e+02
4227	6.93723e+02	4.22700e+03	-1.12183e-02	6.94500e+02
4231	6.94390e+02	4.23100e+03	-1.12457e-02	6.95167e+02
4235	6.94958e+02	4.23500e+03	-1.13336e-02	6.95833e+02
4239	6.95389e+02	4.23900e+03	-1.14064e-02	6.96500e+02
4243	6.95881e+02	4.24300e+03	-1.13997e-02	6.97167e+02
4247	6.96303e+02	4.24700e+03	-1.14018e-02	6.97833e+02
4251	6.96679e+02	4.25100e+03	-1.14217e-02	6.98500e+02
4255	6.97008e+02	4.25500e+03	-1.14221e-02	6.99167e+02
4259	6.97299e+02	4.25900e+03	-1.14668e-02	6.99833e+02
4260	6.97370e+02	4.26000e+03	-1.14941e-02	7.00000e+02