File: Experiments/TUBS/tga_nonisotherm/tga_dynamic_n2_dyn20_piece_2mg_r1.txt
index	ts	t	weight	tr
[#]	[°C]	[s]	[mg]	[°C]
723	1.30155e+02	7.23000e+02	2.00073e+00	1.31000e+02
725	1.30815e+02	7.25000e+02	2.00071e+00	1.31667e+02
727	1.31477e+02	7.27000e+02	2.00068e+00	1.32333e+02
729	1.32124e+02	7.29000e+02	2.00065e+00	1.33000e+02
731	1.32823e+02	7.31000e+02	2.00063e+00	1.33667e+02
733	1.33472e+02	7.33000e+02	2.00061e+00	1.34333e+02
735	1.34143e+02	7.35000e+02	2.00059e+00	1.35000e+02
737	1.34799e+02	7.37000e+02	2.00057e+00	1.35667e+02
739	1.35469e+02	7.39000e+02	2.00055e+00	1.36333e+02
741	1.36136e+02	7.41000e+02	2.00052e+00	1.37000e+02
743	1.36790e+02	7.43000e+02	2.00049e+00	1.37667e+02
745	1.37459e+02	7.45000e+02	2.00047e+00	1.38333e+02
747	1.38129e+02	7.47000e+02	2.00045e+00	1.39000e+02
749	1.38803e+02	7.49000e+02	2.00044e+00	1.39667e+02
751	1.39466e+02	7.51000e+02	2.00043e+00	1.40333e+02
753	1.40118e+02	7.53000e+02	2.00041e+00	1.41000e+02
755	1.40797e+02	7.55000e+02	2.00039e+00	1.41667e+02
757	1.41464e+02	7.57000e+02	2.00039e+00	1.42333e+02
759	1.42122e+02	7.59000e+02	2.00039e+00	1.43000e+02
761	1.42797e+02	7.61000e+02	2.00040e+00	1.43667e+02
763	1.43458e+02	7.63000e+02	2.00039e+00	1.44333e+02
765	1.44135e+02	7.65000e+02	2.00036e+00	1.45000e+02
767	1.44798e+02	7.67000e+02	2.00032e+00	1.45667e+02
769	1.45469e+02	7.69000e+02	2.00028e+00	1.46333e+02
771	1.46136e+02	7.71000e+02	2.00025e+00	1.47000e+02
773	1.46799e+02	7.73000e+02	2.00024e+00	1.47667e+02
775	1.47468e+02	7.75000e+02	2.00023e+00	1.48333e+02
777	1.48133e+02	7.77000e+02	2.00023e+00	1.49000e+02
779	1.48807e+02	7.79000e+02	2.00021e+00	1.49667e+02
781	1.49482e+02	7.81000e+02	2.00018e+00	1.50333e+02
783	1.50154e+02	7.83000e+02	2.00015e+00	1.51000e+02
785	1.50814e+02	7.85000e+02	2.00012e+00	1.51667e+02
787	1.51474e+02	7.87000e+02	2.00009e+00	1.52333e+02
789	1.52143e+02	7.89000e+02	2.00007e+00	1.53000e+02
791	1.52814e+02	7.91000e+02	2.00003e+00	1.53667e+02
793	1.53487e+02	7.93000e+02	1.99999e+00	1.54333e+02
795	1.54146e+02	7.95000e+02	1.99994e+00	1.55000e+02
797	1.54822e+02	7.97000e+02	1.99987e+00	1.55667e+02
799	1.55491e+02	7.99000e+02	1.99980e+00	1.56333e+02
801	1.56163e+02	8.01000e+02	1.99973e+00	1.57000e+02
803	1.56842e+02	8.03000e+02	1.99967e+00	1.57667e+02
805	1.57504e+02	8.05000e+02	1.99963e+00	1.58333e+02
807	1.58174e+02	8.07000e+02	1.99961e+00	1.59000e+02
809	1.58832e+02	8.09000e+02	1.99961e+00	1.59667e+02
811	1.59515e+02	8.11000e+02	1.99961e+00	1.60333e+02
813	1.60187e+02	8.13000e+02	1.99963e+00	1.61000e+02
815	1.60858e+02	8.15000e+02	1.99963e+00	1.61667e+02
817	1.61531e+02	8.17000e+02	1.99962e+00	1.62333e+02
819	1.62206e+02	8.19000e+02	1.99960e+00	1.63000e+02
821	1.62869e+02	8.21000e+02	1.99955e+00	1.63667e+02
823	1.63525e+02	8.23000e+02	1.99951e+00	1.64333e+02
825	1.64206e+02	8.25000e+02	1.99946e+00	1.65000e+02
827	1.64874e+02	8.27000e+02	1.99944e+00	1.65667e+02
829	1.65556e+02	8.29000e+02	1.99943e+00	1.66333e+02
831	1.66214e+02	8.31000e+02	1.99942e+00	1.67000e+02
833	1.66895e+02	8.33000e+02	1.99940e+00	1.67667e+02
835	1.67564e+02	8.35000e+02	1.99936e+00	1.68333e+02
837	1.68237e+02	8.37000e+02	1.99930e+00	1.69000e+02
839	1.68915e+02	8.39000e+02	1.99924e+00	1.69667e+02
841	1.69587e+02	8.41000e+02	1.99919e+00	1.70333e+02
843	1.70261e+02	8.43000e+02	1.99915e+00	1.71000e+02
845	1.70910e+02	8.45000e+02	1.99913e+00	1.71667e+02
847	1.71601e+02	8.47000e+02	1.99910e+00	1.72333e+02
849	1.72258e+02	8.49000e+02	1.99906e+00	1.73000e+02
851	1.72940e+02	8.51000e+02	1.99900e+00	1.73667e+02
853	1.73606e+02	8.53000e+02	1.99891e+00	1.74333e+02
855	1.74292e+02	8.55000e+02	1.99883e+00	1.75000e+02
857	1.74949e+02	8.57000e+02	1.99874e+00	1.75667e+02
859	1.75616e+02	8.59000e+02	1.99865e+00	1.76333e+02
861	1.76291e+02	8.61000e+02	1.99854e+00	1.77000e+02
863	1.76971e+02	8.63000e+02	1.99843e+00	1.77667e+02
865	1.77641e+02	8.65000e+02	1.99830e+00	1.78333e+02
867	1.78305e+02	8.67000e+02	1.99817e+00	1.79000e+02
869	1.78980e+02	8.69000e+02	1.99802e+00	1.79667e+02
871	1.79657e+02	8.71000e+02	1.99787e+00	1.80333e+02
873	1.80328e+02	8.73000e+02	1.99770e+00	1.81000e+02
875	1.81003e+02	8.75000e+02	1.99752e+00	1.81667e+02
877	1.81670e+02	8.77000e+02	1.99733e+00	1.82333e+02
879	1.82359e+02	8.79000e+02	1.99715e+00	1.83000e+02
881	1.83033e+02	8.81000e+02	1.99697e+00	1.83667e+02
883	1.83704e+02	8.83000e+02	1.99678e+00	1.84333e+02
885	1.84364e+02	8.85000e+02	1.99658e+00	1.85000e+02
887	1.85047e+02	8.87000e+02	1.99636e+00	1.85667e+02
889	1.85717e+02	8.89000e+02	1.99611e+00	1.86333e+02
891	1.86391e+02	8.91000e+02	1.99586e+00	1.87000e+02
893	1.87065e+02	8.93000e+02	1.99558e+00	1.87667e+02
895	1.87746e+02	8.95000e+02	1.99531e+00	1.88333e+02
897	1.88424e+02	8.97000e+02	1.99503e+00	1.89000e+02
899	1.89079e+02	8.99000e+02	1.99474e+00	1.89667e+02
901	1.89767e+02	9.01000e+02	1.99444e+00	1.90333e+02
903	1.90437e+02	9.03000e+02	1.99414e+00	1.91000e+02
905	1.91124e+02	9.05000e+02	1.99383e+00	1.91667e+02
907	1.91789e+02	9.07000e+02	1.99351e+00	1.92333e+02
909	1.92467e+02	9.09000e+02	1.99317e+00	1.93000e+02
911	1.93153e+02	9.11000e+02	1.99281e+00	1.93667e+02
913	1.93812e+02	9.13000e+02	1.99239e+00	1.94333e+02
915	1.94498e+02	9.15000e+02	1.99196e+00	1.95000e+02
917	1.95168e+02	9.17000e+02	1.99150e+00	1.95667e+02
919	1.95852e+02	9.19000e+02	1.99105e+00	1.96333e+02
921	1.96518e+02	9.21000e+02	1.99061e+00	1.97000e+02
923	1.97192e+02	9.23000e+02	1.99017e+00	1.97667e+02
925	1.97873e+02	9.25000e+02	1.98972e+00	1.98333e+02
927	1.98548e+02	9.27000e+02	1.98926e+00	1.99000e+02
929	1.99214e+02	9.29000e+02	1.98879e+00	1.99667e+02
931	1.99898e+02	9.31000e+02	1.98831e+00	2.00333e+02
933	2.00566e+02	9.33000e+02	1.98784e+00	2.01000e+02
935	2.01243e+02	9.35000e+02	1.98737e+00	2.01667e+02
937	2.01925e+02	9.37000e+02	1.98690e+00	2.02333e+02
939	2.02593e+02	9.39000e+02	1.98644e+00	2.03000e+02
941	2.03263e+02	9.41000e+02	1.98595e+00	2.03667e+02
943	2.03942e+02	9.43000e+02	1.98545e+00	2.04333e+02
945	2.04605e+02	9.45000e+02	1.98492e+00	2.05000e+02
947	2.05283e+02	9.47000e+02	1.98439e+00	2.05667e+02
949	2.05966e+02	9.49000e+02	1.98386e+00	2.06333e+02
951	2.06634e+02	9.51000e+02	1.98333e+00	2.07000e+02
953	2.07321e+02	9.53000e+02	1.98280e+00	2.07667e+02
955	2.07995e+02	9.55000e+02	1.98229e+00	2.08333e+02
957	2.08664e+02	9.57000e+02	1.98181e+00	2.09000e+02
959	2.09347e+02	9.59000e+02	1.98133e+00	2.09667e+02
961	2.10018e+02	9.61000e+02	1.98086e+00	2.10333e+02
963	2.10687e+02	9.63000e+02	1.98036e+00	2.11000e+02
965	2.11362e+02	9.65000e+02	1.97983e+00	2.11667e+02
967	2.12051e+02	9.67000e+02	1.97932e+00	2.12333e+02
969	2.12721e+02	9.69000e+02	1.97883e+00	2.13000e+02
971	2.13400e+02	9.71000e+02	1.97835e+00	2.13667e+02
973	2.14066e+02	9.73000e+02	1.97789e+00	2.14333e+02
975	2.14743e+02	9.75000e+02	1.97743e+00	2.15000e+02
977	2.15417e+02	9.77000e+02	1.97696e+00	2.15667e+02
979	2.16086e+02	9.79000e+02	1.97648e+00	2.16333e+02
981	2.16772e+02	9.81000e+02	1.97596e+00	2.17000e+02
983	2.17443e+02	9.83000e+02	1.97544e+00	2.17667e+02
985	2.18117e+02	9.85000e+02	1.97491e+00	2.18333e+02
987	2.18795e+02	9.87000e+02	1.97438e+00	2.19000e+02
989	2.19464e+02	9.89000e+02	1.97389e+00	2.19667e+02
991	2.20142e+02	9.91000e+02	1.97342e+00	2.20333e+02
993	2.20816e+02	9.93000e+02	1.97298e+00	2.21000e+02
995	2.21489e+02	9.95000e+02	1.97253e+00	2.21667e+02
997	2.22159e+02	9.97000e+02	1.97206e+00	2.22333e+02
999	2.22833e+02	9.99000e+02	1.97157e+00	2.23000e+02
1001	2.23509e+02	1.00100e+03	1.97102e+00	2.23667e+02
1003	2.24186e+02	1.00300e+03	1.97048e+00	2.24333e+02
1005	2.24869e+02	1.00500e+03	1.96993e+00	2.25000e+02
1007	2.25538e+02	1.00700e+03	1.96940e+00	2.25667e+02
1009	2.26212e+02	1.00900e+03	1.96887e+00	2.26333e+02
1011	2.26875e+02	1.01100e+03	1.96833e+00	2.27000e+02
1013	2.27554e+02	1.01300e+03	1.96778e+00	2.27667e+02
1015	2.28222e+02	1.01500e+03	1.96725e+00	2.28333e+02
1017	2.28907e+02	1.01700e+03	1.96673e+00	2.29000e+02
1019	2.29578e+02	1.01900e+03	1.96621e+00	2.29667e+02
1021	2.30258e+02	1.02100e+03	1.96571e+00	2.30333e+02
1023	2.30920e+02	1.02300e+03	1.96521e+00	2.31000e+02
1025	2.31600e+02	1.02500e+03	1.96474e+00	2.31667e+02
1027	2.32279e+02	1.02700e+03	1.96425e+00	2.32333e+02
1029	2.32946e+02	1.02900e+03	1.96375e+00	2.33000e+02
1031	2.33617e+02	1.03100e+03	1.96322e+00	2.33667e+02
1033	2.34290e+02	1.03300e+03	1.96266e+00	2.34333e+02
1035	2.34968e+02	1.03500e+03	1.96210e+00	2.35000e+02
1037	2.35629e+02	1.03700e+03	1.96156e+00	2.35667e+02
1039	2.36316e+02	1.03900e+03	1.96103e+00	2.36333e+02
1041	2.36989e+02	1.04100e+03	1.96054e+00	2.37000e+02
1043	2.37663e+02	1.04300e+03	1.96005e+00	2.37667e+02
1045	2.38348e+02	1.04500e+03	1.95957e+00	2.38333e+02
1047	2.39008e+02	1.04700e+03	1.95908e+00	2.39000e+02
1049	2.39680e+02	1.04900e+03	1.95856e+00	2.39667e+02
1051	2.40357e+02	1.05100e+03	1.95806e+00	2.40333e+02
1053	2.41033e+02	1.05300e+03	1.95755e+00	2.41000e+02
1055	2.41707e+02	1.05500e+03	1.95705e+00	2.41667e+02
1057	2.42371e+02	1.05700e+03	1.95655e+00	2.42333e+02
1059	2.43040e+02	1.05900e+03	1.95605e+00	2.43000e+02
1061	2.43720e+02	1.06100e+03	1.95555e+00	2.43667e+02
1063	2.44397e+02	1.06300e+03	1.95504e+00	2.44333e+02
1065	2.45069e+02	1.06500e+03	1.95453e+00	2.45000e+02
1067	2.45745e+02	1.06700e+03	1.95401e+00	2.45667e+02
1069	2.46409e+02	1.06900e+03	1.95348e+00	2.46333e+02
1071	2.47082e+02	1.07100e+03	1.95296e+00	2.47000e+02
1073	2.47755e+02	1.07300e+03	1.95244e+00	2.47667e+02
1075	2.48432e+02	1.07500e+03	1.95192e+00	2.48333e+02
1077	2.49098e+02	1.07700e+03	1.95138e+00	2.49000e+02
1079	2.49772e+02	1.07900e+03	1.95085e+00	2.49667e+02
1081	2.50448e+02	1.08100e+03	1.95031e+00	2.50333e+02
1083	2.51121e+02	1.08300e+03	1.94978e+00	2.51000e+02
1085	2.51794e+02	1.08500e+03	1.94927e+00	2.51667e+02
1087	2.52459e+02	1.08700e+03	1.94875e+00	2.52333e+02
1089	2.53132e+02	1.08900e+03	1.94824e+00	2.53000e+02
1091	2.53814e+02	1.09100e+03	1.94773e+00	2.53667e+02
1093	2.54482e+02	1.09300e+03	1.94721e+00	2.54333e+02
1095	2.55158e+02	1.09500e+03	1.94670e+00	2.55000e+02
1097	2.55829e+02	1.09700e+03	1.94621e+00	2.55667e+02
1099	2.56494e+02	1.09900e+03	1.94573e+00	2.56333e+02
1101	2.57160e+02	1.10100e+03	1.94528e+00	2.57000e+02
1103	2.57848e+02	1.10300e+03	1.94481e+00	2.57667e+02
1105	2.58515e+02	1.10500e+03	1.94434e+00	2.58333e+02
1107	2.59194e+02	1.10700e+03	1.94384e+00	2.59000e+02
1109	2.59874e+02	1.10900e+03	1.94332e+00	2.59667e+02
1111	2.60520e+02	1.11100e+03	1.94280e+00	2.60333e+02
1113	2.61203e+02	1.11300e+03	1.94227e+00	2.61000e+02
1115	2.61875e+02	1.11500e+03	1.94174e+00	2.61667e+02
1117	2.62546e+02	1.11700e+03	1.94121e+00	2.62333e+02
1119	2.63224e+02	1.11900e+03	1.94070e+00	2.63000e+02
1121	2.63895e+02	1.12100e+03	1.94019e+00	2.63667e+02
1123	2.64557e+02	1.12300e+03	1.93969e+00	2.64333e+02
1125	2.65238e+02	1.12500e+03	1.93920e+00	2.65000e+02
1127	2.65913e+02	1.12700e+03	1.93870e+00	2.65667e+02
1129	2.66581e+02	1.12900e+03	1.93820e+00	2.66333e+02
1131	2.67257e+02	1.13100e+03	1.93769e+00	2.67000e+02
1133	2.67922e+02	1.13300e+03	1.93719e+00	2.67667e+02
1135	2.68596e+02	1.13500e+03	1.93669e+00	2.68333e+02
1137	2.69251e+02	1.13700e+03	1.93620e+00	2.69000e+02
1139	2.69934e+02	1.13900e+03	1.93571e+00	2.69667e+02
1141	2.70601e+02	1.14100e+03	1.93520e+00	2.70333e+02
1143	2.71259e+02	1.14300e+03	1.93468e+00	2.71000e+02
1145	2.71952e+02	1.14500e+03	1.93414e+00	2.71667e+02
1147	2.72618e+02	1.14700e+03	1.93360e+00	2.72333e+02
1149	2.73277e+02	1.14900e+03	1.93305e+00	2.73000e+02
1151	2.73949e+02	1.15100e+03	1.93249e+00	2.73667e+02
1153	2.74624e+02	1.15300e+03	1.93193e+00	2.74333e+02
1155	2.75293e+02	1.15500e+03	1.93137e+00	2.75000e+02
1157	2.75960e+02	1.15700e+03	1.93078e+00	2.75667e+02
1159	2.76633e+02	1.15900e+03	1.93019e+00	2.76333e+02
1161	2.77294e+02	1.16100e+03	1.92958e+00	2.77000e+02
1163	2.77962e+02	1.16300e+03	1.92897e+00	2.77667e+02
1165	2.78639e+02	1.16500e+03	1.92836e+00	2.78333e+02
1167	2.79298e+02	1.16700e+03	1.92773e+00	2.79000e+02
1169	2.79973e+02	1.16900e+03	1.92709e+00	2.79667e+02
1171	2.80645e+02	1.17100e+03	1.92645e+00	2.80333e+02
1173	2.81319e+02	1.17300e+03	1.92577e+00	2.81000e+02
1175	2.81981e+02	1.17500e+03	1.92508e+00	2.81667e+02
1177	2.82663e+02	1.17700e+03	1.92436e+00	2.82333e+02
1179	2.83323e+02	1.17900e+03	1.92364e+00	2.83000e+02
1181	2.83997e+02	1.18100e+03	1.92289e+00	2.83667e+02
1183	2.84670e+02	1.18300e+03	1.92215e+00	2.84333e+02
1185	2.85334e+02	1.18500e+03	1.92138e+00	2.85000e+02
1187	2.86013e+02	1.18700e+03	1.92061e+00	2.85667e+02
1189	2.86687e+02	1.18900e+03	1.91982e+00	2.86333e+02
1191	2.87352e+02	1.19100e+03	1.91901e+00	2.87000e+02
1193	2.88022e+02	1.19300e+03	1.91817e+00	2.87667e+02
1195	2.88693e+02	1.19500e+03	1.91731e+00	2.88333e+02
1197	2.89351e+02	1.19700e+03	1.91637e+00	2.89000e+02
1199	2.90036e+02	1.19900e+03	1.91540e+00	2.89667e+02
1201	2.90692e+02	1.20100e+03	1.91434e+00	2.90333e+02
1203	2.91349e+02	1.20300e+03	1.91331e+00	2.91000e+02
1205	2.92014e+02	1.20500e+03	1.91227e+00	2.91667e+02
1207	2.92686e+02	1.20700e+03	1.91125e+00	2.92333e+02
1209	2.93356e+02	1.20900e+03	1.91025e+00	2.93000e+02
1211	2.94037e+02	1.21100e+03	1.90923e+00	2.93667e+02
1213	2.94705e+02	1.21300e+03	1.90820e+00	2.94333e+02
1215	2.95365e+02	1.21500e+03	1.90716e+00	2.95000e+02
1217	2.96034e+02	1.21700e+03	1.90608e+00	2.95667e+02
1219	2.96698e+02	1.21900e+03	1.90499e+00	2.96333e+02
1221	2.97377e+02	1.22100e+03	1.90385e+00	2.97000e+02
1223	2.98045e+02	1.22300e+03	1.90271e+00	2.97667e+02
1225	2.98701e+02	1.22500e+03	1.90151e+00	2.98333e+02
1227	2.99376e+02	1.22700e+03	1.90031e+00	2.99000e+02
1229	3.00043e+02	1.22900e+03	1.89907e+00	2.99667e+02
1231	3.00716e+02	1.23100e+03	1.89783e+00	3.00333e+02
1233	3.01381e+02	1.23300e+03	1.89656e+00	3.01000e+02
1235	3.02050e+02	1.23500e+03	1.89526e+00	3.01667e+02
1237	3.02713e+02	1.23700e+03	1.89392e+00	3.02333e+02
1239	3.03382e+02	1.23900e+03	1.89258e+00	3.03000e+02
1241	3.04052e+02	1.24100e+03	1.89119e+00	3.03667e+02
1243	3.04731e+02	1.24300e+03	1.88981e+00	3.04333e+02
1245	3.05394e+02	1.24500e+03	1.88839e+00	3.05000e+02
1247	3.06058e+02	1.24700e+03	1.88696e+00	3.05667e+02
1249	3.06723e+02	1.24900e+03	1.88549e+00	3.06333e+02
1251	3.07382e+02	1.25100e+03	1.88402e+00	3.07000e+02
1253	3.08059e+02	1.25300e+03	1.88253e+00	3.07667e+02
1255	3.08720e+02	1.25500e+03	1.88103e+00	3.08333e+02
1257	3.09389e+02	1.25700e+03	1.87950e+00	3.09000e+02
1259	3.10053e+02	1.25900e+03	1.87797e+00	3.09667e+02
1261	3.10729e+02	1.26100e+03	1.87642e+00	3.10333e+02
1263	3.11387e+02	1.26300e+03	1.87487e+00	3.11000e+02
1265	3.12059e+02	1.26500e+03	1.87330e+00	3.11667e+02
1267	3.12730e+02	1.26700e+03	1.87171e+00	3.12333e+02
1269	3.13400e+02	1.26900e+03	1.87010e+00	3.13000e+02
1271	3.14065e+02	1.27100e+03	1.86848e+00	3.13667e+02
1273	3.14735e+02	1.27300e+03	1.86684e+00	3.14333e+02
1275	3.15396e+02	1.27500e+03	1.86521e+00	3.15000e+02
1277	3.16057e+02	1.27700e+03	1.86357e+00	3.15667e+02
1279	3.16733e+02	1.27900e+03	1.86194e+00	3.16333e+02
1281	3.17401e+02	1.28100e+03	1.86031e+00	3.17000e+02
1283	3.18065e+02	1.28300e+03	1.85867e+00	3.17667e+02
1285	3.18729e+02	1.28500e+03	1.85701e+00	3.18333e+02
1287	3.19400e+02	1.28700e+03	1.85532e+00	3.19000e+02
1289	3.20058e+02	1.28900e+03	1.85360e+00	3.19667e+02
1291	3.20732e+02	1.29100e+03	1.85187e+00	3.20333e+02
1293	3.21393e+02	1.29300e+03	1.85012e+00	3.21000e+02
1295	3.22060e+02	1.29500e+03	1.84835e+00	3.21667e+02
1297	3.22717e+02	1.29700e+03	1.84654e+00	3.22333e+02
1299	3.23400e+02	1.29900e+03	1.84470e+00	3.23000e+02
1301	3.24065e+02	1.30100e+03	1.84279e+00	3.23667e+02
1303	3.24722e+02	1.30300e+03	1.84086e+00	3.24333e+02
1305	3.25390e+02	1.30500e+03	1.83886e+00	3.25000e+02
1307	3.26063e+02	1.30700e+03	1.83683e+00	3.25667e+02
1309	3.26726e+02	1.30900e+03	1.83471e+00	3.26333e+02
1311	3.27391e+02	1.31100e+03	1.83257e+00	3.27000e+02
1313	3.28070e+02	1.31300e+03	1.83032e+00	3.27667e+02
1315	3.28717e+02	1.31500e+03	1.82804e+00	3.28333e+02
1317	3.29391e+02	1.31700e+03	1.82561e+00	3.29000e+02
1319	3.30053e+02	1.31900e+03	1.82314e+00	3.29667e+02
1321	3.30720e+02	1.32100e+03	1.82053e+00	3.30333e+02
1323	3.31380e+02	1.32300e+03	1.81788e+00	3.31000e+02
1325	3.32046e+02	1.32500e+03	1.81508e+00	3.31667e+02
1327	3.32707e+02	1.32700e+03	1.81222e+00	3.32333e+02
1329	3.33371e+02	1.32900e+03	1.80920e+00	3.33000e+02
1331	3.34039e+02	1.33100e+03	1.80614e+00	3.33667e+02
1333	3.34710e+02	1.33300e+03	1.80290e+00	3.34333e+02
1335	3.35370e+02	1.33500e+03	1.79956e+00	3.35000e+02
1337	3.36037e+02	1.33700e+03	1.79597e+00	3.35667e+02
1339	3.36707e+02	1.33900e+03	1.79230e+00	3.36333e+02
1341	3.37363e+02	1.34100e+03	1.78837e+00	3.37000e+02
1343	3.38025e+02	1.34300e+03	1.78439e+00	3.37667e+02
1345	3.38684e+02	1.34500e+03	1.78014e+00	3.38333e+02
1347	3.39353e+02	1.34700e+03	1.77580e+00	3.39000e+02
1349	3.40011e+02	1.34900e+03	1.77112e+00	3.39667e+02
1351	3.40677e+02	1.35100e+03	1.76637e+00	3.40333e+02
1353	3.41330e+02	1.35300e+03	1.76129e+00	3.41000e+02
1355	3.42003e+02	1.35500e+03	1.75614e+00	3.41667e+02
1357	3.42666e+02	1.35700e+03	1.75066e+00	3.42333e+02
1359	3.43327e+02	1.35900e+03	1.74510e+00	3.43000e+02
1361	3.43980e+02	1.36100e+03	1.73915e+00	3.43667e+02
1363	3.44651e+02	1.36300e+03	1.73309e+00	3.44333e+02
1365	3.45307e+02	1.36500e+03	1.72658e+00	3.45000e+02
1367	3.45976e+02	1.36700e+03	1.71996e+00	3.45667e+02
1369	3.46632e+02	1.36900e+03	1.71288e+00	3.46333e+02
1371	3.47299e+02	1.37100e+03	1.70569e+00	3.47000e+02
1373	3.47964e+02	1.37300e+03	1.69803e+00	3.47667e+02
1375	3.48616e+02	1.37500e+03	1.69024e+00	3.48333e+02
1377	3.49274e+02	1.37700e+03	1.68192e+00	3.49000e+02
1379	3.49936e+02	1.37900e+03	1.67346e+00	3.49667e+02
1381	3.50598e+02	1.38100e+03	1.66442e+00	3.50333e+02
1383	3.51251e+02	1.38300e+03	1.65525e+00	3.51000e+02
1385	3.51916e+02	1.38500e+03	1.64548e+00	3.51667e+02
1387	3.52578e+02	1.38700e+03	1.63555e+00	3.52333e+02
1389	3.53219e+02	1.38900e+03	1.62496e+00	3.53000e+02
1391	3.53887e+02	1.39100e+03	1.61417e+00	3.53667e+02
1393	3.54541e+02	1.39300e+03	1.60264e+00	3.54333e+02
1395	3.55205e+02	1.39500e+03	1.59088e+00	3.55000e+02
1397	3.55859e+02	1.39700e+03	1.57827e+00	3.55667e+02
1399	3.56524e+02	1.39900e+03	1.56542e+00	3.56333e+02
1401	3.57172e+02	1.40100e+03	1.55165e+00	3.57000e+02
1403	3.57832e+02	1.40300e+03	1.53768e+00	3.57667e+02
1405	3.58481e+02	1.40500e+03	1.52286e+00	3.58333e+02
1407	3.59158e+02	1.40700e+03	1.50791e+00	3.59000e+02
1409	3.59807e+02	1.40900e+03	1.49225e+00	3.59667e+02
1411	3.60459e+02	1.41100e+03	1.47647e+00	3.60333e+02
1413	3.61115e+02	1.41300e+03	1.46002e+00	3.61000e+02
1415	3.61772e+02	1.41500e+03	1.44336e+00	3.61667e+02
1417	3.62437e+02	1.41700e+03	1.42598e+00	3.62333e+02
1419	3.63095e+02	1.41900e+03	1.40844e+00	3.63000e+02
1421	3.63743e+02	1.42100e+03	1.39019e+00	3.63667e+02
1423	3.64406e+02	1.42300e+03	1.37176e+00	3.64333e+02
1425	3.65055e+02	1.42500e+03	1.35263e+00	3.65000e+02
1427	3.65717e+02	1.42700e+03	1.33332e+00	3.65667e+02
1429	3.66380e+02	1.42900e+03	1.31329e+00	3.66333e+02
1431	3.67044e+02	1.43100e+03	1.29309e+00	3.67000e+02
1433	3.67698e+02	1.43300e+03	1.27217e+00	3.67667e+02
1435	3.68344e+02	1.43500e+03	1.25113e+00	3.68333e+02
1437	3.69007e+02	1.43700e+03	1.22943e+00	3.69000e+02
1439	3.69665e+02	1.43900e+03	1.20759e+00	3.69667e+02
1441	3.70329e+02	1.44100e+03	1.18517e+00	3.70333e+02
1443	3.70972e+02	1.44300e+03	1.16264e+00	3.71000e+02
1445	3.71644e+02	1.44500e+03	1.13961e+00	3.71667e+02
1447	3.72293e+02	1.44700e+03	1.11649e+00	3.72333e+02
1449	3.72956e+02	1.44900e+03	1.09285e+00	3.73000e+02
1451	3.73618e+02	1.45100e+03	1.06905e+00	3.73667e+02
1453	3.74277e+02	1.45300e+03	1.04471e+00	3.74333e+02
1455	3.74934e+02	1.45500e+03	1.02033e+00	3.75000e+02
1457	3.75605e+02	1.45700e+03	9.95609e-01	3.75667e+02
1459	3.76259e+02	1.45900e+03	9.70958e-01	3.76333e+02
1461	3.76924e+02	1.46100e+03	9.46276e-01	3.77000e+02
1463	3.77581e+02	1.46300e+03	9.21688e-01	3.77667e+02
1465	3.78250e+02	1.46500e+03	8.97234e-01	3.78333e+02
1467	3.78913e+02	1.46700e+03	8.72826e-01	3.79000e+02
1469	3.79568e+02	1.46900e+03	8.48600e-01	3.79667e+02
1471	3.80227e+02	1.47100e+03	8.24447e-01	3.80333e+02
1473	3.80888e+02	1.47300e+03	8.00510e-01	3.81000e+02
1475	3.81553e+02	1.47500e+03	7.76607e-01	3.81667e+02
1477	3.82211e+02	1.47700e+03	7.52894e-01	3.82333e+02
1479	3.82878e+02	1.47900e+03	7.29178e-01	3.83000e+02
1481	3.83546e+02	1.48100e+03	7.05478e-01	3.83667e+02
1483	3.84207e+02	1.48300e+03	6.81613e-01	3.84333e+02
1485	3.84872e+02	1.48500e+03	6.57463e-01	3.85000e+02
1487	3.85536e+02	1.48700e+03	6.33157e-01	3.85667e+02
1489	3.86210e+02	1.48900e+03	6.08456e-01	3.86333e+02
1491	3.86861e+02	1.49100e+03	5.83732e-01	3.87000e+02
1493	3.87542e+02	1.49300e+03	5.58830e-01	3.87667e+02
1495	3.88205e+02	1.49500e+03	5.34107e-01	3.88333e+02
1497	3.88880e+02	1.49700e+03	5.09711e-01	3.89000e+02
1499	3.89551e+02	1.49900e+03	4.85633e-01	3.89667e+02
1501	3.90229e+02	1.50100e+03	4.62311e-01	3.90333e+02
1503	3.90899e+02	1.50300e+03	4.39263e-01	3.91000e+02
1505	3.91567e+02	1.50500e+03	4.17156e-01	3.91667e+02
1507	3.92241e+02	1.50700e+03	3.95363e-01	3.92333e+02
1509	3.92910e+02	1.50900e+03	3.74673e-01	3.93000e+02
1511	3.93579e+02	1.51100e+03	3.54311e-01	3.93667e+02
1513	3.94254e+02	1.51300e+03	3.35185e-01	3.94333e+02
1515	3.94928e+02	1.51500e+03	3.16375e-01	3.95000e+02
1517	3.95599e+02	1.51700e+03	2.98812e-01	3.95667e+02
1519	3.96270e+02	1.51900e+03	2.81507e-01	3.96333e+02
1521	3.96943e+02	1.52100e+03	2.65395e-01	3.97000e+02
1523	3.97612e+02	1.52300e+03	2.49555e-01	3.97667e+02
1525	3.98299e+02	1.52500e+03	2.34884e-01	3.98333e+02
1527	3.98967e+02	1.52700e+03	2.20469e-01	3.99000e+02
1529	3.99634e+02	1.52900e+03	2.07186e-01	3.99667e+02
1531	4.00319e+02	1.53100e+03	1.94145e-01	4.00333e+02
1533	4.00979e+02	1.53300e+03	1.82195e-01	4.01000e+02
1535	4.01653e+02	1.53500e+03	1.70481e-01	4.01667e+02
1537	4.02326e+02	1.53700e+03	1.59806e-01	4.02333e+02
1539	4.03003e+02	1.53900e+03	1.49340e-01	4.03000e+02
1541	4.03678e+02	1.54100e+03	1.39836e-01	4.03667e+02
1543	4.04342e+02	1.54300e+03	1.30524e-01	4.04333e+02
1545	4.05021e+02	1.54500e+03	1.22100e-01	4.05000e+02
1547	4.05677e+02	1.54700e+03	1.13859e-01	4.05667e+02
1549	4.06361e+02	1.54900e+03	1.06428e-01	4.06333e+02
1551	4.07031e+02	1.55100e+03	9.91596e-02	4.07000e+02
1553	4.07688e+02	1.55300e+03	9.26503e-02	4.07667e+02
1555	4.08364e+02	1.55500e+03	8.63048e-02	4.08333e+02
1557	4.09029e+02	1.55700e+03	8.06683e-02	4.09000e+02
1559	4.09703e+02	1.55900e+03	7.51654e-02	4.09667e+02
1561	4.10366e+02	1.56100e+03	7.02985e-02	4.10333e+02
1563	4.11039e+02	1.56300e+03	6.55450e-02	4.11000e+02
1565	4.11716e+02	1.56500e+03	6.13621e-02	4.11667e+02
1567	4.12365e+02	1.56700e+03	5.72821e-02	4.12333e+02
1569	4.13046e+02	1.56900e+03	5.36943e-02	4.13000e+02
1571	4.13706e+02	1.57100e+03	5.01738e-02	4.13667e+02
1573	4.14369e+02	1.57300e+03	4.70592e-02	4.14333e+02
1575	4.15047e+02	1.57500e+03	4.40159e-02	4.15000e+02
1577	4.15701e+02	1.57700e+03	4.13362e-02	4.15667e+02
1579	4.16370e+02	1.57900e+03	3.87268e-02	4.16333e+02
1581	4.17040e+02	1.58100e+03	3.64438e-02	4.17000e+02
1583	4.17702e+02	1.58300e+03	3.42100e-02	4.17667e+02
1585	4.18370e+02	1.58500e+03	3.22403e-02	4.18333e+02
1587	4.19038e+02	1.58700e+03	3.03130e-02	4.19000e+02
1589	4.19718e+02	1.58900e+03	2.86097e-02	4.19667e+02
1591	4.20362e+02	1.59100e+03	2.69439e-02	4.20333e+02
1593	4.21033e+02	1.59300e+03	2.54726e-02	4.21000e+02
1595	4.21697e+02	1.59500e+03	2.40296e-02	4.21667e+02
1597	4.22353e+02	1.59700e+03	2.27414e-02	4.22333e+02
1599	4.23021e+02	1.59900e+03	2.14843e-02	4.23000e+02
1601	4.23695e+02	1.60100e+03	2.03649e-02	4.23667e+02
1603	4.24345e+02	1.60300e+03	1.92738e-02	4.24333e+02
1605	4.25021e+02	1.60500e+03	1.83026e-02	4.25000e+02
1607	4.25679e+02	1.60700e+03	1.73445e-02	4.25667e+02
1609	4.26339e+02	1.60900e+03	1.64793e-02	4.26333e+02
1611	4.27008e+02	1.61100e+03	1.56307e-02	4.27000e+02
1613	4.27662e+02	1.61300e+03	1.48667e-02	4.27667e+02
1615	4.28326e+02	1.61500e+03	1.41173e-02	4.28333e+02
1617	4.28989e+02	1.61700e+03	1.34518e-02	4.29000e+02
1619	4.29656e+02	1.61900e+03	1.28003e-02	4.29667e+02
1621	4.30315e+02	1.62100e+03	1.22200e-02	4.30333e+02
1623	4.30973e+02	1.62300e+03	1.16454e-02	4.31000e+02
1625	4.31643e+02	1.62500e+03	1.11170e-02	4.31667e+02
1627	4.32302e+02	1.62700e+03	1.05944e-02	4.32333e+02
1629	4.32965e+02	1.62900e+03	1.01015e-02	4.33000e+02
1631	4.33632e+02	1.63100e+03	9.61354e-03	4.33667e+02
1633	4.34291e+02	1.63300e+03	9.16281e-03	4.34333e+02
1635	4.34954e+02	1.63500e+03	8.73846e-03	4.35000e+02
1637	4.35606e+02	1.63700e+03	8.39040e-03	4.35667e+02
1639	4.36265e+02	1.63900e+03	8.05830e-03	4.36333e+02
1641	4.36935e+02	1.64100e+03	7.77324e-03	4.37000e+02
1643	4.37594e+02	1.64300e+03	7.46710e-03	4.37667e+02
1645	4.38259e+02	1.64500e+03	7.16494e-03	4.38333e+02
1647	4.38918e+02	1.64700e+03	6.88008e-03	4.39000e+02
1649	4.39584e+02	1.64900e+03	6.62343e-03	4.39667e+02
1651	4.40249e+02	1.65100e+03	6.37805e-03	4.40333e+02
1653	4.40900e+02	1.65300e+03	6.16604e-03	4.41000e+02
1655	4.41569e+02	1.65500e+03	5.95187e-03	4.41667e+02
1657	4.42222e+02	1.65700e+03	5.75071e-03	4.42333e+02
1659	4.42890e+02	1.65900e+03	5.56154e-03	4.43000e+02
1661	4.43538e+02	1.66100e+03	5.40401e-03	4.43667e+02
1663	4.44207e+02	1.66300e+03	5.26345e-03	4.44333e+02
1665	4.44865e+02	1.66500e+03	5.15986e-03	4.45000e+02
1667	4.45534e+02	1.66700e+03	5.04753e-03	4.45667e+02
1669	4.46191e+02	1.66900e+03	4.94465e-03	4.46333e+02
1671	4.46848e+02	1.67100e+03	4.84320e-03	4.47000e+02
1673	4.47507e+02	1.67300e+03	4.75034e-03	4.47667e+02
1675	4.48170e+02	1.67500e+03	4.65839e-03	4.48333e+02
1677	4.48832e+02	1.67700e+03	4.58569e-03	4.49000e+02
1679	4.49494e+02	1.67900e+03	4.53165e-03	4.49667e+02
1681	4.50146e+02	1.68100e+03	4.51680e-03	4.50333e+02
1683	4.50807e+02	1.68300e+03	4.50822e-03	4.51000e+02
1685	4.51472e+02	1.68500e+03	4.51840e-03	4.51667e+02
1687	4.52133e+02	1.68700e+03	4.51215e-03	4.52333e+02
1689	4.52792e+02	1.68900e+03	4.49057e-03	4.53000e+02
1691	4.53440e+02	1.69100e+03	4.47022e-03	4.53667e+02
1693	4.54105e+02	1.69300e+03	4.44973e-03	4.54333e+02
1695	4.54767e+02	1.69500e+03	4.44166e-03	4.55000e+02
1697	4.55430e+02	1.69700e+03	4.44786e-03	4.55667e+02
1699	4.56086e+02	1.69900e+03	4.44891e-03	4.56333e+02
1701	4.56743e+02	1.70100e+03	4.43625e-03	4.57000e+02
1703	4.57409e+02	1.70300e+03	4.39858e-03	4.57667e+02
1705	4.58068e+02	1.70500e+03	4.32149e-03	4.58333e+02
1707	4.58727e+02	1.70700e+03	4.25258e-03	4.59000e+02
1709	4.59384e+02	1.70900e+03	4.18814e-03	4.59667e+02
1711	4.60053e+02	1.71100e+03	4.14497e-03	4.60333e+02
1713	4.60710e+02	1.71300e+03	4.13127e-03	4.61000e+02
1715	4.61369e+02	1.71500e+03	4.10870e-03	4.61667e+02
1717	4.62031e+02	1.71700e+03	4.09029e-03	4.62333e+02
1719	4.62680e+02	1.71900e+03	4.06571e-03	4.63000e+02
1721	4.63343e+02	1.72100e+03	4.03463e-03	4.63667e+02
1723	4.64004e+02	1.72300e+03	3.99821e-03	4.64333e+02
1725	4.64663e+02	1.72500e+03	3.95462e-03	4.65000e+02
1727	4.65313e+02	1.72700e+03	3.91803e-03	4.65667e+02
1729	4.65974e+02	1.72900e+03	3.88814e-03	4.66333e+02
1731	4.66627e+02	1.73100e+03	3.86386e-03	4.67000e+02
1733	4.67290e+02	1.73300e+03	3.85035e-03	4.67667e+02
1735	4.67950e+02	1.73500e+03	3.83937e-03	4.68333e+02
1737	4.68610e+02	1.73700e+03	3.83524e-03	4.69000e+02
1739	4.69262e+02	1.73900e+03	3.83539e-03	4.69667e+02
1741	4.69927e+02	1.74100e+03	3.84896e-03	4.70333e+02
1743	4.70588e+02	1.74300e+03	3.86466e-03	4.71000e+02
1745	4.71243e+02	1.74500e+03	3.88571e-03	4.71667e+02
1747	4.71914e+02	1.74700e+03	3.89439e-03	4.72333e+02
1749	4.72565e+02	1.74900e+03	3.88491e-03	4.73000e+02
1751	4.73230e+02	1.75100e+03	3.86128e-03	4.73667e+02
1753	4.73882e+02	1.75300e+03	3.81716e-03	4.74333e+02
1755	4.74558e+02	1.75500e+03	3.77746e-03	4.75000e+02
1757	4.75215e+02	1.75700e+03	3.73450e-03	4.75667e+02
1759	4.75860e+02	1.75900e+03	3.69603e-03	4.76333e+02
1761	4.76537e+02	1.76100e+03	3.65808e-03	4.77000e+02
1763	4.77186e+02	1.76300e+03	3.62104e-03	4.77667e+02
1765	4.77850e+02	1.76500e+03	3.58908e-03	4.78333e+02
1767	4.78508e+02	1.76700e+03	3.56477e-03	4.79000e+02
1769	4.79173e+02	1.76900e+03	3.54975e-03	4.79667e+02
1771	4.79832e+02	1.77100e+03	3.53526e-03	4.80333e+02
1773	4.80490e+02	1.77300e+03	3.52421e-03	4.81000e+02
1775	4.81152e+02	1.77500e+03	3.50590e-03	4.81667e+02
1777	4.81814e+02	1.77700e+03	3.46735e-03	4.82333e+02
1779	4.82473e+02	1.77900e+03	3.42794e-03	4.83000e+02
1781	4.83138e+02	1.78100e+03	3.39810e-03	4.83667e+02
1783	4.83798e+02	1.78300e+03	3.40358e-03	4.84333e+02
1785	4.84457e+02	1.78500e+03	3.46532e-03	4.85000e+02
1787	4.85112e+02	1.78700e+03	3.51740e-03	4.85667e+02
1789	4.85772e+02	1.78900e+03	3.57493e-03	4.86333e+02
1791	4.86434e+02	1.79100e+03	3.60675e-03	4.87000e+02
1793	4.87092e+02	1.79300e+03	3.60573e-03	4.87667e+02
1795	4.87757e+02	1.79500e+03	3.60089e-03	4.88333e+02
1797	4.88423e+02	1.79700e+03	3.57515e-03	4.89000e+02
1799	4.89074e+02	1.79900e+03	3.54713e-03	4.89667e+02
1801	4.89742e+02	1.80100e+03	3.50685e-03	4.90333e+02
1803	4.90397e+02	1.80300e+03	3.48124e-03	4.91000e+02
1805	4.91049e+02	1.80500e+03	3.47311e-03	4.91667e+02
1807	4.91713e+02	1.80700e+03	3.47708e-03	4.92333e+02
1809	4.92383e+02	1.80900e+03	3.49684e-03	4.93000e+02
1811	4.93035e+02	1.81100e+03	3.50427e-03	4.93667e+02
1813	4.93701e+02	1.81300e+03	3.50400e-03	4.94333e+02
1815	4.94365e+02	1.81500e+03	3.50842e-03	4.95000e+02
1817	4.95025e+02	1.81700e+03	3.50943e-03	4.95667e+02
1819	4.95689e+02	1.81900e+03	3.49958e-03	4.96333e+02
1821	4.96332e+02	1.82100e+03	3.48017e-03	4.97000e+02
1823	4.97006e+02	1.82300e+03	3.45942e-03	4.97667e+02
1825	4.97665e+02	1.82500e+03	3.43354e-03	4.98333e+02
1827	4.98332e+02	1.82700e+03	3.41361e-03	4.99000e+02
1829	4.98980e+02	1.82900e+03	3.40387e-03	4.99667e+02
1831	4.99640e+02	1.83100e+03	3.39439e-03	5.00333e+02
1833	5.00306e+02	1.83300e+03	3.38539e-03	5.01000e+02
1835	5.00960e+02	1.83500e+03	3.35963e-03	5.01667e+02
1837	5.01630e+02	1.83700e+03	3.31593e-03	5.02333e+02
1839	5.02277e+02	1.83900e+03	3.28765e-03	5.03000e+02
1841	5.02952e+02	1.84100e+03	3.28067e-03	5.03667e+02
1843	5.03604e+02	1.84300e+03	3.29551e-03	5.04333e+02
1845	5.04267e+02	1.84500e+03	3.33710e-03	5.05000e+02
1847	5.04922e+02	1.84700e+03	3.35661e-03	5.05667e+02
1849	5.05584e+02	1.84900e+03	3.35277e-03	5.06333e+02
1851	5.06240e+02	1.85100e+03	3.34537e-03	5.07000e+02
1853	5.06907e+02	1.85300e+03	3.32004e-03	5.07667e+02
1855	5.07567e+02	1.85500e+03	3.30032e-03	5.08333e+02
1857	5.08215e+02	1.85700e+03	3.27753e-03	5.09000e+02
1859	5.08881e+02	1.85900e+03	3.25344e-03	5.09667e+02
1861	5.09548e+02	1.86100e+03	3.22763e-03	5.10333e+02
1863	5.10205e+02	1.86300e+03	3.20749e-03	5.11000e+02
1865	5.10868e+02	1.86500e+03	3.20062e-03	5.11667e+02
1867	5.11532e+02	1.86700e+03	3.19790e-03	5.12333e+02
1869	5.12185e+02	1.86900e+03	3.19638e-03	5.13000e+02
1871	5.12850e+02	1.87100e+03	3.16739e-03	5.13667e+02
1873	5.13514e+02	1.87300e+03	3.12160e-03	5.14333e+02
1875	5.14177e+02	1.87500e+03	3.08994e-03	5.15000e+02
1877	5.14838e+02	1.87700e+03	3.06891e-03	5.15667e+02
1879	5.15501e+02	1.87900e+03	3.04714e-03	5.16333e+02
1881	5.16156e+02	1.88100e+03	3.03205e-03	5.17000e+02
1883	5.16809e+02	1.88300e+03	3.01324e-03	5.17667e+02
1885	5.17476e+02	1.88500e+03	2.99457e-03	5.18333e+02
1887	5.18136e+02	1.88700e+03	2.99053e-03	5.19000e+02
1889	5.18802e+02	1.88900e+03	3.00912e-03	5.19667e+02
1891	5.19456e+02	1.89100e+03	3.03117e-03	5.20333e+02
1893	5.20118e+02	1.89300e+03	3.07613e-03	5.21000e+02
1895	5.20787e+02	1.89500e+03	3.11986e-03	5.21667e+02
1897	5.21456e+02	1.89700e+03	3.15655e-03	5.22333e+02
1899	5.22102e+02	1.89900e+03	3.17183e-03	5.23000e+02
1901	5.22768e+02	1.90100e+03	3.14307e-03	5.23667e+02
1903	5.23431e+02	1.90300e+03	3.11400e-03	5.24333e+02
1905	5.24091e+02	1.90500e+03	3.07362e-03	5.25000e+02
1907	5.24759e+02	1.90700e+03	3.05316e-03	5.25667e+02
1909	5.25419e+02	1.90900e+03	3.05499e-03	5.26333e+02
1911	5.26080e+02	1.91100e+03	3.05796e-03	5.27000e+02
1913	5.26740e+02	1.91300e+03	3.06696e-03	5.27667e+02
1915	5.27404e+02	1.91500e+03	3.06716e-03	5.28333e+02
1917	5.28078e+02	1.91700e+03	3.05124e-03	5.29000e+02
1919	5.28734e+02	1.91900e+03	3.03193e-03	5.29667e+02
1921	5.29398e+02	1.92100e+03	3.00133e-03	5.30333e+02
1923	5.30065e+02	1.92300e+03	2.97679e-03	5.31000e+02
1925	5.30717e+02	1.92500e+03	2.95497e-03	5.31667e+02
1927	5.31385e+02	1.92700e+03	2.93298e-03	5.32333e+02
1929	5.32036e+02	1.92900e+03	2.92336e-03	5.33000e+02
1931	5.32711e+02	1.93100e+03	2.92510e-03	5.33667e+02
1933	5.33369e+02	1.93300e+03	2.94810e-03	5.34333e+02
1935	5.34037e+02	1.93500e+03	2.96647e-03	5.35000e+02
1937	5.34706e+02	1.93700e+03	2.98866e-03	5.35667e+02
1939	5.35358e+02	1.93900e+03	3.00076e-03	5.36333e+02
1941	5.36029e+02	1.94100e+03	3.00134e-03	5.37000e+02
1943	5.36683e+02	1.94300e+03	2.99827e-03	5.37667e+02
1945	5.37353e+02	1.94500e+03	2.98487e-03	5.38333e+02
1947	5.38014e+02	1.94700e+03	2.96842e-03	5.39000e+02
1949	5.38678e+02	1.94900e+03	2.94265e-03	5.39667e+02
1951	5.39334e+02	1.95100e+03	2.91771e-03	5.40333e+02
1953	5.40002e+02	1.95300e+03	2.90285e-03	5.41000e+02
1955	5.40657e+02	1.95500e+03	2.90512e-03	5.41667e+02
1957	5.41328e+02	1.95700e+03	2.93914e-03	5.42333e+02
1959	5.41985e+02	1.95900e+03	2.97870e-03	5.43000e+02
1961	5.42660e+02	1.96100e+03	3.02953e-03	5.43667e+02
1963	5.43325e+02	1.96300e+03	3.05158e-03	5.44333e+02
1965	5.43978e+02	1.96500e+03	3.03456e-03	5.45000e+02
1967	5.44643e+02	1.96700e+03	3.01255e-03	5.45667e+02
1969	5.45311e+02	1.96900e+03	2.97600e-03	5.46333e+02
1971	5.45978e+02	1.97100e+03	2.96506e-03	5.47000e+02
1973	5.46633e+02	1.97300e+03	2.96662e-03	5.47667e+02
1975	5.47305e+02	1.97500e+03	2.94360e-03	5.48333e+02
1977	5.47961e+02	1.97700e+03	2.90558e-03	5.49000e+02
1979	5.48623e+02	1.97900e+03	2.87944e-03	5.49667e+02
1981	5.49289e+02	1.98100e+03	2.86697e-03	5.50333e+02
1983	5.49947e+02	1.98300e+03	2.86420e-03	5.51000e+02
1985	5.50610e+02	1.98500e+03	2.87886e-03	5.51667e+02
1987	5.51271e+02	1.98700e+03	2.87772e-03	5.52333e+02
1989	5.51938e+02	1.98900e+03	2.85939e-03	5.53000e+02
1991	5.52598e+02	1.99100e+03	2.83545e-03	5.53667e+02
1993	5.53276e+02	1.99300e+03	2.79755e-03	5.54333e+02
1995	5.53930e+02	1.99500e+03	2.76746e-03	5.55000e+02
1997	5.54587e+02	1.99700e+03	2.74586e-03	5.55667e+02
1999	5.55253e+02	1.99900e+03	2.73709e-03	5.56333e+02
2001	5.55912e+02	2.00100e+03	2.74553e-03	5.57000e+02
2003	5.56579e+02	2.00300e+03	2.75029e-03	5.57667e+02
2005	5.57241e+02	2.00500e+03	2.76772e-03	5.58333e+02
2007	5.57914e+02	2.00700e+03	2.78390e-03	5.59000e+02
2009	5.58566e+02	2.00900e+03	2.79282e-03	5.59667e+02
2011	5.59234e+02	2.01100e+03	2.79368e-03	5.60333e+02
2013	5.59896e+02	2.01300e+03	2.78220e-03	5.61000e+02
2015	5.60561e+02	2.01500e+03	2.76428e-03	5.61667e+02
2017	5.61219e+02	2.01700e+03	2.74331e-03	5.62333e+02
2019	5.61889e+02	2.01900e+03	2.72308e-03	5.63000e+02
2021	5.62547e+02	2.02100e+03	2.69911e-03	5.63667e+02
2023	5.63216e+02	2.02300e+03	2.68366e-03	5.64333e+02
2025	5.63871e+02	2.02500e+03	2.68899e-03	5.65000e+02
2027	5.64541e+02	2.02700e+03	2.70668e-03	5.65667e+02
2029	5.65204e+02	2.02900e+03	2.74865e-03	5.66333e+02
2031	5.65871e+02	2.03100e+03	2.78320e-03	5.67000e+02
2033	5.66526e+02	2.03300e+03	2.80853e-03	5.67667e+02
2035	5.67192e+02	2.03500e+03	2.82191e-03	5.68333e+02
2037	5.67857e+02	2.03700e+03	2.80282e-03	5.69000e+02
2039	5.68526e+02	2.03900e+03	2.77914e-03	5.69667e+02
2041	5.69182e+02	2.04100e+03	2.74928e-03	5.70333e+02
2043	5.69857e+02	2.04300e+03	2.74225e-03	5.71000e+02
2045	5.70512e+02	2.04500e+03	2.75908e-03	5.71667e+02
2047	5.71175e+02	2.04700e+03	2.76770e-03	5.72333e+02
2049	5.71843e+02	2.04900e+03	2.78081e-03	5.73000e+02
2051	5.72500e+02	2.05100e+03	2.78292e-03	5.73667e+02
2053	5.73165e+02	2.05300e+03	2.76117e-03	5.74333e+02
2055	5.73824e+02	2.05500e+03	2.73361e-03	5.75000e+02
2057	5.74495e+02	2.05700e+03	2.69131e-03	5.75667e+02
2059	5.75162e+02	2.05900e+03	2.66856e-03	5.76333e+02
2061	5.75828e+02	2.06100e+03	2.66450e-03	5.77000e+02
2063	5.76501e+02	2.06300e+03	2.66635e-03	5.77667e+02
2065	5.77160e+02	2.06500e+03	2.68756e-03	5.78333e+02
2067	5.77826e+02	2.06700e+03	2.71409e-03	5.79000e+02
2069	5.78493e+02	2.06900e+03	2.75300e-03	5.79667e+02
2071	5.79155e+02	2.07100e+03	2.78420e-03	5.80333e+02
2073	5.79802e+02	2.07300e+03	2.78646e-03	5.81000e+02
2075	5.80480e+02	2.07500e+03	2.77035e-03	5.81667e+02
2077	5.81146e+02	2.07700e+03	2.72400e-03	5.82333e+02
2079	5.81811e+02	2.07900e+03	2.69506e-03	5.83000e+02
2081	5.82470e+02	2.08100e+03	2.67996e-03	5.83667e+02
2083	5.83140e+02	2.08300e+03	2.66370e-03	5.84333e+02
2085	5.83800e+02	2.08500e+03	2.65886e-03	5.85000e+02
2087	5.84471e+02	2.08700e+03	2.65384e-03	5.85667e+02
2089	5.85134e+02	2.08900e+03	2.64612e-03	5.86333e+02
2091	5.85794e+02	2.09100e+03	2.63259e-03	5.87000e+02
2093	5.86464e+02	2.09300e+03	2.62985e-03	5.87667e+02
2095	5.87112e+02	2.09500e+03	2.64530e-03	5.88333e+02
2097	5.87793e+02	2.09700e+03	2.67502e-03	5.89000e+02
2099	5.88457e+02	2.09900e+03	2.68048e-03	5.89667e+02
2101	5.89120e+02	2.10100e+03	2.65418e-03	5.90333e+02
2103	5.89787e+02	2.10300e+03	2.62342e-03	5.91000e+02
2105	5.90446e+02	2.10500e+03	2.58342e-03	5.91667e+02
2107	5.91121e+02	2.10700e+03	2.57508e-03	5.92333e+02
2109	5.91771e+02	2.10900e+03	2.60360e-03	5.93000e+02
2111	5.92446e+02	2.11100e+03	2.62378e-03	5.93667e+02
2113	5.93099e+02	2.11300e+03	2.64490e-03	5.94333e+02
2115	5.93782e+02	2.11500e+03	2.64334e-03	5.95000e+02
2117	5.94444e+02	2.11700e+03	2.62393e-03	5.95667e+02
2119	5.95102e+02	2.11900e+03	2.60651e-03	5.96333e+02
2121	5.95768e+02	2.12100e+03	2.59169e-03	5.97000e+02
2123	5.96430e+02	2.12300e+03	2.58166e-03	5.97667e+02
2125	5.97096e+02	2.12500e+03	2.58185e-03	5.98333e+02
2127	5.97763e+02	2.12700e+03	2.57913e-03	5.99000e+02
2129	5.98430e+02	2.12900e+03	2.57445e-03	5.99667e+02
2131	5.99094e+02	2.13100e+03	2.57118e-03	6.00333e+02
2133	5.99760e+02	2.13300e+03	2.56721e-03	6.01000e+02
2135	6.00430e+02	2.13500e+03	2.56724e-03	6.01667e+02
2137	6.01094e+02	2.13700e+03	2.56735e-03	6.02333e+02
2139	6.01758e+02	2.13900e+03	2.56946e-03	6.03000e+02
2141	6.02420e+02	2.14100e+03	2.56938e-03	6.03667e+02
2143	6.03089e+02	2.14300e+03	2.56828e-03	6.04333e+02
2145	6.03746e+02	2.14500e+03	2.55265e-03	6.05000e+02
2147	6.04405e+02	2.14700e+03	2.52206e-03	6.05667e+02
2149	6.05077e+02	2.14900e+03	2.47565e-03	6.06333e+02
2151	6.05743e+02	2.15100e+03	2.44690e-03	6.07000e+02
2153	6.06412e+02	2.15300e+03	2.43860e-03	6.07667e+02
2155	6.07060e+02	2.15500e+03	2.43921e-03	6.08333e+02
2157	6.07738e+02	2.15700e+03	2.45191e-03	6.09000e+02
2159	6.08397e+02	2.15900e+03	2.45901e-03	6.09667e+02
2161	6.09064e+02	2.16100e+03	2.47782e-03	6.10333e+02
2163	6.09729e+02	2.16300e+03	2.51281e-03	6.11000e+02
2165	6.10386e+02	2.16500e+03	2.56858e-03	6.11667e+02
2167	6.11067e+02	2.16700e+03	2.61680e-03	6.12333e+02
2169	6.11728e+02	2.16900e+03	2.66441e-03	6.13000e+02
2171	6.12404e+02	2.17100e+03	2.70419e-03	6.13667e+02
2173	6.13053e+02	2.17300e+03	2.72211e-03	6.14333e+02
2175	6.13730e+02	2.17500e+03	2.72858e-03	6.15000e+02
2177	6.14390e+02	2.17700e+03	2.71211e-03	6.15667e+02
2179	6.15054e+02	2.17900e+03	2.69718e-03	6.16333e+02
2181	6.15723e+02	2.18100e+03	2.66980e-03	6.17000e+02
2183	6.16385e+02	2.18300e+03	2.63256e-03	6.17667e+02
2185	6.17067e+02	2.18500e+03	2.57907e-03	6.18333e+02
2187	6.17724e+02	2.18700e+03	2.52074e-03	6.19000e+02
2189	6.18383e+02	2.18900e+03	2.45698e-03	6.19667e+02
2191	6.19056e+02	2.19100e+03	2.41394e-03	6.20333e+02
2193	6.19717e+02	2.19300e+03	2.40560e-03	6.21000e+02
2195	6.20384e+02	2.19500e+03	2.41581e-03	6.21667e+02
2197	6.21059e+02	2.19700e+03	2.47315e-03	6.22333e+02
2199	6.21703e+02	2.19900e+03	2.52511e-03	6.23000e+02
2201	6.22377e+02	2.20100e+03	2.58096e-03	6.23667e+02
2203	6.23041e+02	2.20300e+03	2.61230e-03	6.24333e+02
2205	6.23711e+02	2.20500e+03	2.61902e-03	6.25000e+02
2207	6.24366e+02	2.20700e+03	2.63127e-03	6.25667e+02
2209	6.25047e+02	2.20900e+03	2.63397e-03	6.26333e+02
2211	6.25708e+02	2.21100e+03	2.63140e-03	6.27000e+02
2213	6.26374e+02	2.21300e+03	2.61692e-03	6.27667e+02
2215	6.27040e+02	2.21500e+03	2.60123e-03	6.28333e+02
2217	6.27707e+02	2.21700e+03	2.57467e-03	6.29000e+02
2219	6.28366e+02	2.21900e+03	2.56810e-03	6.29667e+02
2221	6.29041e+02	2.22100e+03	2.58546e-03	6.30333e+02
2223	6.29700e+02	2.22300e+03	2.61335e-03	6.31000e+02
2225	6.30368e+02	2.22500e+03	2.66223e-03	6.31667e+02
2227	6.31038e+02	2.22700e+03	2.69695e-03	6.32333e+02
2229	6.31700e+02	2.22900e+03	2.70863e-03	6.33000e+02
2231	6.32370e+02	2.23100e+03	2.70390e-03	6.33667e+02
2233	6.33037e+02	2.23300e+03	2.66762e-03	6.34333e+02
2235	6.33706e+02	2.23500e+03	2.63864e-03	6.35000e+02
2237	6.34367e+02	2.23700e+03	2.60665e-03	6.35667e+02
2239	6.35036e+02	2.23900e+03	2.58090e-03	6.36333e+02
2241	6.35696e+02	2.24100e+03	2.57768e-03	6.37000e+02
2243	6.36373e+02	2.24300e+03	2.58155e-03	6.37667e+02
2245	6.37038e+02	2.24500e+03	2.60234e-03	6.38333e+02
2247	6.37704e+02	2.24700e+03	2.60910e-03	6.39000e+02
2249	6.38361e+02	2.24900e+03	2.60537e-03	6.39667e+02
2251	6.39028e+02	2.25100e+03	2.59419e-03	6.40333e+02
2253	6.39696e+02	2.25300e+03	2.56597e-03	6.41000e+02
2255	6.40366e+02	2.25500e+03	2.53352e-03	6.41667e+02
2257	6.41026e+02	2.25700e+03	2.48847e-03	6.42333e+02
2259	6.41695e+02	2.25900e+03	2.44580e-03	6.43000e+02
2261	6.42363e+02	2.26100e+03	2.40512e-03	6.43667e+02
2263	6.43027e+02	2.26300e+03	2.37699e-03	6.44333e+02
2265	6.43693e+02	2.26500e+03	2.37416e-03	6.45000e+02
2267	6.44355e+02	2.26700e+03	2.37804e-03	6.45667e+02
2269	6.45020e+02	2.26900e+03	2.39197e-03	6.46333e+02
2271	6.45689e+02	2.27100e+03	2.39311e-03	6.47000e+02
2273	6.46360e+02	2.27300e+03	2.37856e-03	6.47667e+02
2275	6.47031e+02	2.27500e+03	2.37051e-03	6.48333e+02
2277	6.47689e+02	2.27700e+03	2.37063e-03	6.49000e+02
2279	6.48353e+02	2.27900e+03	2.38128e-03	6.49667e+02
2281	6.49013e+02	2.28100e+03	2.40476e-03	6.50333e+02
2283	6.49679e+02	2.28300e+03	2.41306e-03	6.51000e+02
2285	6.50348e+02	2.28500e+03	2.41711e-03	6.51667e+02
2287	6.51013e+02	2.28700e+03	2.42879e-03	6.52333e+02
2289	6.51681e+02	2.28900e+03	2.44170e-03	6.53000e+02
2291	6.52345e+02	2.29100e+03	2.44838e-03	6.53667e+02
2293	6.53007e+02	2.29300e+03	2.45276e-03	6.54333e+02
2295	6.53684e+02	2.29500e+03	2.45312e-03	6.55000e+02
2297	6.54344e+02	2.29700e+03	2.45117e-03	6.55667e+02
2299	6.54999e+02	2.29900e+03	2.45339e-03	6.56333e+02
2301	6.55679e+02	2.30100e+03	2.46994e-03	6.57000e+02
2303	6.56335e+02	2.30300e+03	2.47963e-03	6.57667e+02
2305	6.57009e+02	2.30500e+03	2.49428e-03	6.58333e+02
2307	6.57674e+02	2.30700e+03	2.50132e-03	6.59000e+02
2309	6.58344e+02	2.30900e+03	2.50180e-03	6.59667e+02
2311	6.58999e+02	2.31100e+03	2.51700e-03	6.60333e+02
2313	6.59675e+02	2.31300e+03	2.55091e-03	6.61000e+02
2315	6.60335e+02	2.31500e+03	2.58868e-03	6.61667e+02
2317	6.60987e+02	2.31700e+03	2.61353e-03	6.62333e+02
2319	6.61666e+02	2.31900e+03	2.61846e-03	6.63000e+02
2321	6.62328e+02	2.32100e+03	2.58675e-03	6.63667e+02
2323	6.62991e+02	2.32300e+03	2.56401e-03	6.64333e+02
2325	6.63656e+02	2.32500e+03	2.54255e-03	6.65000e+02
2327	6.64327e+02	2.32700e+03	2.52394e-03	6.65667e+02
2329	6.64988e+02	2.32900e+03	2.50409e-03	6.66333e+02
2331	6.65653e+02	2.33100e+03	2.47926e-03	6.67000e+02
2333	6.66323e+02	2.33300e+03	2.44585e-03	6.67667e+02
2335	6.66994e+02	2.33500e+03	2.40919e-03	6.68333e+02
2337	6.67657e+02	2.33700e+03	2.37376e-03	6.69000e+02
2339	6.68320e+02	2.33900e+03	2.35207e-03	6.69667e+02
2341	6.68986e+02	2.34100e+03	2.35007e-03	6.70333e+02
2343	6.69645e+02	2.34300e+03	2.34155e-03	6.71000e+02
2345	6.70314e+02	2.34500e+03	2.33679e-03	6.71667e+02
2347	6.70971e+02	2.34700e+03	2.33192e-03	6.72333e+02
2349	6.71634e+02	2.34900e+03	2.33257e-03	6.73000e+02
2351	6.72300e+02	2.35100e+03	2.34569e-03	6.73667e+02
2353	6.72968e+02	2.35300e+03	2.37508e-03	6.74333e+02
2355	6.73632e+02	2.35500e+03	2.38666e-03	6.75000e+02
2357	6.74298e+02	2.35700e+03	2.38381e-03	6.75667e+02
2359	6.74961e+02	2.35900e+03	2.38034e-03	6.76333e+02
2361	6.75629e+02	2.36100e+03	2.38096e-03	6.77000e+02
2363	6.76294e+02	2.36300e+03	2.39345e-03	6.77667e+02
2365	6.76958e+02	2.36500e+03	2.40995e-03	6.78333e+02
2367	6.77620e+02	2.36700e+03	2.41068e-03	6.79000e+02
2369	6.78285e+02	2.36900e+03	2.39785e-03	6.79667e+02
2371	6.78952e+02	2.37100e+03	2.39237e-03	6.80333e+02
2373	6.79625e+02	2.37300e+03	2.39900e-03	6.81000e+02
2375	6.80281e+02	2.37500e+03	2.40743e-03	6.81667e+02
2377	6.80951e+02	2.37700e+03	2.42195e-03	6.82333e+02
2379	6.81604e+02	2.37900e+03	2.42972e-03	6.83000e+02
2381	6.82281e+02	2.38100e+03	2.42986e-03	6.83667e+02
2383	6.82944e+02	2.38300e+03	2.42913e-03	6.84333e+02
2385	6.83615e+02	2.38500e+03	2.42143e-03	6.85000e+02
2387	6.84280e+02	2.38700e+03	2.40588e-03	6.85667e+02
2389	6.84951e+02	2.38900e+03	2.37660e-03	6.86333e+02
2391	6.85609e+02	2.39100e+03	2.35048e-03	6.87000e+02
2393	6.86273e+02	2.39300e+03	2.33007e-03	6.87667e+02
2395	6.86944e+02	2.39500e+03	2.31755e-03	6.88333e+02
2397	6.87606e+02	2.39700e+03	2.32625e-03	6.89000e+02
2399	6.88271e+02	2.39900e+03	2.33862e-03	6.89667e+02
2401	6.88944e+02	2.40100e+03	2.35576e-03	6.90333e+02
2403	6.89602e+02	2.40300e+03	2.36579e-03	6.91000e+02
2405	6.90055e+02	2.40500e+03	2.37399e-03	6.91667e+02
2407	6.90382e+02	2.40700e+03	2.38293e-03	6.92333e+02
2409	6.90880e+02	2.40900e+03	2.40502e-03	6.93000e+02
2411	6.91352e+02	2.41100e+03	2.42692e-03	6.93667e+02
2413	6.91797e+02	2.41300e+03	2.44397e-03	6.94333e+02
2415	6.92205e+02	2.41500e+03	2.43861e-03	6.95000e+02
2417	6.92600e+02	2.41700e+03	2.40814e-03	6.95667e+02
2419	6.92970e+02	2.41900e+03	2.37705e-03	6.96333e+02
2421	6.93321e+02	2.42100e+03	2.33891e-03	6.97000e+02
2423	6.93645e+02	2.42300e+03	2.31034e-03	6.97667e+02
2425	6.93949e+02	2.42500e+03	2.29886e-03	6.98333e+02
2427	6.94237e+02	2.42700e+03	2.29709e-03	6.99000e+02
2429	6.94507e+02	2.42900e+03	2.31644e-03	6.99667e+02
2430	6.94636e+02	2.43000e+03	2.32519e-03	7.00000e+02