File: Experiments/TUBS/tga_nonisotherm/tga_dynamic_n2_dyn10_piece_2mg_r2.txt
index	ts	t	weight	tr
[#]	[°C]	[s]	[mg]	[°C]
843	1.30629e+02	8.43000e+02	2.01327e+00	1.30500e+02
847	1.31309e+02	8.47000e+02	2.01327e+00	1.31167e+02
851	1.31979e+02	8.51000e+02	2.01317e+00	1.31833e+02
855	1.32663e+02	8.55000e+02	2.01317e+00	1.32500e+02
859	1.33320e+02	8.59000e+02	2.01324e+00	1.33167e+02
863	1.33996e+02	8.63000e+02	2.01318e+00	1.33833e+02
867	1.34680e+02	8.67000e+02	2.01301e+00	1.34500e+02
871	1.35350e+02	8.71000e+02	2.01292e+00	1.35167e+02
875	1.36026e+02	8.75000e+02	2.01289e+00	1.35833e+02
879	1.36708e+02	8.79000e+02	2.01280e+00	1.36500e+02
883	1.37367e+02	8.83000e+02	2.01273e+00	1.37167e+02
887	1.38035e+02	8.87000e+02	2.01276e+00	1.37833e+02
891	1.38704e+02	8.91000e+02	2.01288e+00	1.38500e+02
895	1.39390e+02	8.95000e+02	2.01296e+00	1.39167e+02
899	1.40059e+02	8.99000e+02	2.01295e+00	1.39833e+02
903	1.40748e+02	9.03000e+02	2.01290e+00	1.40500e+02
907	1.41417e+02	9.07000e+02	2.01284e+00	1.41167e+02
911	1.42096e+02	9.11000e+02	2.01278e+00	1.41833e+02
915	1.42776e+02	9.15000e+02	2.01280e+00	1.42500e+02
919	1.43455e+02	9.19000e+02	2.01279e+00	1.43167e+02
923	1.44143e+02	9.23000e+02	2.01256e+00	1.43833e+02
927	1.44808e+02	9.27000e+02	2.01244e+00	1.44500e+02
931	1.45490e+02	9.31000e+02	2.01282e+00	1.45167e+02
935	1.46152e+02	9.35000e+02	2.01317e+00	1.45833e+02
939	1.46821e+02	9.39000e+02	2.01307e+00	1.46500e+02
943	1.47500e+02	9.43000e+02	2.01284e+00	1.47167e+02
947	1.48175e+02	9.47000e+02	2.01272e+00	1.47833e+02
951	1.48840e+02	9.51000e+02	2.01263e+00	1.48500e+02
955	1.49519e+02	9.55000e+02	2.01255e+00	1.49167e+02
959	1.50202e+02	9.59000e+02	2.01248e+00	1.49833e+02
963	1.50883e+02	9.63000e+02	2.01232e+00	1.50500e+02
967	1.51565e+02	9.67000e+02	2.01219e+00	1.51167e+02
971	1.52235e+02	9.71000e+02	2.01220e+00	1.51833e+02
975	1.52918e+02	9.75000e+02	2.01226e+00	1.52500e+02
979	1.53603e+02	9.79000e+02	2.01224e+00	1.53167e+02
983	1.54294e+02	9.83000e+02	2.01212e+00	1.53833e+02
987	1.54976e+02	9.87000e+02	2.01201e+00	1.54500e+02
991	1.55649e+02	9.91000e+02	2.01201e+00	1.55167e+02
995	1.56331e+02	9.95000e+02	2.01205e+00	1.55833e+02
999	1.56997e+02	9.99000e+02	2.01202e+00	1.56500e+02
1003	1.57675e+02	1.00300e+03	2.01193e+00	1.57167e+02
1007	1.58353e+02	1.00700e+03	2.01195e+00	1.57833e+02
1011	1.59027e+02	1.01100e+03	2.01194e+00	1.58500e+02
1015	1.59701e+02	1.01500e+03	2.01175e+00	1.59167e+02
1019	1.60382e+02	1.01900e+03	2.01164e+00	1.59833e+02
1023	1.61055e+02	1.02300e+03	2.01163e+00	1.60500e+02
1027	1.61735e+02	1.02700e+03	2.01163e+00	1.61167e+02
1031	1.62420e+02	1.03100e+03	2.01163e+00	1.61833e+02
1035	1.63109e+02	1.03500e+03	2.01157e+00	1.62500e+02
1039	1.63785e+02	1.03900e+03	2.01148e+00	1.63167e+02
1043	1.64462e+02	1.04300e+03	2.01152e+00	1.63833e+02
1047	1.65137e+02	1.04700e+03	2.01160e+00	1.64500e+02
1051	1.65804e+02	1.05100e+03	2.01157e+00	1.65167e+02
1055	1.66477e+02	1.05500e+03	2.01150e+00	1.65833e+02
1059	1.67158e+02	1.05900e+03	2.01143e+00	1.66500e+02
1063	1.67824e+02	1.06300e+03	2.01136e+00	1.67167e+02
1067	1.68510e+02	1.06700e+03	2.01133e+00	1.67833e+02
1071	1.69182e+02	1.07100e+03	2.01130e+00	1.68500e+02
1075	1.69858e+02	1.07500e+03	2.01121e+00	1.69167e+02
1079	1.70519e+02	1.07900e+03	2.01104e+00	1.69833e+02
1083	1.71198e+02	1.08300e+03	2.01085e+00	1.70500e+02
1087	1.71887e+02	1.08700e+03	2.01066e+00	1.71167e+02
1091	1.72558e+02	1.09100e+03	2.01046e+00	1.71833e+02
1095	1.73245e+02	1.09500e+03	2.01019e+00	1.72500e+02
1099	1.73904e+02	1.09900e+03	2.00998e+00	1.73167e+02
1103	1.74577e+02	1.10300e+03	2.00995e+00	1.73833e+02
1107	1.75254e+02	1.10700e+03	2.00992e+00	1.74500e+02
1111	1.75936e+02	1.11100e+03	2.00973e+00	1.75167e+02
1115	1.76621e+02	1.11500e+03	2.00943e+00	1.75833e+02
1119	1.77289e+02	1.11900e+03	2.00920e+00	1.76500e+02
1123	1.77977e+02	1.12300e+03	2.00903e+00	1.77167e+02
1127	1.78648e+02	1.12700e+03	2.00884e+00	1.77833e+02
1131	1.79325e+02	1.13100e+03	2.00861e+00	1.78500e+02
1135	1.79986e+02	1.13500e+03	2.00836e+00	1.79167e+02
1139	1.80666e+02	1.13900e+03	2.00807e+00	1.79833e+02
1143	1.81343e+02	1.14300e+03	2.00772e+00	1.80500e+02
1147	1.82019e+02	1.14700e+03	2.00729e+00	1.81167e+02
1151	1.82689e+02	1.15100e+03	2.00682e+00	1.81833e+02
1155	1.83361e+02	1.15500e+03	2.00633e+00	1.82500e+02
1159	1.84033e+02	1.15900e+03	2.00586e+00	1.83167e+02
1163	1.84714e+02	1.16300e+03	2.00546e+00	1.83833e+02
1167	1.85403e+02	1.16700e+03	2.00508e+00	1.84500e+02
1171	1.86085e+02	1.17100e+03	2.00464e+00	1.85167e+02
1175	1.86761e+02	1.17500e+03	2.00416e+00	1.85833e+02
1179	1.87438e+02	1.17900e+03	2.00373e+00	1.86500e+02
1183	1.88116e+02	1.18300e+03	2.00330e+00	1.87167e+02
1187	1.88796e+02	1.18700e+03	2.00282e+00	1.87833e+02
1191	1.89495e+02	1.19100e+03	2.00233e+00	1.88500e+02
1195	1.90179e+02	1.19500e+03	2.00182e+00	1.89167e+02
1199	1.90862e+02	1.19900e+03	2.00128e+00	1.89833e+02
1203	1.91548e+02	1.20300e+03	2.00079e+00	1.90500e+02
1207	1.92234e+02	1.20700e+03	2.00038e+00	1.91167e+02
1211	1.92919e+02	1.21100e+03	1.99988e+00	1.91833e+02
1215	1.93616e+02	1.21500e+03	1.99919e+00	1.92500e+02
1219	1.94281e+02	1.21900e+03	1.99846e+00	1.93167e+02
1223	1.94971e+02	1.22300e+03	1.99786e+00	1.93833e+02
1227	1.95631e+02	1.22700e+03	1.99727e+00	1.94500e+02
1231	1.96301e+02	1.23100e+03	1.99653e+00	1.95167e+02
1235	1.96984e+02	1.23500e+03	1.99569e+00	1.95833e+02
1239	1.97671e+02	1.23900e+03	1.99513e+00	1.96500e+02
1243	1.98344e+02	1.24300e+03	1.99479e+00	1.97167e+02
1247	1.99030e+02	1.24700e+03	1.99421e+00	1.97833e+02
1251	1.99717e+02	1.25100e+03	1.99349e+00	1.98500e+02
1255	2.00379e+02	1.25500e+03	1.99278e+00	1.99167e+02
1259	2.01072e+02	1.25900e+03	1.99203e+00	1.99833e+02
1263	2.01742e+02	1.26300e+03	1.99127e+00	2.00500e+02
1267	2.02438e+02	1.26700e+03	1.99060e+00	2.01167e+02
1271	2.03139e+02	1.27100e+03	1.99005e+00	2.01833e+02
1275	2.03814e+02	1.27500e+03	1.98951e+00	2.02500e+02
1279	2.04491e+02	1.27900e+03	1.98889e+00	2.03167e+02
1283	2.05181e+02	1.28300e+03	1.98823e+00	2.03833e+02
1287	2.05866e+02	1.28700e+03	1.98763e+00	2.04500e+02
1291	2.06538e+02	1.29100e+03	1.98701e+00	2.05167e+02
1295	2.07228e+02	1.29500e+03	1.98632e+00	2.05833e+02
1299	2.07915e+02	1.29900e+03	1.98570e+00	2.06500e+02
1303	2.08594e+02	1.30300e+03	1.98517e+00	2.07167e+02
1307	2.09261e+02	1.30700e+03	1.98460e+00	2.07833e+02
1311	2.09935e+02	1.31100e+03	1.98387e+00	2.08500e+02
1315	2.10645e+02	1.31500e+03	1.98305e+00	2.09167e+02
1319	2.11331e+02	1.31900e+03	1.98256e+00	2.09833e+02
1323	2.12005e+02	1.32300e+03	1.98239e+00	2.10500e+02
1327	2.12715e+02	1.32700e+03	1.98191e+00	2.11167e+02
1331	2.13384e+02	1.33100e+03	1.98106e+00	2.11833e+02
1335	2.14062e+02	1.33500e+03	1.98030e+00	2.12500e+02
1339	2.14750e+02	1.33900e+03	1.97965e+00	2.13167e+02
1343	2.15408e+02	1.34300e+03	1.97892e+00	2.13833e+02
1347	2.16100e+02	1.34700e+03	1.97824e+00	2.14500e+02
1351	2.16768e+02	1.35100e+03	1.97766e+00	2.15167e+02
1355	2.17434e+02	1.35500e+03	1.97706e+00	2.15833e+02
1359	2.18120e+02	1.35900e+03	1.97633e+00	2.16500e+02
1363	2.18795e+02	1.36300e+03	1.97558e+00	2.17167e+02
1367	2.19466e+02	1.36700e+03	1.97496e+00	2.17833e+02
1371	2.20163e+02	1.37100e+03	1.97437e+00	2.18500e+02
1375	2.20846e+02	1.37500e+03	1.97375e+00	2.19167e+02
1379	2.21528e+02	1.37900e+03	1.97307e+00	2.19833e+02
1383	2.22207e+02	1.38300e+03	1.97238e+00	2.20500e+02
1387	2.22876e+02	1.38700e+03	1.97179e+00	2.21167e+02
1391	2.23556e+02	1.39100e+03	1.97120e+00	2.21833e+02
1395	2.24248e+02	1.39500e+03	1.97044e+00	2.22500e+02
1399	2.24922e+02	1.39900e+03	1.96962e+00	2.23167e+02
1403	2.25602e+02	1.40300e+03	1.96889e+00	2.23833e+02
1407	2.26271e+02	1.40700e+03	1.96823e+00	2.24500e+02
1411	2.26957e+02	1.41100e+03	1.96752e+00	2.25167e+02
1415	2.27630e+02	1.41500e+03	1.96687e+00	2.25833e+02
1419	2.28308e+02	1.41900e+03	1.96623e+00	2.26500e+02
1423	2.28987e+02	1.42300e+03	1.96549e+00	2.27167e+02
1427	2.29663e+02	1.42700e+03	1.96478e+00	2.27833e+02
1431	2.30332e+02	1.43100e+03	1.96408e+00	2.28500e+02
1435	2.31012e+02	1.43500e+03	1.96338e+00	2.29167e+02
1439	2.31692e+02	1.43900e+03	1.96269e+00	2.29833e+02
1443	2.32365e+02	1.44300e+03	1.96207e+00	2.30500e+02
1447	2.33056e+02	1.44700e+03	1.96138e+00	2.31167e+02
1451	2.33717e+02	1.45100e+03	1.96063e+00	2.31833e+02
1455	2.34398e+02	1.45500e+03	1.95996e+00	2.32500e+02
1459	2.35076e+02	1.45900e+03	1.95930e+00	2.33167e+02
1463	2.35758e+02	1.46300e+03	1.95863e+00	2.33833e+02
1467	2.36440e+02	1.46700e+03	1.95796e+00	2.34500e+02
1471	2.37107e+02	1.47100e+03	1.95730e+00	2.35167e+02
1475	2.37782e+02	1.47500e+03	1.95666e+00	2.35833e+02
1479	2.38462e+02	1.47900e+03	1.95603e+00	2.36500e+02
1483	2.39132e+02	1.48300e+03	1.95541e+00	2.37167e+02
1487	2.39811e+02	1.48700e+03	1.95471e+00	2.37833e+02
1491	2.40467e+02	1.49100e+03	1.95399e+00	2.38500e+02
1495	2.41151e+02	1.49500e+03	1.95337e+00	2.39167e+02
1499	2.41825e+02	1.49900e+03	1.95279e+00	2.39833e+02
1503	2.42501e+02	1.50300e+03	1.95214e+00	2.40500e+02
1507	2.43170e+02	1.50700e+03	1.95138e+00	2.41167e+02
1511	2.43843e+02	1.51100e+03	1.95060e+00	2.41833e+02
1515	2.44532e+02	1.51500e+03	1.94991e+00	2.42500e+02
1519	2.45205e+02	1.51900e+03	1.94929e+00	2.43167e+02
1523	2.45892e+02	1.52300e+03	1.94876e+00	2.43833e+02
1527	2.46577e+02	1.52700e+03	1.94835e+00	2.44500e+02
1531	2.47251e+02	1.53100e+03	1.94772e+00	2.45167e+02
1535	2.47931e+02	1.53500e+03	1.94694e+00	2.45833e+02
1539	2.48605e+02	1.53900e+03	1.94625e+00	2.46500e+02
1543	2.49279e+02	1.54300e+03	1.94555e+00	2.47167e+02
1547	2.49964e+02	1.54700e+03	1.94489e+00	2.47833e+02
1551	2.50638e+02	1.55100e+03	1.94429e+00	2.48500e+02
1555	2.51299e+02	1.55500e+03	1.94372e+00	2.49167e+02
1559	2.51976e+02	1.55900e+03	1.94316e+00	2.49833e+02
1563	2.52674e+02	1.56300e+03	1.94259e+00	2.50500e+02
1567	2.53345e+02	1.56700e+03	1.94202e+00	2.51167e+02
1571	2.54034e+02	1.57100e+03	1.94142e+00	2.51833e+02
1575	2.54728e+02	1.57500e+03	1.94079e+00	2.52500e+02
1579	2.55404e+02	1.57900e+03	1.94018e+00	2.53167e+02
1583	2.56088e+02	1.58300e+03	1.93957e+00	2.53833e+02
1587	2.56763e+02	1.58700e+03	1.93894e+00	2.54500e+02
1591	2.57445e+02	1.59100e+03	1.93838e+00	2.55167e+02
1595	2.58152e+02	1.59500e+03	1.93797e+00	2.55833e+02
1599	2.58831e+02	1.59900e+03	1.93748e+00	2.56500e+02
1603	2.59522e+02	1.60300e+03	1.93681e+00	2.57167e+02
1607	2.60209e+02	1.60700e+03	1.93616e+00	2.57833e+02
1611	2.60874e+02	1.61100e+03	1.93562e+00	2.58500e+02
1615	2.61540e+02	1.61500e+03	1.93509e+00	2.59167e+02
1619	2.62194e+02	1.61900e+03	1.93454e+00	2.59833e+02
1623	2.62882e+02	1.62300e+03	1.93397e+00	2.60500e+02
1627	2.63562e+02	1.62700e+03	1.93335e+00	2.61167e+02
1631	2.64253e+02	1.63100e+03	1.93276e+00	2.61833e+02
1635	2.64921e+02	1.63500e+03	1.93222e+00	2.62500e+02
1639	2.65592e+02	1.63900e+03	1.93174e+00	2.63167e+02
1643	2.66268e+02	1.64300e+03	1.93127e+00	2.63833e+02
1647	2.66943e+02	1.64700e+03	1.93069e+00	2.64500e+02
1651	2.67622e+02	1.65100e+03	1.93005e+00	2.65167e+02
1655	2.68281e+02	1.65500e+03	1.92949e+00	2.65833e+02
1659	2.68970e+02	1.65900e+03	1.92894e+00	2.66500e+02
1663	2.69650e+02	1.66300e+03	1.92837e+00	2.67167e+02
1667	2.70333e+02	1.66700e+03	1.92774e+00	2.67833e+02
1671	2.71007e+02	1.67100e+03	1.92708e+00	2.68500e+02
1675	2.71687e+02	1.67500e+03	1.92638e+00	2.69167e+02
1679	2.72359e+02	1.67900e+03	1.92568e+00	2.69833e+02
1683	2.73053e+02	1.68300e+03	1.92508e+00	2.70500e+02
1687	2.73716e+02	1.68700e+03	1.92443e+00	2.71167e+02
1691	2.74386e+02	1.69100e+03	1.92374e+00	2.71833e+02
1695	2.75063e+02	1.69500e+03	1.92309e+00	2.72500e+02
1699	2.75730e+02	1.69900e+03	1.92241e+00	2.73167e+02
1703	2.76413e+02	1.70300e+03	1.92160e+00	2.73833e+02
1707	2.77088e+02	1.70700e+03	1.92065e+00	2.74500e+02
1711	2.77748e+02	1.71100e+03	1.91977e+00	2.75167e+02
1715	2.78438e+02	1.71500e+03	1.91894e+00	2.75833e+02
1719	2.79103e+02	1.71900e+03	1.91808e+00	2.76500e+02
1723	2.79780e+02	1.72300e+03	1.91727e+00	2.77167e+02
1727	2.80451e+02	1.72700e+03	1.91654e+00	2.77833e+02
1731	2.81121e+02	1.73100e+03	1.91579e+00	2.78500e+02
1735	2.81797e+02	1.73500e+03	1.91491e+00	2.79167e+02
1739	2.82473e+02	1.73900e+03	1.91391e+00	2.79833e+02
1743	2.83142e+02	1.74300e+03	1.91291e+00	2.80500e+02
1747	2.83814e+02	1.74700e+03	1.91194e+00	2.81167e+02
1751	2.84485e+02	1.75100e+03	1.91096e+00	2.81833e+02
1755	2.85167e+02	1.75500e+03	1.90995e+00	2.82500e+02
1759	2.85825e+02	1.75900e+03	1.90895e+00	2.83167e+02
1763	2.86493e+02	1.76300e+03	1.90793e+00	2.83833e+02
1767	2.87173e+02	1.76700e+03	1.90678e+00	2.84500e+02
1771	2.87834e+02	1.77100e+03	1.90556e+00	2.85167e+02
1775	2.88513e+02	1.77500e+03	1.90435e+00	2.85833e+02
1779	2.89177e+02	1.77900e+03	1.90309e+00	2.86500e+02
1783	2.89859e+02	1.78300e+03	1.90170e+00	2.87167e+02
1787	2.90526e+02	1.78700e+03	1.90025e+00	2.87833e+02
1791	2.91194e+02	1.79100e+03	1.89886e+00	2.88500e+02
1795	2.91865e+02	1.79500e+03	1.89738e+00	2.89167e+02
1799	2.92544e+02	1.79900e+03	1.89575e+00	2.89833e+02
1803	2.93208e+02	1.80300e+03	1.89417e+00	2.90500e+02
1807	2.93895e+02	1.80700e+03	1.89261e+00	2.91167e+02
1811	2.94559e+02	1.81100e+03	1.89095e+00	2.91833e+02
1815	2.95227e+02	1.81500e+03	1.88920e+00	2.92500e+02
1819	2.95889e+02	1.81900e+03	1.88754e+00	2.93167e+02
1823	2.96568e+02	1.82300e+03	1.88587e+00	2.93833e+02
1827	2.97232e+02	1.82700e+03	1.88398e+00	2.94500e+02
1831	2.97895e+02	1.83100e+03	1.88201e+00	2.95167e+02
1835	2.98571e+02	1.83500e+03	1.88004e+00	2.95833e+02
1839	2.99236e+02	1.83900e+03	1.87802e+00	2.96500e+02
1843	2.99915e+02	1.84300e+03	1.87592e+00	2.97167e+02
1847	3.00592e+02	1.84700e+03	1.87373e+00	2.97833e+02
1851	3.01256e+02	1.85100e+03	1.87135e+00	2.98500e+02
1855	3.01939e+02	1.85500e+03	1.86874e+00	2.99167e+02
1859	3.02598e+02	1.85900e+03	1.86600e+00	2.99833e+02
1863	3.03260e+02	1.86300e+03	1.86328e+00	3.00500e+02
1867	3.03905e+02	1.86700e+03	1.86055e+00	3.01167e+02
1871	3.04557e+02	1.87100e+03	1.85780e+00	3.01833e+02
1875	3.05200e+02	1.87500e+03	1.85502e+00	3.02500e+02
1879	3.05820e+02	1.87900e+03	1.85232e+00	3.03167e+02
1883	3.06452e+02	1.88300e+03	1.84969e+00	3.03833e+02
1887	3.07076e+02	1.88700e+03	1.84713e+00	3.04500e+02
1891	3.07737e+02	1.89100e+03	1.84465e+00	3.05167e+02
1895	3.08384e+02	1.89500e+03	1.84217e+00	3.05833e+02
1899	3.09051e+02	1.89900e+03	1.83975e+00	3.06500e+02
1903	3.09706e+02	1.90300e+03	1.83754e+00	3.07167e+02
1907	3.10368e+02	1.90700e+03	1.83540e+00	3.07833e+02
1911	3.11034e+02	1.91100e+03	1.83298e+00	3.08500e+02
1915	3.11695e+02	1.91500e+03	1.83052e+00	3.09167e+02
1919	3.12338e+02	1.91900e+03	1.82842e+00	3.09833e+02
1923	3.13011e+02	1.92300e+03	1.82636e+00	3.10500e+02
1927	3.13684e+02	1.92700e+03	1.82409e+00	3.11167e+02
1931	3.14338e+02	1.93100e+03	1.82175e+00	3.11833e+02
1935	3.15005e+02	1.93500e+03	1.81953e+00	3.12500e+02
1939	3.15670e+02	1.93900e+03	1.81740e+00	3.13167e+02
1943	3.16338e+02	1.94300e+03	1.81506e+00	3.13833e+02
1947	3.16994e+02	1.94700e+03	1.81253e+00	3.14500e+02
1951	3.17659e+02	1.95100e+03	1.81014e+00	3.15167e+02
1955	3.18331e+02	1.95500e+03	1.80783e+00	3.15833e+02
1959	3.19003e+02	1.95900e+03	1.80534e+00	3.16500e+02
1963	3.19660e+02	1.96300e+03	1.80277e+00	3.17167e+02
1967	3.20316e+02	1.96700e+03	1.80018e+00	3.17833e+02
1971	3.21000e+02	1.97100e+03	1.79753e+00	3.18500e+02
1975	3.21656e+02	1.97500e+03	1.79485e+00	3.19167e+02
1979	3.22316e+02	1.97900e+03	1.79208e+00	3.19833e+02
1983	3.22981e+02	1.98300e+03	1.78905e+00	3.20500e+02
1987	3.23644e+02	1.98700e+03	1.78588e+00	3.21167e+02
1991	3.24300e+02	1.99100e+03	1.78293e+00	3.21833e+02
1995	3.24976e+02	1.99500e+03	1.78000e+00	3.22500e+02
1999	3.25634e+02	1.99900e+03	1.77676e+00	3.23167e+02
2003	3.26304e+02	2.00300e+03	1.77343e+00	3.23833e+02
2007	3.26966e+02	2.00700e+03	1.77011e+00	3.24500e+02
2011	3.27623e+02	2.01100e+03	1.76659e+00	3.25167e+02
2015	3.28287e+02	2.01500e+03	1.76287e+00	3.25833e+02
2019	3.28950e+02	2.01900e+03	1.75909e+00	3.26500e+02
2023	3.29612e+02	2.02300e+03	1.75512e+00	3.27167e+02
2027	3.30281e+02	2.02700e+03	1.75091e+00	3.27833e+02
2031	3.30942e+02	2.03100e+03	1.74665e+00	3.28500e+02
2035	3.31596e+02	2.03500e+03	1.74224e+00	3.29167e+02
2039	3.32269e+02	2.03900e+03	1.73765e+00	3.29833e+02
2043	3.32927e+02	2.04300e+03	1.73314e+00	3.30500e+02
2047	3.33588e+02	2.04700e+03	1.72853e+00	3.31167e+02
2051	3.34259e+02	2.05100e+03	1.72326e+00	3.31833e+02
2055	3.34909e+02	2.05500e+03	1.71740e+00	3.32500e+02
2059	3.35565e+02	2.05900e+03	1.71162e+00	3.33167e+02
2063	3.36229e+02	2.06300e+03	1.70627e+00	3.33833e+02
2067	3.36884e+02	2.06700e+03	1.70073e+00	3.34500e+02
2071	3.37551e+02	2.07100e+03	1.69446e+00	3.35167e+02
2075	3.38209e+02	2.07500e+03	1.68761e+00	3.35833e+02
2079	3.38877e+02	2.07900e+03	1.68051e+00	3.36500e+02
2083	3.39528e+02	2.08300e+03	1.67341e+00	3.37167e+02
2087	3.40195e+02	2.08700e+03	1.66615e+00	3.37833e+02
2091	3.40854e+02	2.09100e+03	1.65852e+00	3.38500e+02
2095	3.41504e+02	2.09500e+03	1.65059e+00	3.39167e+02
2099	3.42176e+02	2.09900e+03	1.64234e+00	3.39833e+02
2103	3.42841e+02	2.10300e+03	1.63369e+00	3.40500e+02
2107	3.43493e+02	2.10700e+03	1.62462e+00	3.41167e+02
2111	3.44154e+02	2.11100e+03	1.61528e+00	3.41833e+02
2115	3.44817e+02	2.11500e+03	1.60561e+00	3.42500e+02
2119	3.45474e+02	2.11900e+03	1.59544e+00	3.43167e+02
2123	3.46137e+02	2.12300e+03	1.58485e+00	3.43833e+02
2127	3.46798e+02	2.12700e+03	1.57379e+00	3.44500e+02
2131	3.47450e+02	2.13100e+03	1.56238e+00	3.45167e+02
2135	3.48103e+02	2.13500e+03	1.55091e+00	3.45833e+02
2139	3.48761e+02	2.13900e+03	1.53920e+00	3.46500e+02
2143	3.49414e+02	2.14300e+03	1.52676e+00	3.47167e+02
2147	3.50080e+02	2.14700e+03	1.51347e+00	3.47833e+02
2151	3.50743e+02	2.15100e+03	1.49980e+00	3.48500e+02
2155	3.51032e+02	2.15500e+03	1.48591e+00	3.49167e+02
2159	3.51670e+02	2.15900e+03	1.47150e+00	3.49833e+02
2163	3.52319e+02	2.16300e+03	1.45654e+00	3.50500e+02
2167	3.52975e+02	2.16700e+03	1.44114e+00	3.51167e+02
2171	3.53634e+02	2.17100e+03	1.42529e+00	3.51833e+02
2175	3.54267e+02	2.17500e+03	1.40871e+00	3.52500e+02
2179	3.54931e+02	2.17900e+03	1.39123e+00	3.53167e+02
2183	3.55586e+02	2.18300e+03	1.37321e+00	3.53833e+02
2187	3.56260e+02	2.18700e+03	1.35499e+00	3.54500e+02
2191	3.56916e+02	2.19100e+03	1.33662e+00	3.55167e+02
2195	3.57563e+02	2.19500e+03	1.31792e+00	3.55833e+02
2199	3.58229e+02	2.19900e+03	1.29875e+00	3.56500e+02
2203	3.58893e+02	2.20300e+03	1.27903e+00	3.57167e+02
2207	3.59548e+02	2.20700e+03	1.25866e+00	3.57833e+02
2211	3.60207e+02	2.21100e+03	1.23771e+00	3.58500e+02
2215	3.60863e+02	2.21500e+03	1.21632e+00	3.59167e+02
2219	3.61535e+02	2.21900e+03	1.19448e+00	3.59833e+02
2223	3.62193e+02	2.22300e+03	1.17228e+00	3.60500e+02
2227	3.62833e+02	2.22700e+03	1.15003e+00	3.61167e+02
2231	3.63512e+02	2.23100e+03	1.12781e+00	3.61833e+02
2235	3.64162e+02	2.23500e+03	1.10546e+00	3.62500e+02
2239	3.64831e+02	2.23900e+03	1.08285e+00	3.63167e+02
2243	3.65502e+02	2.24300e+03	1.06005e+00	3.63833e+02
2247	3.66162e+02	2.24700e+03	1.03678e+00	3.64500e+02
2251	3.66816e+02	2.25100e+03	1.01255e+00	3.65167e+02
2255	3.67482e+02	2.25500e+03	9.87705e-01	3.65833e+02
2259	3.68125e+02	2.25900e+03	9.63129e-01	3.66500e+02
2263	3.68812e+02	2.26300e+03	9.38886e-01	3.67167e+02
2267	3.69453e+02	2.26700e+03	9.14572e-01	3.67833e+02
2271	3.70114e+02	2.27100e+03	8.90431e-01	3.68500e+02
2275	3.70776e+02	2.27500e+03	8.66657e-01	3.69167e+02
2279	3.71438e+02	2.27900e+03	8.42808e-01	3.69833e+02
2283	3.72092e+02	2.28300e+03	8.18568e-01	3.70500e+02
2287	3.72756e+02	2.28700e+03	7.94401e-01	3.71167e+02
2291	3.73423e+02	2.29100e+03	7.70934e-01	3.71833e+02
2295	3.74117e+02	2.29500e+03	7.47866e-01	3.72500e+02
2299	3.74821e+02	2.29900e+03	7.24483e-01	3.73167e+02
2303	3.75483e+02	2.30300e+03	7.00619e-01	3.73833e+02
2307	3.76135e+02	2.30700e+03	6.76366e-01	3.74500e+02
2311	3.76755e+02	2.31100e+03	6.51914e-01	3.75167e+02
2315	3.77411e+02	2.31500e+03	6.27846e-01	3.75833e+02
2319	3.78059e+02	2.31900e+03	6.04769e-01	3.76500e+02
2323	3.78709e+02	2.32300e+03	5.82518e-01	3.77167e+02
2327	3.79364e+02	2.32700e+03	5.60179e-01	3.77833e+02
2331	3.80028e+02	2.33100e+03	5.37288e-01	3.78500e+02
2335	3.80688e+02	2.33500e+03	5.14312e-01	3.79167e+02
2339	3.81352e+02	2.33900e+03	4.91595e-01	3.79833e+02
2343	3.82006e+02	2.34300e+03	4.69326e-01	3.80500e+02
2347	3.82678e+02	2.34700e+03	4.47726e-01	3.81167e+02
2351	3.83340e+02	2.35100e+03	4.26735e-01	3.81833e+02
2355	3.84025e+02	2.35500e+03	4.06237e-01	3.82500e+02
2359	3.84687e+02	2.35900e+03	3.85936e-01	3.83167e+02
2363	3.85353e+02	2.36300e+03	3.65968e-01	3.83833e+02
2367	3.86032e+02	2.36700e+03	3.46646e-01	3.84500e+02
2371	3.86710e+02	2.37100e+03	3.28166e-01	3.85167e+02
2375	3.87419e+02	2.37500e+03	3.10820e-01	3.85833e+02
2379	3.88144e+02	2.37900e+03	2.94283e-01	3.86500e+02
2383	3.88886e+02	2.38300e+03	2.78161e-01	3.87167e+02
2387	3.89536e+02	2.38700e+03	2.62764e-01	3.87833e+02
2391	3.90168e+02	2.39100e+03	2.48327e-01	3.88500e+02
2395	3.90802e+02	2.39500e+03	2.34653e-01	3.89167e+02
2399	3.91461e+02	2.39900e+03	2.21726e-01	3.89833e+02
2403	3.92122e+02	2.40300e+03	2.09547e-01	3.90500e+02
2407	3.92774e+02	2.40700e+03	1.97887e-01	3.91167e+02
2411	3.93421e+02	2.41100e+03	1.86813e-01	3.91833e+02
2415	3.94067e+02	2.41500e+03	1.76490e-01	3.92500e+02
2419	3.94740e+02	2.41900e+03	1.66789e-01	3.93167e+02
2423	3.95391e+02	2.42300e+03	1.57706e-01	3.93833e+02
2427	3.96055e+02	2.42700e+03	1.49237e-01	3.94500e+02
2431	3.96716e+02	2.43100e+03	1.41332e-01	3.95167e+02
2435	3.97377e+02	2.43500e+03	1.33932e-01	3.95833e+02
2439	3.98023e+02	2.43900e+03	1.26933e-01	3.96500e+02
2443	3.98677e+02	2.44300e+03	1.20325e-01	3.97167e+02
2447	3.99335e+02	2.44700e+03	1.14129e-01	3.97833e+02
2451	3.99994e+02	2.45100e+03	1.08374e-01	3.98500e+02
2455	4.00662e+02	2.45500e+03	1.03070e-01	3.99167e+02
2459	4.01326e+02	2.45900e+03	9.81519e-02	3.99833e+02
2463	4.01989e+02	2.46300e+03	9.34939e-02	4.00500e+02
2467	4.02653e+02	2.46700e+03	8.89419e-02	4.01167e+02
2471	4.03314e+02	2.47100e+03	8.46327e-02	4.01833e+02
2475	4.03974e+02	2.47500e+03	8.08555e-02	4.02500e+02
2479	4.04629e+02	2.47900e+03	7.74110e-02	4.03167e+02
2483	4.05287e+02	2.48300e+03	7.40763e-02	4.03833e+02
2487	4.05931e+02	2.48700e+03	7.08505e-02	4.04500e+02
2491	4.06592e+02	2.49100e+03	6.77983e-02	4.05167e+02
2495	4.07239e+02	2.49500e+03	6.50025e-02	4.05833e+02
2499	4.07903e+02	2.49900e+03	6.24068e-02	4.06500e+02
2503	4.08566e+02	2.50300e+03	5.99834e-02	4.07167e+02
2507	4.09241e+02	2.50700e+03	5.76962e-02	4.07833e+02
2511	4.09887e+02	2.51100e+03	5.54658e-02	4.08500e+02
2515	4.10555e+02	2.51500e+03	5.33067e-02	4.09167e+02
2519	4.11221e+02	2.51900e+03	5.12777e-02	4.09833e+02
2523	4.11871e+02	2.52300e+03	4.93811e-02	4.10500e+02
2527	4.12520e+02	2.52700e+03	4.76223e-02	4.11167e+02
2531	4.13184e+02	2.53100e+03	4.60022e-02	4.11833e+02
2535	4.13832e+02	2.53500e+03	4.44833e-02	4.12500e+02
2539	4.14493e+02	2.53900e+03	4.30507e-02	4.13167e+02
2543	4.15149e+02	2.54300e+03	4.16920e-02	4.13833e+02
2547	4.15802e+02	2.54700e+03	4.03538e-02	4.14500e+02
2551	4.16450e+02	2.55100e+03	3.90584e-02	4.15167e+02
2555	4.17105e+02	2.55500e+03	3.78226e-02	4.15833e+02
2559	4.17753e+02	2.55900e+03	3.66310e-02	4.16500e+02
2563	4.18416e+02	2.56300e+03	3.54647e-02	4.17167e+02
2567	4.19070e+02	2.56700e+03	3.43483e-02	4.17833e+02
2571	4.19732e+02	2.57100e+03	3.33494e-02	4.18500e+02
2575	4.20407e+02	2.57500e+03	3.24058e-02	4.19167e+02
2579	4.21049e+02	2.57900e+03	3.14606e-02	4.19833e+02
2583	4.21713e+02	2.58300e+03	3.05370e-02	4.20500e+02
2587	4.22371e+02	2.58700e+03	2.96116e-02	4.21167e+02
2591	4.23009e+02	2.59100e+03	2.87292e-02	4.21833e+02
2595	4.23661e+02	2.59500e+03	2.79142e-02	4.22500e+02
2599	4.24326e+02	2.59900e+03	2.70341e-02	4.23167e+02
2603	4.24978e+02	2.60300e+03	2.61339e-02	4.23833e+02
2607	4.25625e+02	2.60700e+03	2.53445e-02	4.24500e+02
2611	4.26284e+02	2.61100e+03	2.46250e-02	4.25167e+02
2615	4.26937e+02	2.61500e+03	2.40079e-02	4.25833e+02
2619	4.27579e+02	2.61900e+03	2.35571e-02	4.26500e+02
2623	4.28231e+02	2.62300e+03	2.31781e-02	4.27167e+02
2627	4.28887e+02	2.62700e+03	2.27156e-02	4.27833e+02
2631	4.29542e+02	2.63100e+03	2.22034e-02	4.28500e+02
2635	4.30205e+02	2.63500e+03	2.17734e-02	4.29167e+02
2639	4.30859e+02	2.63900e+03	2.13773e-02	4.29833e+02
2643	4.31513e+02	2.64300e+03	2.09326e-02	4.30500e+02
2647	4.32167e+02	2.64700e+03	2.04848e-02	4.31167e+02
2651	4.32817e+02	2.65100e+03	2.01460e-02	4.31833e+02
2655	4.33465e+02	2.65500e+03	1.99166e-02	4.32500e+02
2659	4.34111e+02	2.65900e+03	1.97324e-02	4.33167e+02
2663	4.34763e+02	2.66300e+03	1.95338e-02	4.33833e+02
2667	4.35409e+02	2.66700e+03	1.93581e-02	4.34500e+02
2671	4.36063e+02	2.67100e+03	1.92712e-02	4.35167e+02
2675	4.36718e+02	2.67500e+03	1.91934e-02	4.35833e+02
2679	4.37366e+02	2.67900e+03	1.90712e-02	4.36500e+02
2683	4.38016e+02	2.68300e+03	1.89421e-02	4.37167e+02
2687	4.38657e+02	2.68700e+03	1.88237e-02	4.37833e+02
2691	4.39311e+02	2.69100e+03	1.87117e-02	4.38500e+02
2695	4.39966e+02	2.69500e+03	1.86089e-02	4.39167e+02
2699	4.40604e+02	2.69900e+03	1.85246e-02	4.39833e+02
2703	4.41262e+02	2.70300e+03	1.84733e-02	4.40500e+02
2707	4.41897e+02	2.70700e+03	1.84511e-02	4.41167e+02
2711	4.42562e+02	2.71100e+03	1.83774e-02	4.41833e+02
2715	4.43205e+02	2.71500e+03	1.82223e-02	4.42500e+02
2719	4.43863e+02	2.71900e+03	1.81487e-02	4.43167e+02
2723	4.44518e+02	2.72300e+03	1.81689e-02	4.43833e+02
2727	4.45167e+02	2.72700e+03	1.81368e-02	4.44500e+02
2731	4.45814e+02	2.73100e+03	1.81037e-02	4.45167e+02
2735	4.46470e+02	2.73500e+03	1.81063e-02	4.45833e+02
2739	4.47126e+02	2.73900e+03	1.80412e-02	4.46500e+02
2743	4.47767e+02	2.74300e+03	1.78933e-02	4.47167e+02
2747	4.48432e+02	2.74700e+03	1.77703e-02	4.47833e+02
2751	4.49077e+02	2.75100e+03	1.77481e-02	4.48500e+02
2755	4.49725e+02	2.75500e+03	1.76944e-02	4.49167e+02
2759	4.50373e+02	2.75900e+03	1.75498e-02	4.49833e+02
2763	4.51020e+02	2.76300e+03	1.75258e-02	4.50500e+02
2767	4.51674e+02	2.76700e+03	1.76121e-02	4.51167e+02
2771	4.52326e+02	2.77100e+03	1.76595e-02	4.51833e+02
2775	4.52987e+02	2.77500e+03	1.75803e-02	4.52500e+02
2779	4.53642e+02	2.77900e+03	1.73568e-02	4.53167e+02
2783	4.54280e+02	2.78300e+03	1.71905e-02	4.53833e+02
2787	4.54928e+02	2.78700e+03	1.71478e-02	4.54500e+02
2791	4.55587e+02	2.79100e+03	1.71313e-02	4.55167e+02
2795	4.56234e+02	2.79500e+03	1.71351e-02	4.55833e+02
2799	4.56880e+02	2.79900e+03	1.71453e-02	4.56500e+02
2803	4.57538e+02	2.80300e+03	1.71157e-02	4.57167e+02
2807	4.58192e+02	2.80700e+03	1.70606e-02	4.57833e+02
2811	4.58850e+02	2.81100e+03	1.70139e-02	4.58500e+02
2815	4.59503e+02	2.81500e+03	1.69254e-02	4.59167e+02
2819	4.60160e+02	2.81900e+03	1.68218e-02	4.59833e+02
2823	4.60805e+02	2.82300e+03	1.68156e-02	4.60500e+02
2827	4.61465e+02	2.82700e+03	1.68334e-02	4.61167e+02
2831	4.62111e+02	2.83100e+03	1.67652e-02	4.61833e+02
2835	4.62773e+02	2.83500e+03	1.66416e-02	4.62500e+02
2839	4.63428e+02	2.83900e+03	1.65470e-02	4.63167e+02
2843	4.64088e+02	2.84300e+03	1.65375e-02	4.63833e+02
2847	4.64734e+02	2.84700e+03	1.65686e-02	4.64500e+02
2851	4.65402e+02	2.85100e+03	1.65603e-02	4.65167e+02
2855	4.66056e+02	2.85500e+03	1.65141e-02	4.65833e+02
2859	4.66700e+02	2.85900e+03	1.64577e-02	4.66500e+02
2863	4.67357e+02	2.86300e+03	1.64173e-02	4.67167e+02
2867	4.68007e+02	2.86700e+03	1.63654e-02	4.67833e+02
2871	4.68668e+02	2.87100e+03	1.63472e-02	4.68500e+02
2875	4.69326e+02	2.87500e+03	1.64191e-02	4.69167e+02
2879	4.69979e+02	2.87900e+03	1.64993e-02	4.69833e+02
2883	4.70627e+02	2.88300e+03	1.65285e-02	4.70500e+02
2887	4.71284e+02	2.88700e+03	1.64203e-02	4.71167e+02
2891	4.71938e+02	2.89100e+03	1.62474e-02	4.71833e+02
2895	4.72587e+02	2.89500e+03	1.61876e-02	4.72500e+02
2899	4.73239e+02	2.89900e+03	1.61266e-02	4.73167e+02
2903	4.73897e+02	2.90300e+03	1.59803e-02	4.73833e+02
2907	4.74546e+02	2.90700e+03	1.59288e-02	4.74500e+02
2911	4.75209e+02	2.91100e+03	1.60009e-02	4.75167e+02
2915	4.75851e+02	2.91500e+03	1.60927e-02	4.75833e+02
2919	4.76508e+02	2.91900e+03	1.61342e-02	4.76500e+02
2923	4.77152e+02	2.92300e+03	1.60529e-02	4.77167e+02
2927	4.77795e+02	2.92700e+03	1.59253e-02	4.77833e+02
2931	4.78446e+02	2.93100e+03	1.58853e-02	4.78500e+02
2935	4.79104e+02	2.93500e+03	1.58797e-02	4.79167e+02
2939	4.79756e+02	2.93900e+03	1.58669e-02	4.79833e+02
2943	4.80424e+02	2.94300e+03	1.58975e-02	4.80500e+02
2947	4.81084e+02	2.94700e+03	1.58964e-02	4.81167e+02
2951	4.81741e+02	2.95100e+03	1.58474e-02	4.81833e+02
2955	4.82397e+02	2.95500e+03	1.58620e-02	4.82500e+02
2959	4.83062e+02	2.95900e+03	1.59173e-02	4.83167e+02
2963	4.83720e+02	2.96300e+03	1.58806e-02	4.83833e+02
2967	4.84367e+02	2.96700e+03	1.57963e-02	4.84500e+02
2971	4.85029e+02	2.97100e+03	1.57622e-02	4.85167e+02
2975	4.85694e+02	2.97500e+03	1.57117e-02	4.85833e+02
2979	4.86355e+02	2.97900e+03	1.55877e-02	4.86500e+02
2983	4.87000e+02	2.98300e+03	1.54518e-02	4.87167e+02
2987	4.87678e+02	2.98700e+03	1.54012e-02	4.87833e+02
2991	4.88345e+02	2.99100e+03	1.54859e-02	4.88500e+02
2995	4.88984e+02	2.99500e+03	1.56359e-02	4.89167e+02
2999	4.89655e+02	2.99900e+03	1.57161e-02	4.89833e+02
3003	4.90315e+02	3.00300e+03	1.57177e-02	4.90500e+02
3007	4.90980e+02	3.00700e+03	1.56666e-02	4.91167e+02
3011	4.91648e+02	3.01100e+03	1.56271e-02	4.91833e+02
3015	4.92308e+02	3.01500e+03	1.57407e-02	4.92500e+02
3019	4.92969e+02	3.01900e+03	1.58689e-02	4.93167e+02
3023	4.93625e+02	3.02300e+03	1.58740e-02	4.93833e+02
3027	4.94288e+02	3.02700e+03	1.58989e-02	4.94500e+02
3031	4.94958e+02	3.03100e+03	1.59256e-02	4.95167e+02
3035	4.95611e+02	3.03500e+03	1.58129e-02	4.95833e+02
3039	4.96264e+02	3.03900e+03	1.56972e-02	4.96500e+02
3043	4.96936e+02	3.04300e+03	1.56675e-02	4.97167e+02
3047	4.97585e+02	3.04700e+03	1.55709e-02	4.97833e+02
3051	4.98256e+02	3.05100e+03	1.54532e-02	4.98500e+02
3055	4.98913e+02	3.05500e+03	1.54347e-02	4.99167e+02
3059	4.99575e+02	3.05900e+03	1.55024e-02	4.99833e+02
3063	5.00231e+02	3.06300e+03	1.55601e-02	5.00500e+02
3067	5.00890e+02	3.06700e+03	1.55471e-02	5.01167e+02
3071	5.01567e+02	3.07100e+03	1.55468e-02	5.01833e+02
3075	5.02223e+02	3.07500e+03	1.55464e-02	5.02500e+02
3079	5.02883e+02	3.07900e+03	1.54761e-02	5.03167e+02
3083	5.03547e+02	3.08300e+03	1.54480e-02	5.03833e+02
3087	5.04205e+02	3.08700e+03	1.55000e-02	5.04500e+02
3091	5.04878e+02	3.09100e+03	1.54887e-02	5.05167e+02
3095	5.05535e+02	3.09500e+03	1.54409e-02	5.05833e+02
3099	5.06201e+02	3.09900e+03	1.54557e-02	5.06500e+02
3103	5.06869e+02	3.10300e+03	1.54934e-02	5.07167e+02
3107	5.07524e+02	3.10700e+03	1.55099e-02	5.07833e+02
3111	5.08182e+02	3.11100e+03	1.55222e-02	5.08500e+02
3115	5.08850e+02	3.11500e+03	1.54656e-02	5.09167e+02
3119	5.09516e+02	3.11900e+03	1.52947e-02	5.09833e+02
3123	5.10178e+02	3.12300e+03	1.52005e-02	5.10500e+02
3127	5.10840e+02	3.12700e+03	1.52590e-02	5.11167e+02
3131	5.11501e+02	3.13100e+03	1.53271e-02	5.11833e+02
3135	5.12158e+02	3.13500e+03	1.53869e-02	5.12500e+02
3139	5.12821e+02	3.13900e+03	1.54540e-02	5.13167e+02
3143	5.13499e+02	3.14300e+03	1.54653e-02	5.13833e+02
3147	5.14163e+02	3.14700e+03	1.54464e-02	5.14500e+02
3151	5.14830e+02	3.15100e+03	1.55233e-02	5.15167e+02
3155	5.15493e+02	3.15500e+03	1.56539e-02	5.15833e+02
3159	5.16162e+02	3.15900e+03	1.56685e-02	5.16500e+02
3163	5.16813e+02	3.16300e+03	1.56059e-02	5.17167e+02
3167	5.17483e+02	3.16700e+03	1.55337e-02	5.17833e+02
3171	5.18152e+02	3.17100e+03	1.54946e-02	5.18500e+02
3175	5.18801e+02	3.17500e+03	1.54734e-02	5.19167e+02
3179	5.19467e+02	3.17900e+03	1.54276e-02	5.19833e+02
3183	5.20135e+02	3.18300e+03	1.53987e-02	5.20500e+02
3187	5.20798e+02	3.18700e+03	1.53814e-02	5.21167e+02
3191	5.21472e+02	3.19100e+03	1.53195e-02	5.21833e+02
3195	5.22129e+02	3.19500e+03	1.52687e-02	5.22500e+02
3199	5.22792e+02	3.19900e+03	1.53178e-02	5.23167e+02
3203	5.23454e+02	3.20300e+03	1.54042e-02	5.23833e+02
3207	5.24123e+02	3.20700e+03	1.54799e-02	5.24500e+02
3211	5.24800e+02	3.21100e+03	1.55046e-02	5.25167e+02
3215	5.25468e+02	3.21500e+03	1.54231e-02	5.25833e+02
3219	5.26125e+02	3.21900e+03	1.53137e-02	5.26500e+02
3223	5.26792e+02	3.22300e+03	1.52510e-02	5.27167e+02
3227	5.27451e+02	3.22700e+03	1.52242e-02	5.27833e+02
3231	5.28112e+02	3.23100e+03	1.51920e-02	5.28500e+02
3235	5.28771e+02	3.23500e+03	1.51658e-02	5.29167e+02
3239	5.29438e+02	3.23900e+03	1.52268e-02	5.29833e+02
3243	5.30108e+02	3.24300e+03	1.53693e-02	5.30500e+02
3247	5.30768e+02	3.24700e+03	1.54987e-02	5.31167e+02
3251	5.31427e+02	3.25100e+03	1.55309e-02	5.31833e+02
3255	5.32102e+02	3.25500e+03	1.54706e-02	5.32500e+02
3259	5.32762e+02	3.25900e+03	1.54138e-02	5.33167e+02
3263	5.33427e+02	3.26300e+03	1.53719e-02	5.33833e+02
3267	5.34095e+02	3.26700e+03	1.53187e-02	5.34500e+02
3271	5.34758e+02	3.27100e+03	1.52791e-02	5.35167e+02
3275	5.35441e+02	3.27500e+03	1.52380e-02	5.35833e+02
3279	5.36111e+02	3.27900e+03	1.51615e-02	5.36500e+02
3283	5.36779e+02	3.28300e+03	1.50566e-02	5.37167e+02
3287	5.37441e+02	3.28700e+03	1.50898e-02	5.37833e+02
3291	5.38097e+02	3.29100e+03	1.52019e-02	5.38500e+02
3295	5.38765e+02	3.29500e+03	1.52282e-02	5.39167e+02
3299	5.39426e+02	3.29900e+03	1.52449e-02	5.39833e+02
3303	5.40091e+02	3.30300e+03	1.52981e-02	5.40500e+02
3307	5.40741e+02	3.30700e+03	1.53309e-02	5.41167e+02
3311	5.41415e+02	3.31100e+03	1.52515e-02	5.41833e+02
3315	5.42089e+02	3.31500e+03	1.50703e-02	5.42500e+02
3319	5.42752e+02	3.31900e+03	1.48852e-02	5.43167e+02
3323	5.43406e+02	3.32300e+03	1.49269e-02	5.43833e+02
3327	5.44090e+02	3.32700e+03	1.52161e-02	5.44500e+02
3331	5.44747e+02	3.33100e+03	1.54124e-02	5.45167e+02
3335	5.45423e+02	3.33500e+03	1.53557e-02	5.45833e+02
3339	5.46089e+02	3.33900e+03	1.51605e-02	5.46500e+02
3343	5.46758e+02	3.34300e+03	1.50366e-02	5.47167e+02
3347	5.47407e+02	3.34700e+03	1.50688e-02	5.47833e+02
3351	5.48092e+02	3.35100e+03	1.50938e-02	5.48500e+02
3355	5.48747e+02	3.35500e+03	1.50627e-02	5.49167e+02
3359	5.49421e+02	3.35900e+03	1.50602e-02	5.49833e+02
3363	5.50089e+02	3.36300e+03	1.50698e-02	5.50500e+02
3367	5.50750e+02	3.36700e+03	1.50655e-02	5.51167e+02
3371	5.51426e+02	3.37100e+03	1.50294e-02	5.51833e+02
3375	5.52079e+02	3.37500e+03	1.49919e-02	5.52500e+02
3379	5.52736e+02	3.37900e+03	1.50161e-02	5.53167e+02
3383	5.53396e+02	3.38300e+03	1.50748e-02	5.53833e+02
3387	5.54057e+02	3.38700e+03	1.51224e-02	5.54500e+02
3391	5.54712e+02	3.39100e+03	1.51017e-02	5.55167e+02
3395	5.55377e+02	3.39500e+03	1.49704e-02	5.55833e+02
3399	5.56047e+02	3.39900e+03	1.47975e-02	5.56500e+02
3403	5.56710e+02	3.40300e+03	1.47239e-02	5.57167e+02
3407	5.57360e+02	3.40700e+03	1.47850e-02	5.57833e+02
3411	5.58038e+02	3.41100e+03	1.48474e-02	5.58500e+02
3415	5.58697e+02	3.41500e+03	1.48490e-02	5.59167e+02
3419	5.59352e+02	3.41900e+03	1.48439e-02	5.59833e+02
3423	5.60020e+02	3.42300e+03	1.48694e-02	5.60500e+02
3427	5.60677e+02	3.42700e+03	1.48473e-02	5.61167e+02
3431	5.61334e+02	3.43100e+03	1.47296e-02	5.61833e+02
3435	5.61999e+02	3.43500e+03	1.46003e-02	5.62500e+02
3439	5.62663e+02	3.43900e+03	1.45418e-02	5.63167e+02
3443	5.63318e+02	3.44300e+03	1.45666e-02	5.63833e+02
3447	5.63986e+02	3.44700e+03	1.46598e-02	5.64500e+02
3451	5.64652e+02	3.45100e+03	1.47489e-02	5.65167e+02
3455	5.65314e+02	3.45500e+03	1.47618e-02	5.65833e+02
3459	5.65970e+02	3.45900e+03	1.47672e-02	5.66500e+02
3463	5.66648e+02	3.46300e+03	1.47679e-02	5.67167e+02
3467	5.67305e+02	3.46700e+03	1.46970e-02	5.67833e+02
3471	5.67971e+02	3.47100e+03	1.46213e-02	5.68500e+02
3475	5.68627e+02	3.47500e+03	1.45882e-02	5.69167e+02
3479	5.69290e+02	3.47900e+03	1.45510e-02	5.69833e+02
3483	5.69956e+02	3.48300e+03	1.44883e-02	5.70500e+02
3487	5.70623e+02	3.48700e+03	1.44910e-02	5.71167e+02
3491	5.71285e+02	3.49100e+03	1.45915e-02	5.71833e+02
3495	5.71933e+02	3.49500e+03	1.46466e-02	5.72500e+02
3499	5.72593e+02	3.49900e+03	1.46342e-02	5.73167e+02
3503	5.73254e+02	3.50300e+03	1.46163e-02	5.73833e+02
3507	5.73925e+02	3.50700e+03	1.45514e-02	5.74500e+02
3511	5.74596e+02	3.51100e+03	1.43991e-02	5.75167e+02
3515	5.75273e+02	3.51500e+03	1.42885e-02	5.75833e+02
3519	5.75949e+02	3.51900e+03	1.42865e-02	5.76500e+02
3523	5.76603e+02	3.52300e+03	1.43580e-02	5.77167e+02
3527	5.77288e+02	3.52700e+03	1.44853e-02	5.77833e+02
3531	5.77947e+02	3.53100e+03	1.45921e-02	5.78500e+02
3535	5.78599e+02	3.53500e+03	1.46155e-02	5.79167e+02
3539	5.79258e+02	3.53900e+03	1.45600e-02	5.79833e+02
3543	5.79920e+02	3.54300e+03	1.45226e-02	5.80500e+02
3547	5.80591e+02	3.54700e+03	1.45046e-02	5.81167e+02
3551	5.81255e+02	3.55100e+03	1.44853e-02	5.81833e+02
3555	5.81910e+02	3.55500e+03	1.45186e-02	5.82500e+02
3559	5.82580e+02	3.55900e+03	1.45608e-02	5.83167e+02
3563	5.83252e+02	3.56300e+03	1.45511e-02	5.83833e+02
3567	5.83925e+02	3.56700e+03	1.45630e-02	5.84500e+02
3571	5.84600e+02	3.57100e+03	1.45912e-02	5.85167e+02
3575	5.85269e+02	3.57500e+03	1.45022e-02	5.85833e+02
3579	5.85928e+02	3.57900e+03	1.43556e-02	5.86500e+02
3583	5.86597e+02	3.58300e+03	1.43221e-02	5.87167e+02
3587	5.87267e+02	3.58700e+03	1.44355e-02	5.87833e+02
3591	5.87943e+02	3.59100e+03	1.44896e-02	5.88500e+02
3595	5.88602e+02	3.59500e+03	1.43989e-02	5.89167e+02
3599	5.89263e+02	3.59900e+03	1.42930e-02	5.89833e+02
3603	5.89929e+02	3.60300e+03	1.42504e-02	5.90500e+02
3607	5.90608e+02	3.60700e+03	1.42542e-02	5.91167e+02
3611	5.91281e+02	3.61100e+03	1.42780e-02	5.91833e+02
3615	5.91948e+02	3.61500e+03	1.43491e-02	5.92500e+02
3619	5.92620e+02	3.61900e+03	1.44015e-02	5.93167e+02
3623	5.93285e+02	3.62300e+03	1.43902e-02	5.93833e+02
3627	5.93959e+02	3.62700e+03	1.43537e-02	5.94500e+02
3631	5.94626e+02	3.63100e+03	1.43450e-02	5.95167e+02
3635	5.95298e+02	3.63500e+03	1.43351e-02	5.95833e+02
3639	5.95980e+02	3.63900e+03	1.43261e-02	5.96500e+02
3643	5.96650e+02	3.64300e+03	1.43431e-02	5.97167e+02
3647	5.97334e+02	3.64700e+03	1.43115e-02	5.97833e+02
3651	5.98016e+02	3.65100e+03	1.42262e-02	5.98500e+02
3655	5.98685e+02	3.65500e+03	1.41811e-02	5.99167e+02
3659	5.99362e+02	3.65900e+03	1.41608e-02	5.99833e+02
3663	6.00030e+02	3.66300e+03	1.41064e-02	6.00500e+02
3667	6.00716e+02	3.66700e+03	1.40464e-02	6.01167e+02
3671	6.01393e+02	3.67100e+03	1.40216e-02	6.01833e+02
3675	6.02063e+02	3.67500e+03	1.40241e-02	6.02500e+02
3679	6.02736e+02	3.67900e+03	1.40449e-02	6.03167e+02
3683	6.03401e+02	3.68300e+03	1.40543e-02	6.03833e+02
3687	6.04060e+02	3.68700e+03	1.40247e-02	6.04500e+02
3691	6.04728e+02	3.69100e+03	1.40275e-02	6.05167e+02
3695	6.05392e+02	3.69500e+03	1.40505e-02	6.05833e+02
3699	6.06058e+02	3.69900e+03	1.40000e-02	6.06500e+02
3703	6.06716e+02	3.70300e+03	1.39512e-02	6.07167e+02
3707	6.07365e+02	3.70700e+03	1.40203e-02	6.07833e+02
3711	6.08022e+02	3.71100e+03	1.41104e-02	6.08500e+02
3715	6.08692e+02	3.71500e+03	1.40833e-02	6.09167e+02
3719	6.09342e+02	3.71900e+03	1.40297e-02	6.09833e+02
3723	6.10004e+02	3.72300e+03	1.40508e-02	6.10500e+02
3727	6.10650e+02	3.72700e+03	1.40634e-02	6.11167e+02
3731	6.11297e+02	3.73100e+03	1.40365e-02	6.11833e+02
3735	6.11965e+02	3.73500e+03	1.39897e-02	6.12500e+02
3739	6.12635e+02	3.73900e+03	1.39623e-02	6.13167e+02
3743	6.13294e+02	3.74300e+03	1.39380e-02	6.13833e+02
3747	6.13946e+02	3.74700e+03	1.38573e-02	6.14500e+02
3751	6.14615e+02	3.75100e+03	1.37120e-02	6.15167e+02
3755	6.15266e+02	3.75500e+03	1.36622e-02	6.15833e+02
3759	6.15928e+02	3.75900e+03	1.37441e-02	6.16500e+02
3763	6.16589e+02	3.76300e+03	1.38046e-02	6.17167e+02
3767	6.17238e+02	3.76700e+03	1.38747e-02	6.17833e+02
3771	6.17895e+02	3.77100e+03	1.39300e-02	6.18500e+02
3775	6.18552e+02	3.77500e+03	1.39271e-02	6.19167e+02
3779	6.19226e+02	3.77900e+03	1.38871e-02	6.19833e+02
3783	6.19878e+02	3.78300e+03	1.38090e-02	6.20500e+02
3787	6.20547e+02	3.78700e+03	1.37728e-02	6.21167e+02
3791	6.21198e+02	3.79100e+03	1.37461e-02	6.21833e+02
3795	6.21866e+02	3.79500e+03	1.37256e-02	6.22500e+02
3799	6.22528e+02	3.79900e+03	1.37832e-02	6.23167e+02
3803	6.23178e+02	3.80300e+03	1.38339e-02	6.23833e+02
3807	6.23842e+02	3.80700e+03	1.38408e-02	6.24500e+02
3811	6.24503e+02	3.81100e+03	1.37957e-02	6.25167e+02
3815	6.25176e+02	3.81500e+03	1.37765e-02	6.25833e+02
3819	6.25828e+02	3.81900e+03	1.38252e-02	6.26500e+02
3823	6.26488e+02	3.82300e+03	1.38340e-02	6.27167e+02
3827	6.27146e+02	3.82700e+03	1.38055e-02	6.27833e+02
3831	6.27812e+02	3.83100e+03	1.37787e-02	6.28500e+02
3835	6.28480e+02	3.83500e+03	1.37445e-02	6.29167e+02
3839	6.29144e+02	3.83900e+03	1.37548e-02	6.29833e+02
3843	6.29802e+02	3.84300e+03	1.37732e-02	6.30500e+02
3847	6.30470e+02	3.84700e+03	1.37564e-02	6.31167e+02
3851	6.31128e+02	3.85100e+03	1.37183e-02	6.31833e+02
3855	6.31793e+02	3.85500e+03	1.37109e-02	6.32500e+02
3859	6.32455e+02	3.85900e+03	1.37537e-02	6.33167e+02
3863	6.33126e+02	3.86300e+03	1.37379e-02	6.33833e+02
3867	6.33790e+02	3.86700e+03	1.36437e-02	6.34500e+02
3871	6.34452e+02	3.87100e+03	1.35566e-02	6.35167e+02
3875	6.35101e+02	3.87500e+03	1.35263e-02	6.35833e+02
3879	6.35778e+02	3.87900e+03	1.35786e-02	6.36500e+02
3883	6.36432e+02	3.88300e+03	1.36934e-02	6.37167e+02
3887	6.37101e+02	3.88700e+03	1.36955e-02	6.37833e+02
3891	6.37759e+02	3.89100e+03	1.35711e-02	6.38500e+02
3895	6.38423e+02	3.89500e+03	1.34609e-02	6.39167e+02
3899	6.39083e+02	3.89900e+03	1.34350e-02	6.39833e+02
3903	6.39750e+02	3.90300e+03	1.34866e-02	6.40500e+02
3907	6.40414e+02	3.90700e+03	1.35998e-02	6.41167e+02
3911	6.41076e+02	3.91100e+03	1.37134e-02	6.41833e+02
3915	6.41743e+02	3.91500e+03	1.37271e-02	6.42500e+02
3919	6.42413e+02	3.91900e+03	1.36676e-02	6.43167e+02
3923	6.43075e+02	3.92300e+03	1.35928e-02	6.43833e+02
3927	6.43729e+02	3.92700e+03	1.35169e-02	6.44500e+02
3931	6.44391e+02	3.93100e+03	1.34588e-02	6.45167e+02
3935	6.45054e+02	3.93500e+03	1.34705e-02	6.45833e+02
3939	6.45707e+02	3.93900e+03	1.34871e-02	6.46500e+02
3943	6.46370e+02	3.94300e+03	1.34841e-02	6.47167e+02
3947	6.47042e+02	3.94700e+03	1.35046e-02	6.47833e+02
3951	6.47705e+02	3.95100e+03	1.35397e-02	6.48500e+02
3955	6.48372e+02	3.95500e+03	1.35694e-02	6.49167e+02
3959	6.49036e+02	3.95900e+03	1.35989e-02	6.49833e+02
3963	6.49699e+02	3.96300e+03	1.36185e-02	6.50500e+02
3967	6.50359e+02	3.96700e+03	1.35698e-02	6.51167e+02
3971	6.51031e+02	3.97100e+03	1.35242e-02	6.51833e+02
3975	6.51686e+02	3.97500e+03	1.35124e-02	6.52500e+02
3979	6.52349e+02	3.97900e+03	1.34707e-02	6.53167e+02
3983	6.53018e+02	3.98300e+03	1.34416e-02	6.53833e+02
3987	6.53675e+02	3.98700e+03	1.34852e-02	6.54500e+02
3991	6.54328e+02	3.99100e+03	1.35983e-02	6.55167e+02
3995	6.54988e+02	3.99500e+03	1.36957e-02	6.55833e+02
3999	6.55647e+02	3.99900e+03	1.36793e-02	6.56500e+02
4003	6.56317e+02	4.00300e+03	1.35880e-02	6.57167e+02
4007	6.56966e+02	4.00700e+03	1.34989e-02	6.57833e+02
4011	6.57626e+02	4.01100e+03	1.34400e-02	6.58500e+02
4015	6.58279e+02	4.01500e+03	1.33745e-02	6.59167e+02
4019	6.58941e+02	4.01900e+03	1.32883e-02	6.59833e+02
4023	6.59596e+02	4.02300e+03	1.32370e-02	6.60500e+02
4027	6.60265e+02	4.02700e+03	1.32046e-02	6.61167e+02
4031	6.60914e+02	4.03100e+03	1.31957e-02	6.61833e+02
4035	6.61583e+02	4.03500e+03	1.32538e-02	6.62500e+02
4039	6.62248e+02	4.03900e+03	1.33187e-02	6.63167e+02
4043	6.62907e+02	4.04300e+03	1.33460e-02	6.63833e+02
4047	6.63563e+02	4.04700e+03	1.33194e-02	6.64500e+02
4051	6.64226e+02	4.05100e+03	1.32556e-02	6.65167e+02
4055	6.64892e+02	4.05500e+03	1.31901e-02	6.65833e+02
4059	6.65558e+02	4.05900e+03	1.31365e-02	6.66500e+02
4063	6.66214e+02	4.06300e+03	1.31567e-02	6.67167e+02
4067	6.66875e+02	4.06700e+03	1.32070e-02	6.67833e+02
4071	6.67537e+02	4.07100e+03	1.32026e-02	6.68500e+02
4075	6.68201e+02	4.07500e+03	1.31965e-02	6.69167e+02
4079	6.68872e+02	4.07900e+03	1.31903e-02	6.69833e+02
4083	6.69531e+02	4.08300e+03	1.31758e-02	6.70500e+02
4087	6.70204e+02	4.08700e+03	1.31968e-02	6.71167e+02
4091	6.70863e+02	4.09100e+03	1.32042e-02	6.71833e+02
4095	6.71523e+02	4.09500e+03	1.32108e-02	6.72500e+02
4099	6.72195e+02	4.09900e+03	1.32984e-02	6.73167e+02
4103	6.72854e+02	4.10300e+03	1.34154e-02	6.73833e+02
4107	6.73521e+02	4.10700e+03	1.34478e-02	6.74500e+02
4111	6.74189e+02	4.11100e+03	1.34106e-02	6.75167e+02
4115	6.74853e+02	4.11500e+03	1.33529e-02	6.75833e+02
4119	6.75527e+02	4.11900e+03	1.33041e-02	6.76500e+02
4123	6.76185e+02	4.12300e+03	1.32784e-02	6.77167e+02
4127	6.76849e+02	4.12700e+03	1.32050e-02	6.77833e+02
4131	6.77518e+02	4.13100e+03	1.30712e-02	6.78500e+02
4135	6.78177e+02	4.13500e+03	1.29652e-02	6.79167e+02
4139	6.78846e+02	4.13900e+03	1.29577e-02	6.79833e+02
4143	6.79515e+02	4.14300e+03	1.29642e-02	6.80500e+02
4147	6.80183e+02	4.14700e+03	1.29268e-02	6.81167e+02
4151	6.80858e+02	4.15100e+03	1.29423e-02	6.81833e+02
4155	6.81515e+02	4.15500e+03	1.30323e-02	6.82500e+02
4159	6.82185e+02	4.15900e+03	1.31307e-02	6.83167e+02
4163	6.82841e+02	4.16300e+03	1.32197e-02	6.83833e+02
4167	6.83500e+02	4.16700e+03	1.32739e-02	6.84500e+02
4171	6.84173e+02	4.17100e+03	1.32715e-02	6.85167e+02
4175	6.84843e+02	4.17500e+03	1.32543e-02	6.85833e+02
4179	6.85492e+02	4.17900e+03	1.31910e-02	6.86500e+02
4183	6.86171e+02	4.18300e+03	1.30952e-02	6.87167e+02
4187	6.86828e+02	4.18700e+03	1.30573e-02	6.87833e+02
4191	6.87503e+02	4.19100e+03	1.30863e-02	6.88500e+02
4195	6.88170e+02	4.19500e+03	1.31477e-02	6.89167e+02
4199	6.88833e+02	4.19900e+03	1.32517e-02	6.89833e+02
4203	6.89500e+02	4.20300e+03	1.33626e-02	6.90500e+02
4207	6.90149e+02	4.20700e+03	1.34495e-02	6.91167e+02
4211	6.90822e+02	4.21100e+03	1.35287e-02	6.91833e+02
4215	6.91487e+02	4.21500e+03	1.35387e-02	6.92500e+02
4219	6.92152e+02	4.21900e+03	1.35005e-02	6.93167e+02
4223	6.92818e+02	4.22300e+03	1.34188e-02	6.93833e+02
4227	6.93476e+02	4.22700e+03	1.33338e-02	6.94500e+02
4231	6.94144e+02	4.23100e+03	1.33012e-02	6.95167e+02
4235	6.94699e+02	4.23500e+03	1.32533e-02	6.95833e+02
4239	6.95104e+02	4.23900e+03	1.32288e-02	6.96500e+02
4243	6.95585e+02	4.24300e+03	1.32709e-02	6.97167e+02
4247	6.95995e+02	4.24700e+03	1.32922e-02	6.97833e+02
4251	6.96356e+02	4.25100e+03	1.32949e-02	6.98500e+02
4255	6.96680e+02	4.25500e+03	1.32914e-02	6.99167e+02
4259	6.96965e+02	4.25900e+03	1.32275e-02	6.99833e+02
4260	6.97042e+02	4.26000e+03	1.31986e-02	7.00000e+02