File: Experiments/TUBS/tga_nonisotherm/tga_dynamic_n2_dyn30_powder_12mg_r1.txt
index	ts	t	weight	tr
[#]	[°C]	[s]	[mg]	[°C]
683	1.31307e+02	6.83000e+02	1.18863e+01	1.31500e+02
685	1.32335e+02	6.85000e+02	1.18860e+01	1.32500e+02
687	1.33338e+02	6.87000e+02	1.18858e+01	1.33500e+02
689	1.34366e+02	6.89000e+02	1.18855e+01	1.34500e+02
691	1.35383e+02	6.91000e+02	1.18851e+01	1.35500e+02
693	1.36415e+02	6.93000e+02	1.18848e+01	1.36500e+02
695	1.37423e+02	6.95000e+02	1.18844e+01	1.37500e+02
697	1.38463e+02	6.97000e+02	1.18839e+01	1.38500e+02
699	1.39465e+02	6.99000e+02	1.18834e+01	1.39500e+02
701	1.40501e+02	7.01000e+02	1.18828e+01	1.40500e+02
703	1.41533e+02	7.03000e+02	1.18822e+01	1.41500e+02
705	1.42578e+02	7.05000e+02	1.18816e+01	1.42500e+02
707	1.43591e+02	7.07000e+02	1.18809e+01	1.43500e+02
709	1.44608e+02	7.09000e+02	1.18801e+01	1.44500e+02
711	1.45591e+02	7.11000e+02	1.18794e+01	1.45500e+02
713	1.46568e+02	7.13000e+02	1.18785e+01	1.46500e+02
715	1.47578e+02	7.15000e+02	1.18777e+01	1.47500e+02
717	1.48619e+02	7.17000e+02	1.18767e+01	1.48500e+02
719	1.49632e+02	7.19000e+02	1.18757e+01	1.49500e+02
721	1.50641e+02	7.21000e+02	1.18745e+01	1.50500e+02
723	1.51658e+02	7.23000e+02	1.18733e+01	1.51500e+02
725	1.52676e+02	7.25000e+02	1.18720e+01	1.52500e+02
727	1.53689e+02	7.27000e+02	1.18707e+01	1.53500e+02
729	1.54713e+02	7.29000e+02	1.18693e+01	1.54500e+02
731	1.55737e+02	7.31000e+02	1.18679e+01	1.55500e+02
733	1.56748e+02	7.33000e+02	1.18665e+01	1.56500e+02
735	1.57757e+02	7.35000e+02	1.18649e+01	1.57500e+02
737	1.58782e+02	7.37000e+02	1.18633e+01	1.58500e+02
739	1.59799e+02	7.39000e+02	1.18616e+01	1.59500e+02
741	1.60823e+02	7.41000e+02	1.18599e+01	1.60500e+02
743	1.61821e+02	7.43000e+02	1.18581e+01	1.61500e+02
745	1.62846e+02	7.45000e+02	1.18563e+01	1.62500e+02
747	1.63869e+02	7.47000e+02	1.18544e+01	1.63500e+02
749	1.64886e+02	7.49000e+02	1.18526e+01	1.64500e+02
751	1.65907e+02	7.51000e+02	1.18507e+01	1.65500e+02
753	1.66936e+02	7.53000e+02	1.18486e+01	1.66500e+02
755	1.67965e+02	7.55000e+02	1.18466e+01	1.67500e+02
757	1.68995e+02	7.57000e+02	1.18443e+01	1.68500e+02
759	1.70005e+02	7.59000e+02	1.18420e+01	1.69500e+02
761	1.71031e+02	7.61000e+02	1.18396e+01	1.70500e+02
763	1.72053e+02	7.63000e+02	1.18370e+01	1.71500e+02
765	1.73073e+02	7.65000e+02	1.18342e+01	1.72500e+02
767	1.74088e+02	7.67000e+02	1.18313e+01	1.73500e+02
769	1.75112e+02	7.69000e+02	1.18281e+01	1.74500e+02
771	1.76143e+02	7.71000e+02	1.18248e+01	1.75500e+02
773	1.77162e+02	7.73000e+02	1.18211e+01	1.76500e+02
775	1.78184e+02	7.75000e+02	1.18173e+01	1.77500e+02
777	1.79199e+02	7.77000e+02	1.18130e+01	1.78500e+02
779	1.80219e+02	7.79000e+02	1.18085e+01	1.79500e+02
781	1.81233e+02	7.81000e+02	1.18034e+01	1.80500e+02
783	1.82261e+02	7.83000e+02	1.17981e+01	1.81500e+02
785	1.83271e+02	7.85000e+02	1.17921e+01	1.82500e+02
787	1.84291e+02	7.87000e+02	1.17859e+01	1.83500e+02
789	1.85308e+02	7.89000e+02	1.17788e+01	1.84500e+02
791	1.86323e+02	7.91000e+02	1.17716e+01	1.85500e+02
793	1.87345e+02	7.93000e+02	1.17633e+01	1.86500e+02
795	1.88371e+02	7.95000e+02	1.17549e+01	1.87500e+02
797	1.89384e+02	7.97000e+02	1.17454e+01	1.88500e+02
799	1.90411e+02	7.99000e+02	1.17358e+01	1.89500e+02
801	1.91427e+02	8.01000e+02	1.17251e+01	1.90500e+02
803	1.92447e+02	8.03000e+02	1.17144e+01	1.91500e+02
805	1.93482e+02	8.05000e+02	1.17028e+01	1.92500e+02
807	1.94497e+02	8.07000e+02	1.16910e+01	1.93500e+02
809	1.95534e+02	8.09000e+02	1.16786e+01	1.94500e+02
811	1.96568e+02	8.11000e+02	1.16661e+01	1.95500e+02
813	1.97586e+02	8.13000e+02	1.16531e+01	1.96500e+02
815	1.98613e+02	8.15000e+02	1.16401e+01	1.97500e+02
817	1.99648e+02	8.17000e+02	1.16268e+01	1.98500e+02
819	2.00676e+02	8.19000e+02	1.16135e+01	1.99500e+02
821	2.01717e+02	8.21000e+02	1.16003e+01	2.00500e+02
823	2.02741e+02	8.23000e+02	1.15871e+01	2.01500e+02
825	2.03776e+02	8.25000e+02	1.15741e+01	2.02500e+02
827	2.04794e+02	8.27000e+02	1.15614e+01	2.03500e+02
829	2.05840e+02	8.29000e+02	1.15491e+01	2.04500e+02
831	2.06871e+02	8.31000e+02	1.15370e+01	2.05500e+02
833	2.07917e+02	8.33000e+02	1.15257e+01	2.06500e+02
835	2.08947e+02	8.35000e+02	1.15146e+01	2.07500e+02
837	2.09981e+02	8.37000e+02	1.15046e+01	2.08500e+02
839	2.11024e+02	8.39000e+02	1.14948e+01	2.09500e+02
841	2.12058e+02	8.41000e+02	1.14861e+01	2.10500e+02
843	2.13144e+02	8.43000e+02	1.14778e+01	2.11500e+02
845	2.14200e+02	8.45000e+02	1.14705e+01	2.12500e+02
847	2.15251e+02	8.47000e+02	1.14635e+01	2.13500e+02
849	2.16288e+02	8.49000e+02	1.14576e+01	2.14500e+02
851	2.17351e+02	8.51000e+02	1.14518e+01	2.15500e+02
853	2.18388e+02	8.53000e+02	1.14470e+01	2.16500e+02
855	2.19433e+02	8.55000e+02	1.14424e+01	2.17500e+02
857	2.20471e+02	8.57000e+02	1.14384e+01	2.18500e+02
859	2.21475e+02	8.59000e+02	1.14345e+01	2.19500e+02
861	2.22502e+02	8.61000e+02	1.14310e+01	2.20500e+02
863	2.23521e+02	8.63000e+02	1.14275e+01	2.21500e+02
865	2.24545e+02	8.65000e+02	1.14243e+01	2.22500e+02
867	2.25574e+02	8.67000e+02	1.14212e+01	2.23500e+02
869	2.26589e+02	8.69000e+02	1.14183e+01	2.24500e+02
871	2.27613e+02	8.71000e+02	1.14153e+01	2.25500e+02
873	2.28657e+02	8.73000e+02	1.14124e+01	2.26500e+02
875	2.29665e+02	8.75000e+02	1.14094e+01	2.27500e+02
877	2.30699e+02	8.77000e+02	1.14065e+01	2.28500e+02
879	2.31740e+02	8.79000e+02	1.14036e+01	2.29500e+02
881	2.32778e+02	8.81000e+02	1.14006e+01	2.30500e+02
883	2.33826e+02	8.83000e+02	1.13976e+01	2.31500e+02
885	2.34866e+02	8.85000e+02	1.13946e+01	2.32500e+02
887	2.35886e+02	8.87000e+02	1.13915e+01	2.33500e+02
889	2.36935e+02	8.89000e+02	1.13884e+01	2.34500e+02
891	2.37949e+02	8.91000e+02	1.13853e+01	2.35500e+02
893	2.38986e+02	8.93000e+02	1.13822e+01	2.36500e+02
895	2.40006e+02	8.95000e+02	1.13792e+01	2.37500e+02
897	2.41031e+02	8.97000e+02	1.13762e+01	2.38500e+02
899	2.42071e+02	8.99000e+02	1.13733e+01	2.39500e+02
901	2.43127e+02	9.01000e+02	1.13705e+01	2.40500e+02
903	2.44163e+02	9.03000e+02	1.13677e+01	2.41500e+02
905	2.45199e+02	9.05000e+02	1.13649e+01	2.42500e+02
907	2.46235e+02	9.07000e+02	1.13621e+01	2.43500e+02
909	2.47295e+02	9.09000e+02	1.13594e+01	2.44500e+02
911	2.48332e+02	9.11000e+02	1.13566e+01	2.45500e+02
913	2.49423e+02	9.13000e+02	1.13540e+01	2.46500e+02
915	2.50494e+02	9.15000e+02	1.13513e+01	2.47500e+02
917	2.51528e+02	9.17000e+02	1.13488e+01	2.48500e+02
919	2.52559e+02	9.19000e+02	1.13464e+01	2.49500e+02
921	2.53621e+02	9.21000e+02	1.13441e+01	2.50500e+02
923	2.54717e+02	9.23000e+02	1.13418e+01	2.51500e+02
925	2.55773e+02	9.25000e+02	1.13396e+01	2.52500e+02
927	2.56826e+02	9.27000e+02	1.13374e+01	2.53500e+02
929	2.57892e+02	9.29000e+02	1.13352e+01	2.54500e+02
931	2.58961e+02	9.31000e+02	1.13331e+01	2.55500e+02
933	2.59999e+02	9.33000e+02	1.13310e+01	2.56500e+02
935	2.61056e+02	9.35000e+02	1.13290e+01	2.57500e+02
937	2.62115e+02	9.37000e+02	1.13270e+01	2.58500e+02
939	2.63170e+02	9.39000e+02	1.13250e+01	2.59500e+02
941	2.64208e+02	9.41000e+02	1.13231e+01	2.60500e+02
943	2.65249e+02	9.43000e+02	1.13211e+01	2.61500e+02
945	2.66306e+02	9.45000e+02	1.13191e+01	2.62500e+02
947	2.67403e+02	9.47000e+02	1.13171e+01	2.63500e+02
949	2.68500e+02	9.49000e+02	1.13151e+01	2.64500e+02
951	2.69595e+02	9.51000e+02	1.13131e+01	2.65500e+02
953	2.70838e+02	9.53000e+02	1.13110e+01	2.66500e+02
955	2.71901e+02	9.55000e+02	1.13089e+01	2.67500e+02
957	2.73035e+02	9.57000e+02	1.13067e+01	2.68500e+02
959	2.74102e+02	9.59000e+02	1.13044e+01	2.69500e+02
961	2.75136e+02	9.61000e+02	1.13021e+01	2.70500e+02
963	2.76164e+02	9.63000e+02	1.12998e+01	2.71500e+02
965	2.77157e+02	9.65000e+02	1.12973e+01	2.72500e+02
967	2.78178e+02	9.67000e+02	1.12948e+01	2.73500e+02
969	2.79214e+02	9.69000e+02	1.12922e+01	2.74500e+02
971	2.80267e+02	9.71000e+02	1.12894e+01	2.75500e+02
973	2.81298e+02	9.73000e+02	1.12864e+01	2.76500e+02
975	2.82303e+02	9.75000e+02	1.12833e+01	2.77500e+02
977	2.83286e+02	9.77000e+02	1.12799e+01	2.78500e+02
979	2.84232e+02	9.79000e+02	1.12765e+01	2.79500e+02
981	2.85206e+02	9.81000e+02	1.12729e+01	2.80500e+02
983	2.86218e+02	9.83000e+02	1.12691e+01	2.81500e+02
985	2.87215e+02	9.85000e+02	1.12650e+01	2.82500e+02
987	2.88237e+02	9.87000e+02	1.12608e+01	2.83500e+02
989	2.89314e+02	9.89000e+02	1.12562e+01	2.84500e+02
991	2.90384e+02	9.91000e+02	1.12514e+01	2.85500e+02
993	2.91389e+02	9.93000e+02	1.12462e+01	2.86500e+02
995	2.92413e+02	9.95000e+02	1.12408e+01	2.87500e+02
997	2.93465e+02	9.97000e+02	1.12350e+01	2.88500e+02
999	2.94488e+02	9.99000e+02	1.12290e+01	2.89500e+02
1001	2.95517e+02	1.00100e+03	1.12223e+01	2.90500e+02
1003	2.96527e+02	1.00300e+03	1.12154e+01	2.91500e+02
1005	2.97571e+02	1.00500e+03	1.12077e+01	2.92500e+02
1007	2.98548e+02	1.00700e+03	1.11999e+01	2.93500e+02
1009	2.99545e+02	1.00900e+03	1.11914e+01	2.94500e+02
1011	3.00561e+02	1.01100e+03	1.11827e+01	2.95500e+02
1013	3.01507e+02	1.01300e+03	1.11733e+01	2.96500e+02
1015	3.02478e+02	1.01500e+03	1.11636e+01	2.97500e+02
1017	3.03446e+02	1.01700e+03	1.11531e+01	2.98500e+02
1019	3.04433e+02	1.01900e+03	1.11425e+01	2.99500e+02
1021	3.05425e+02	1.02100e+03	1.11311e+01	3.00500e+02
1023	3.06369e+02	1.02300e+03	1.11195e+01	3.01500e+02
1025	3.07347e+02	1.02500e+03	1.11071e+01	3.02500e+02
1027	3.08312e+02	1.02700e+03	1.10945e+01	3.03500e+02
1029	3.09293e+02	1.02900e+03	1.10810e+01	3.04500e+02
1031	3.10279e+02	1.03100e+03	1.10675e+01	3.05500e+02
1033	3.11249e+02	1.03300e+03	1.10531e+01	3.06500e+02
1035	3.12223e+02	1.03500e+03	1.10387e+01	3.07500e+02
1037	3.13196e+02	1.03700e+03	1.10235e+01	3.08500e+02
1039	3.14165e+02	1.03900e+03	1.10082e+01	3.09500e+02
1041	3.15122e+02	1.04100e+03	1.09924e+01	3.10500e+02
1043	3.16070e+02	1.04300e+03	1.09764e+01	3.11500e+02
1045	3.16996e+02	1.04500e+03	1.09600e+01	3.12500e+02
1047	3.17920e+02	1.04700e+03	1.09435e+01	3.13500e+02
1049	3.18826e+02	1.04900e+03	1.09266e+01	3.14500e+02
1051	3.19709e+02	1.05100e+03	1.09097e+01	3.15500e+02
1053	3.20585e+02	1.05300e+03	1.08925e+01	3.16500e+02
1055	3.21456e+02	1.05500e+03	1.08753e+01	3.17500e+02
1057	3.22303e+02	1.05700e+03	1.08578e+01	3.18500e+02
1059	3.23130e+02	1.05900e+03	1.08403e+01	3.19500e+02
1061	3.23972e+02	1.06100e+03	1.08225e+01	3.20500e+02
1063	3.24860e+02	1.06300e+03	1.08046e+01	3.21500e+02
1065	3.25767e+02	1.06500e+03	1.07863e+01	3.22500e+02
1067	3.26706e+02	1.06700e+03	1.07680e+01	3.23500e+02
1069	3.27641e+02	1.06900e+03	1.07491e+01	3.24500e+02
1071	3.28591e+02	1.07100e+03	1.07300e+01	3.25500e+02
1073	3.29546e+02	1.07300e+03	1.07101e+01	3.26500e+02
1075	3.30516e+02	1.07500e+03	1.06897e+01	3.27500e+02
1077	3.31483e+02	1.07700e+03	1.06682e+01	3.28500e+02
1079	3.32439e+02	1.07900e+03	1.06462e+01	3.29500e+02
1081	3.33404e+02	1.08100e+03	1.06227e+01	3.30500e+02
1083	3.34367e+02	1.08300e+03	1.05986e+01	3.31500e+02
1085	3.35360e+02	1.08500e+03	1.05727e+01	3.32500e+02
1087	3.36330e+02	1.08700e+03	1.05463e+01	3.33500e+02
1089	3.37327e+02	1.08900e+03	1.05177e+01	3.34500e+02
1091	3.38312e+02	1.09100e+03	1.04885e+01	3.35500e+02
1093	3.39286e+02	1.09300e+03	1.04568e+01	3.36500e+02
1095	3.40276e+02	1.09500e+03	1.04244e+01	3.37500e+02
1097	3.41264e+02	1.09700e+03	1.03891e+01	3.38500e+02
1099	3.42238e+02	1.09900e+03	1.03530e+01	3.39500e+02
1101	3.43217e+02	1.10100e+03	1.03137e+01	3.40500e+02
1103	3.44191e+02	1.10300e+03	1.02733e+01	3.41500e+02
1105	3.45178e+02	1.10500e+03	1.02292e+01	3.42500e+02
1107	3.46143e+02	1.10700e+03	1.01841e+01	3.43500e+02
1109	3.47113e+02	1.10900e+03	1.01347e+01	3.44500e+02
1111	3.48085e+02	1.11100e+03	1.00843e+01	3.45500e+02
1113	3.49059e+02	1.11300e+03	1.00298e+01	3.46500e+02
1115	3.50019e+02	1.11500e+03	9.97351e+00	3.47500e+02
1117	3.51020e+02	1.11700e+03	9.91311e+00	3.48500e+02
1119	3.52269e+02	1.11900e+03	9.85065e+00	3.49500e+02
1121	3.53368e+02	1.12100e+03	9.78469e+00	3.50500e+02
1123	3.54276e+02	1.12300e+03	9.71645e+00	3.51500e+02
1125	3.55215e+02	1.12500e+03	9.64282e+00	3.52500e+02
1127	3.56156e+02	1.12700e+03	9.56604e+00	3.53500e+02
1129	3.57103e+02	1.12900e+03	9.48652e+00	3.54500e+02
1131	3.58054e+02	1.13100e+03	9.40457e+00	3.55500e+02
1133	3.59004e+02	1.13300e+03	9.31710e+00	3.56500e+02
1135	3.59960e+02	1.13500e+03	9.22644e+00	3.57500e+02
1137	3.60928e+02	1.13700e+03	9.13300e+00	3.58500e+02
1139	3.61914e+02	1.13900e+03	9.03721e+00	3.59500e+02
1141	3.62910e+02	1.14100e+03	8.93589e+00	3.60500e+02
1143	3.63888e+02	1.14300e+03	8.83146e+00	3.61500e+02
1145	3.64836e+02	1.14500e+03	8.72368e+00	3.62500e+02
1147	3.65778e+02	1.14700e+03	8.61370e+00	3.63500e+02
1149	3.66753e+02	1.14900e+03	8.50027e+00	3.64500e+02
1151	3.67717e+02	1.15100e+03	8.38360e+00	3.65500e+02
1153	3.68704e+02	1.15300e+03	8.26361e+00	3.66500e+02
1155	3.69641e+02	1.15500e+03	8.14251e+00	3.67500e+02
1157	3.70613e+02	1.15700e+03	8.01759e+00	3.68500e+02
1159	3.71544e+02	1.15900e+03	7.89192e+00	3.69500e+02
1161	3.72500e+02	1.16100e+03	7.76278e+00	3.70500e+02
1163	3.73448e+02	1.16300e+03	7.63308e+00	3.71500e+02
1165	3.74386e+02	1.16500e+03	7.50040e+00	3.72500e+02
1167	3.75370e+02	1.16700e+03	7.36713e+00	3.73500e+02
1169	3.76330e+02	1.16900e+03	7.23116e+00	3.74500e+02
1171	3.77310e+02	1.17100e+03	7.09457e+00	3.75500e+02
1173	3.78287e+02	1.17300e+03	6.95499e+00	3.76500e+02
1175	3.79331e+02	1.17500e+03	6.81422e+00	3.77500e+02
1177	3.80339e+02	1.17700e+03	6.66962e+00	3.78500e+02
1179	3.81342e+02	1.17900e+03	6.52391e+00	3.79500e+02
1181	3.82299e+02	1.18100e+03	6.37420e+00	3.80500e+02
1183	3.83284e+02	1.18300e+03	6.22366e+00	3.81500e+02
1185	3.84290e+02	1.18500e+03	6.06952e+00	3.82500e+02
1187	3.85287e+02	1.18700e+03	5.91451e+00	3.83500e+02
1189	3.86559e+02	1.18900e+03	5.75582e+00	3.84500e+02
1191	3.87500e+02	1.19100e+03	5.59530e+00	3.85500e+02
1193	3.88497e+02	1.19300e+03	5.43111e+00	3.86500e+02
1195	3.89514e+02	1.19500e+03	5.26658e+00	3.87500e+02
1197	3.90463e+02	1.19700e+03	5.09964e+00	3.88500e+02
1199	3.91433e+02	1.19900e+03	4.93263e+00	3.89500e+02
1201	3.92462e+02	1.20100e+03	4.76386e+00	3.90500e+02
1203	3.93378e+02	1.20300e+03	4.59455e+00	3.91500e+02
1205	3.94309e+02	1.20500e+03	4.42318e+00	3.92500e+02
1207	3.95261e+02	1.20700e+03	4.25133e+00	3.93500e+02
1209	3.96205e+02	1.20900e+03	4.07758e+00	3.94500e+02
1211	3.97179e+02	1.21100e+03	3.90389e+00	3.95500e+02
1213	3.98122e+02	1.21300e+03	3.72976e+00	3.96500e+02
1215	3.99084e+02	1.21500e+03	3.55641e+00	3.97500e+02
1217	4.00053e+02	1.21700e+03	3.38370e+00	3.98500e+02
1219	4.01037e+02	1.21900e+03	3.21069e+00	3.99500e+02
1221	4.02022e+02	1.22100e+03	3.03776e+00	4.00500e+02
1223	4.03020e+02	1.22300e+03	2.86505e+00	4.01500e+02
1225	4.04032e+02	1.22500e+03	2.69319e+00	4.02500e+02
1227	4.05097e+02	1.22700e+03	2.52249e+00	4.03500e+02
1229	4.06114e+02	1.22900e+03	2.35460e+00	4.04500e+02
1231	4.07152e+02	1.23100e+03	2.18776e+00	4.05500e+02
1233	4.08204e+02	1.23300e+03	2.02750e+00	4.06500e+02
1235	4.09252e+02	1.23500e+03	1.87032e+00	4.07500e+02
1237	4.10534e+02	1.23700e+03	1.71948e+00	4.08500e+02
1239	4.11579e+02	1.23900e+03	1.57500e+00	4.09500e+02
1241	4.12644e+02	1.24100e+03	1.44094e+00	4.10500e+02
1243	4.13724e+02	1.24300e+03	1.31346e+00	4.11500e+02
1245	4.14798e+02	1.24500e+03	1.19676e+00	4.12500e+02
1247	4.15902e+02	1.24700e+03	1.08660e+00	4.13500e+02
1249	4.16994e+02	1.24900e+03	9.87330e-01	4.14500e+02
1251	4.18120e+02	1.25100e+03	8.94558e-01	4.15500e+02
1253	4.19382e+02	1.25300e+03	8.11612e-01	4.16500e+02
1255	4.20453e+02	1.25500e+03	7.35725e-01	4.17500e+02
1257	4.21675e+02	1.25700e+03	6.65271e-01	4.18500e+02
1259	4.22735e+02	1.25900e+03	6.02108e-01	4.19500e+02
1261	4.23796e+02	1.26100e+03	5.44240e-01	4.20500e+02
1263	4.24846e+02	1.26300e+03	4.92186e-01	4.21500e+02
1265	4.25967e+02	1.26500e+03	4.46126e-01	4.22500e+02
1267	4.27177e+02	1.26700e+03	4.02969e-01	4.23500e+02
1269	4.28332e+02	1.26900e+03	3.66379e-01	4.24500e+02
1271	4.29441e+02	1.27100e+03	3.31902e-01	4.25500e+02
1273	4.30421e+02	1.27300e+03	3.03009e-01	4.26500e+02
1275	4.31381e+02	1.27500e+03	2.77151e-01	4.27500e+02
1277	4.32254e+02	1.27700e+03	2.54718e-01	4.28500e+02
1279	4.33184e+02	1.27900e+03	2.33587e-01	4.29500e+02
1281	4.34236e+02	1.28100e+03	2.16463e-01	4.30500e+02
1283	4.35252e+02	1.28300e+03	2.00046e-01	4.31500e+02
1285	4.36265e+02	1.28500e+03	1.87066e-01	4.32500e+02
1287	4.37257e+02	1.28700e+03	1.74546e-01	4.33500e+02
1289	4.38219e+02	1.28900e+03	1.64710e-01	4.34500e+02
1291	4.39174e+02	1.29100e+03	1.55181e-01	4.35500e+02
1293	4.40151e+02	1.29300e+03	1.47692e-01	4.36500e+02
1295	4.41127e+02	1.29500e+03	1.40461e-01	4.37500e+02
1297	4.42130e+02	1.29700e+03	1.34815e-01	4.38500e+02
1299	4.43124e+02	1.29900e+03	1.29358e-01	4.39500e+02
1301	4.44110e+02	1.30100e+03	1.25083e-01	4.40500e+02
1303	4.45099e+02	1.30300e+03	1.20928e-01	4.41500e+02
1305	4.46098e+02	1.30500e+03	1.17647e-01	4.42500e+02
1307	4.47074e+02	1.30700e+03	1.14469e-01	4.43500e+02
1309	4.48066e+02	1.30900e+03	1.11965e-01	4.44500e+02
1311	4.49055e+02	1.31100e+03	1.09539e-01	4.45500e+02
1313	4.50039e+02	1.31300e+03	1.07622e-01	4.46500e+02
1315	4.51010e+02	1.31500e+03	1.05778e-01	4.47500e+02
1317	4.51993e+02	1.31700e+03	1.04316e-01	4.48500e+02
1319	4.52989e+02	1.31900e+03	1.02886e-01	4.49500e+02
1321	4.53962e+02	1.32100e+03	1.01729e-01	4.50500e+02
1323	4.54946e+02	1.32300e+03	1.00604e-01	4.51500e+02
1325	4.55947e+02	1.32500e+03	9.96953e-02	4.52500e+02
1327	4.56895e+02	1.32700e+03	9.88274e-02	4.53500e+02
1329	4.57870e+02	1.32900e+03	9.81708e-02	4.54500e+02
1331	4.58845e+02	1.33100e+03	9.75712e-02	4.55500e+02
1333	4.59806e+02	1.33300e+03	9.71709e-02	4.56500e+02
1335	4.60776e+02	1.33500e+03	9.67852e-02	4.57500e+02
1337	4.61755e+02	1.33700e+03	9.65295e-02	4.58500e+02
1339	4.62746e+02	1.33900e+03	9.62843e-02	4.59500e+02
1341	4.63703e+02	1.34100e+03	9.61505e-02	4.60500e+02
1343	4.64682e+02	1.34300e+03	9.60485e-02	4.61500e+02
1345	4.65675e+02	1.34500e+03	9.60395e-02	4.62500e+02
1347	4.66646e+02	1.34700e+03	9.59942e-02	4.63500e+02
1349	4.67614e+02	1.34900e+03	9.59171e-02	4.64500e+02
1351	4.68577e+02	1.35100e+03	9.57981e-02	4.65500e+02
1353	4.69546e+02	1.35300e+03	9.56013e-02	4.66500e+02
1355	4.70548e+02	1.35500e+03	9.54207e-02	4.67500e+02
1357	4.71541e+02	1.35700e+03	9.52565e-02	4.68500e+02
1359	4.72517e+02	1.35900e+03	9.51449e-02	4.69500e+02
1361	4.73482e+02	1.36100e+03	9.51305e-02	4.70500e+02
1363	4.74454e+02	1.36300e+03	9.51226e-02	4.71500e+02
1365	4.75434e+02	1.36500e+03	9.51605e-02	4.72500e+02
1367	4.76416e+02	1.36700e+03	9.51663e-02	4.73500e+02
1369	4.77380e+02	1.36900e+03	9.51320e-02	4.74500e+02
1371	4.78341e+02	1.37100e+03	9.50887e-02	4.75500e+02
1373	4.79304e+02	1.37300e+03	9.50315e-02	4.76500e+02
1375	4.80265e+02	1.37500e+03	9.49913e-02	4.77500e+02
1377	4.81238e+02	1.37700e+03	9.49640e-02	4.78500e+02
1379	4.82188e+02	1.37900e+03	9.49302e-02	4.79500e+02
1381	4.83157e+02	1.38100e+03	9.48858e-02	4.80500e+02
1383	4.84118e+02	1.38300e+03	9.48323e-02	4.81500e+02
1385	4.85083e+02	1.38500e+03	9.47456e-02	4.82500e+02
1387	4.86055e+02	1.38700e+03	9.46447e-02	4.83500e+02
1389	4.86996e+02	1.38900e+03	9.45427e-02	4.84500e+02
1391	4.87956e+02	1.39100e+03	9.44728e-02	4.85500e+02
1393	4.88906e+02	1.39300e+03	9.44605e-02	4.86500e+02
1395	4.89865e+02	1.39500e+03	9.44574e-02	4.87500e+02
1397	4.90834e+02	1.39700e+03	9.45010e-02	4.88500e+02
1399	4.91790e+02	1.39900e+03	9.45325e-02	4.89500e+02
1401	4.92747e+02	1.40100e+03	9.45398e-02	4.90500e+02
1403	4.93715e+02	1.40300e+03	9.45011e-02	4.91500e+02
1405	4.94677e+02	1.40500e+03	9.43831e-02	4.92500e+02
1407	4.95656e+02	1.40700e+03	9.42852e-02	4.93500e+02
1409	4.96599e+02	1.40900e+03	9.41988e-02	4.94500e+02
1411	4.97573e+02	1.41100e+03	9.41522e-02	4.95500e+02
1413	4.98534e+02	1.41300e+03	9.41530e-02	4.96500e+02
1415	4.99503e+02	1.41500e+03	9.41199e-02	4.97500e+02
1417	5.00472e+02	1.41700e+03	9.40615e-02	4.98500e+02
1419	5.01432e+02	1.41900e+03	9.39880e-02	4.99500e+02
1421	5.02409e+02	1.42100e+03	9.38892e-02	5.00500e+02
1423	5.03374e+02	1.42300e+03	9.38080e-02	5.01500e+02
1425	5.04356e+02	1.42500e+03	9.37496e-02	5.02500e+02
1427	5.05323e+02	1.42700e+03	9.37189e-02	5.03500e+02
1429	5.06299e+02	1.42900e+03	9.37321e-02	5.04500e+02
1431	5.07267e+02	1.43100e+03	9.37402e-02	5.05500e+02
1433	5.08242e+02	1.43300e+03	9.37598e-02	5.06500e+02
1435	5.09218e+02	1.43500e+03	9.37658e-02	5.07500e+02
1437	5.10193e+02	1.43700e+03	9.37471e-02	5.08500e+02
1439	5.11162e+02	1.43900e+03	9.37155e-02	5.09500e+02
1441	5.12122e+02	1.44100e+03	9.36629e-02	5.10500e+02
1443	5.13098e+02	1.44300e+03	9.36220e-02	5.11500e+02
1445	5.14070e+02	1.44500e+03	9.35704e-02	5.12500e+02
1447	5.15012e+02	1.44700e+03	9.34876e-02	5.13500e+02
1449	5.15975e+02	1.44900e+03	9.33250e-02	5.14500e+02
1451	5.16931e+02	1.45100e+03	9.31704e-02	5.15500e+02
1453	5.17880e+02	1.45300e+03	9.30610e-02	5.16500e+02
1455	5.18856e+02	1.45500e+03	9.30609e-02	5.17500e+02
1457	5.19800e+02	1.45700e+03	9.32312e-02	5.18500e+02
1459	5.20770e+02	1.45900e+03	9.33613e-02	5.19500e+02
1461	5.21721e+02	1.46100e+03	9.34989e-02	5.20500e+02
1463	5.22692e+02	1.46300e+03	9.35830e-02	5.21500e+02
1465	5.23661e+02	1.46500e+03	9.35736e-02	5.22500e+02
1467	5.24614e+02	1.46700e+03	9.35512e-02	5.23500e+02
1469	5.25616e+02	1.46900e+03	9.34663e-02	5.24500e+02
1471	5.26623e+02	1.47100e+03	9.33925e-02	5.25500e+02
1473	5.27627e+02	1.47300e+03	9.32978e-02	5.26500e+02
1475	5.28610e+02	1.47500e+03	9.32191e-02	5.27500e+02
1477	5.29590e+02	1.47700e+03	9.31670e-02	5.28500e+02
1479	5.30555e+02	1.47900e+03	9.31375e-02	5.29500e+02
1481	5.31536e+02	1.48100e+03	9.31388e-02	5.30500e+02
1483	5.32509e+02	1.48300e+03	9.31175e-02	5.31500e+02
1485	5.33477e+02	1.48500e+03	9.30793e-02	5.32500e+02
1487	5.34439e+02	1.48700e+03	9.30280e-02	5.33500e+02
1489	5.35410e+02	1.48900e+03	9.29516e-02	5.34500e+02
1491	5.36377e+02	1.49100e+03	9.28799e-02	5.35500e+02
1493	5.37344e+02	1.49300e+03	9.28050e-02	5.36500e+02
1495	5.38327e+02	1.49500e+03	9.27454e-02	5.37500e+02
1497	5.39280e+02	1.49700e+03	9.27057e-02	5.38500e+02
1499	5.40248e+02	1.49900e+03	9.26621e-02	5.39500e+02
1501	5.41224e+02	1.50100e+03	9.26253e-02	5.40500e+02
1503	5.42182e+02	1.50300e+03	9.25830e-02	5.41500e+02
1505	5.43175e+02	1.50500e+03	9.25421e-02	5.42500e+02
1507	5.44167e+02	1.50700e+03	9.25045e-02	5.43500e+02
1509	5.45164e+02	1.50900e+03	9.24745e-02	5.44500e+02
1511	5.46162e+02	1.51100e+03	9.24484e-02	5.45500e+02
1513	5.47187e+02	1.51300e+03	9.24348e-02	5.46500e+02
1515	5.48221e+02	1.51500e+03	9.24274e-02	5.47500e+02
1517	5.49270e+02	1.51700e+03	9.24235e-02	5.48500e+02
1519	5.50605e+02	1.51900e+03	9.23974e-02	5.49500e+02
1521	5.51477e+02	1.52100e+03	9.23449e-02	5.50500e+02
1523	5.52350e+02	1.52300e+03	9.22881e-02	5.51500e+02
1525	5.53274e+02	1.52500e+03	9.22076e-02	5.52500e+02
1527	5.54230e+02	1.52700e+03	9.21222e-02	5.53500e+02
1529	5.55155e+02	1.52900e+03	9.19962e-02	5.54500e+02
1531	5.56098e+02	1.53100e+03	9.18548e-02	5.55500e+02
1533	5.57051e+02	1.53300e+03	9.17066e-02	5.56500e+02
1535	5.57999e+02	1.53500e+03	9.16236e-02	5.57500e+02
1537	5.58931e+02	1.53700e+03	9.16657e-02	5.58500e+02
1539	5.59881e+02	1.53900e+03	9.17324e-02	5.59500e+02
1541	5.60831e+02	1.54100e+03	9.18603e-02	5.60500e+02
1543	5.61801e+02	1.54300e+03	9.19229e-02	5.61500e+02
1545	5.62763e+02	1.54500e+03	9.19024e-02	5.62500e+02
1547	5.63726e+02	1.54700e+03	9.18712e-02	5.63500e+02
1549	5.64691e+02	1.54900e+03	9.17925e-02	5.64500e+02
1551	5.65679e+02	1.55100e+03	9.17388e-02	5.65500e+02
1553	5.66649e+02	1.55300e+03	9.17044e-02	5.66500e+02
1555	5.67614e+02	1.55500e+03	9.16777e-02	5.67500e+02
1557	5.68581e+02	1.55700e+03	9.16590e-02	5.68500e+02
1559	5.69549e+02	1.55900e+03	9.16197e-02	5.69500e+02
1561	5.70523e+02	1.56100e+03	9.15502e-02	5.70500e+02
1563	5.71481e+02	1.56300e+03	9.14821e-02	5.71500e+02
1565	5.72456e+02	1.56500e+03	9.14139e-02	5.72500e+02
1567	5.73418e+02	1.56700e+03	9.13676e-02	5.73500e+02
1569	5.74382e+02	1.56900e+03	9.13621e-02	5.74500e+02
1571	5.75359e+02	1.57100e+03	9.13652e-02	5.75500e+02
1573	5.76353e+02	1.57300e+03	9.13901e-02	5.76500e+02
1575	5.77366e+02	1.57500e+03	9.13973e-02	5.77500e+02
1577	5.78352e+02	1.57700e+03	9.13897e-02	5.78500e+02
1579	5.79347e+02	1.57900e+03	9.13767e-02	5.79500e+02
1581	5.80349e+02	1.58100e+03	9.13514e-02	5.80500e+02
1583	5.81335e+02	1.58300e+03	9.13273e-02	5.81500e+02
1585	5.82326e+02	1.58500e+03	9.12830e-02	5.82500e+02
1587	5.83327e+02	1.58700e+03	9.12077e-02	5.83500e+02
1589	5.84355e+02	1.58900e+03	9.10979e-02	5.84500e+02
1591	5.85385e+02	1.59100e+03	9.10088e-02	5.85500e+02
1593	5.86499e+02	1.59300e+03	9.09534e-02	5.86500e+02
1595	5.87529e+02	1.59500e+03	9.09370e-02	5.87500e+02
1597	5.88554e+02	1.59700e+03	9.09941e-02	5.88500e+02
1599	5.89554e+02	1.59900e+03	9.10414e-02	5.89500e+02
1601	5.90557e+02	1.60100e+03	9.10915e-02	5.90500e+02
1603	5.91524e+02	1.60300e+03	9.11055e-02	5.91500e+02
1605	5.92495e+02	1.60500e+03	9.10740e-02	5.92500e+02
1607	5.93497e+02	1.60700e+03	9.10402e-02	5.93500e+02
1609	5.94456e+02	1.60900e+03	9.09861e-02	5.94500e+02
1611	5.95408e+02	1.61100e+03	9.09434e-02	5.95500e+02
1613	5.96377e+02	1.61300e+03	9.09103e-02	5.96500e+02
1615	5.97353e+02	1.61500e+03	9.08818e-02	5.97500e+02
1617	5.98370e+02	1.61700e+03	9.08638e-02	5.98500e+02
1619	5.99329e+02	1.61900e+03	9.08420e-02	5.99500e+02
1621	6.00299e+02	1.62100e+03	9.08121e-02	6.00500e+02
1623	6.01365e+02	1.62300e+03	9.07670e-02	6.01500e+02
1625	6.02497e+02	1.62500e+03	9.06877e-02	6.02500e+02
1627	6.03896e+02	1.62700e+03	9.06127e-02	6.03500e+02
1629	6.06770e+02	1.62900e+03	9.05383e-02	6.04500e+02
1631	6.07528e+02	1.63100e+03	9.04883e-02	6.05500e+02
1633	6.08376e+02	1.63300e+03	9.04783e-02	6.06500e+02
1635	6.09286e+02	1.63500e+03	9.04710e-02	6.07500e+02
1637	6.10199e+02	1.63700e+03	9.04896e-02	6.08500e+02
1639	6.11116e+02	1.63900e+03	9.05118e-02	6.09500e+02
1641	6.12043e+02	1.64100e+03	9.05433e-02	6.10500e+02
1643	6.12984e+02	1.64300e+03	9.05540e-02	6.11500e+02
1645	6.13920e+02	1.64500e+03	9.05156e-02	6.12500e+02
1647	6.14878e+02	1.64700e+03	9.04663e-02	6.13500e+02
1649	6.15821e+02	1.64900e+03	9.04007e-02	6.14500e+02
1651	6.16782e+02	1.65100e+03	9.03720e-02	6.15500e+02
1653	6.17733e+02	1.65300e+03	9.03800e-02	6.16500e+02
1655	6.18695e+02	1.65500e+03	9.03752e-02	6.17500e+02
1657	6.19658e+02	1.65700e+03	9.03746e-02	6.18500e+02
1659	6.20617e+02	1.65900e+03	9.03688e-02	6.19500e+02
1661	6.21589e+02	1.66100e+03	9.03511e-02	6.20500e+02
1663	6.22565e+02	1.66300e+03	9.03202e-02	6.21500e+02
1665	6.23534e+02	1.66500e+03	9.02711e-02	6.22500e+02
1667	6.24515e+02	1.66700e+03	9.02296e-02	6.23500e+02
1669	6.25474e+02	1.66900e+03	9.02037e-02	6.24500e+02
1671	6.26446e+02	1.67100e+03	9.02003e-02	6.25500e+02
1673	6.27410e+02	1.67300e+03	9.02248e-02	6.26500e+02
1675	6.28379e+02	1.67500e+03	9.02296e-02	6.27500e+02
1677	6.29365e+02	1.67700e+03	9.02155e-02	6.28500e+02
1679	6.30330e+02	1.67900e+03	9.01874e-02	6.29500e+02
1681	6.31328e+02	1.68100e+03	9.01338e-02	6.30500e+02
1683	6.32277e+02	1.68300e+03	9.00831e-02	6.31500e+02
1685	6.33263e+02	1.68500e+03	9.00327e-02	6.32500e+02
1687	6.34227e+02	1.68700e+03	8.99969e-02	6.33500e+02
1689	6.35205e+02	1.68900e+03	8.99818e-02	6.34500e+02
1691	6.36173e+02	1.69100e+03	8.99742e-02	6.35500e+02
1693	6.37141e+02	1.69300e+03	8.99750e-02	6.36500e+02
1695	6.38113e+02	1.69500e+03	8.99523e-02	6.37500e+02
1697	6.39091e+02	1.69700e+03	8.99167e-02	6.38500e+02
1699	6.40060e+02	1.69900e+03	8.98996e-02	6.39500e+02
1701	6.41035e+02	1.70100e+03	8.98997e-02	6.40500e+02
1703	6.42013e+02	1.70300e+03	8.99050e-02	6.41500e+02
1705	6.42979e+02	1.70500e+03	8.99140e-02	6.42500e+02
1707	6.43968e+02	1.70700e+03	8.98897e-02	6.43500e+02
1709	6.44940e+02	1.70900e+03	8.98153e-02	6.44500e+02
1711	6.45913e+02	1.71100e+03	8.97350e-02	6.45500e+02
1713	6.46897e+02	1.71300e+03	8.96393e-02	6.46500e+02
1715	6.47877e+02	1.71500e+03	8.95640e-02	6.47500e+02
1717	6.48851e+02	1.71700e+03	8.94883e-02	6.48500e+02
1719	6.49846e+02	1.71900e+03	8.93665e-02	6.49500e+02
1721	6.50819e+02	1.72100e+03	8.91896e-02	6.50500e+02
1723	6.51800e+02	1.72300e+03	8.90465e-02	6.51500e+02
1725	6.52797e+02	1.72500e+03	8.89970e-02	6.52500e+02
1727	6.53766e+02	1.72700e+03	8.90491e-02	6.53500e+02
1729	6.54759e+02	1.72900e+03	8.92934e-02	6.54500e+02
1731	6.55743e+02	1.73100e+03	8.95027e-02	6.55500e+02
1733	6.56732e+02	1.73300e+03	8.97115e-02	6.56500e+02
1735	6.57713e+02	1.73500e+03	8.98273e-02	6.57500e+02
1737	6.58708e+02	1.73700e+03	8.97674e-02	6.58500e+02
1739	6.59698e+02	1.73900e+03	8.96679e-02	6.59500e+02
1741	6.60669e+02	1.74100e+03	8.94262e-02	6.60500e+02
1743	6.61664e+02	1.74300e+03	8.92303e-02	6.61500e+02
1745	6.62654e+02	1.74500e+03	8.90521e-02	6.62500e+02
1747	6.63634e+02	1.74700e+03	8.89197e-02	6.63500e+02
1749	6.64622e+02	1.74900e+03	8.88747e-02	6.64500e+02
1751	6.65619e+02	1.75100e+03	8.88490e-02	6.65500e+02
1753	6.66609e+02	1.75300e+03	8.88965e-02	6.66500e+02
1755	6.67584e+02	1.75500e+03	8.89302e-02	6.67500e+02
1757	6.68564e+02	1.75700e+03	8.89574e-02	6.68500e+02
1759	6.69549e+02	1.75900e+03	8.89458e-02	6.69500e+02
1761	6.70519e+02	1.76100e+03	8.88848e-02	6.70500e+02
1763	6.71504e+02	1.76300e+03	8.88505e-02	6.71500e+02
1765	6.72490e+02	1.76500e+03	8.88268e-02	6.72500e+02
1767	6.73474e+02	1.76700e+03	8.88140e-02	6.73500e+02
1769	6.74461e+02	1.76900e+03	8.88281e-02	6.74500e+02
1771	6.75445e+02	1.77100e+03	8.88311e-02	6.75500e+02
1773	6.76440e+02	1.77300e+03	8.88222e-02	6.76500e+02
1775	6.77420e+02	1.77500e+03	8.87922e-02	6.77500e+02
1777	6.78416e+02	1.77700e+03	8.87126e-02	6.78500e+02
1779	6.79410e+02	1.77900e+03	8.86270e-02	6.79500e+02
1781	6.80395e+02	1.78100e+03	8.85100e-02	6.80500e+02
1783	6.81388e+02	1.78300e+03	8.84097e-02	6.81500e+02
1785	6.82378e+02	1.78500e+03	8.83104e-02	6.82500e+02
1787	6.83364e+02	1.78700e+03	8.82174e-02	6.83500e+02
1789	6.84351e+02	1.78900e+03	8.81700e-02	6.84500e+02
1791	6.85342e+02	1.79100e+03	8.81791e-02	6.85500e+02
1793	6.86314e+02	1.79300e+03	8.83261e-02	6.86500e+02
1795	6.87005e+02	1.79500e+03	8.84840e-02	6.87500e+02
1797	6.87421e+02	1.79700e+03	8.86915e-02	6.88500e+02
1799	6.88112e+02	1.79900e+03	8.88267e-02	6.89500e+02
1801	6.88770e+02	1.80100e+03	8.88836e-02	6.90500e+02
1803	6.89372e+02	1.80300e+03	8.88999e-02	6.91500e+02
1805	6.89952e+02	1.80500e+03	8.88233e-02	6.92500e+02
1807	6.90495e+02	1.80700e+03	8.87340e-02	6.93500e+02
1809	6.90995e+02	1.80900e+03	8.85992e-02	6.94500e+02
1811	6.91465e+02	1.81100e+03	8.85055e-02	6.95500e+02
1813	6.91927e+02	1.81300e+03	8.84732e-02	6.96500e+02
1815	6.92343e+02	1.81500e+03	8.84885e-02	6.97500e+02
1817	6.92745e+02	1.81700e+03	8.85960e-02	6.98500e+02
1819	6.93119e+02	1.81900e+03	8.86947e-02	6.99500e+02
1820	6.93302e+02	1.82000e+03	8.87575e-02	7.00000e+02