File: Experiments/TUBS/tga_nonisotherm/tga_dynamic_n2_dyn30_piece_1mg_r1.txt
index	ts	t	weight	tr
[#]	[°C]	[s]	[mg]	[°C]
683	1.30928e+02	6.83000e+02	1.03653e+00	1.31500e+02
685	1.31922e+02	6.85000e+02	1.03647e+00	1.32500e+02
687	1.32926e+02	6.87000e+02	1.03642e+00	1.33500e+02
689	1.33934e+02	6.89000e+02	1.03642e+00	1.34500e+02
691	1.34926e+02	6.91000e+02	1.03643e+00	1.35500e+02
693	1.35934e+02	6.93000e+02	1.03647e+00	1.36500e+02
695	1.36924e+02	6.95000e+02	1.03648e+00	1.37500e+02
697	1.37939e+02	6.97000e+02	1.03646e+00	1.38500e+02
699	1.38941e+02	6.99000e+02	1.03644e+00	1.39500e+02
701	1.39954e+02	7.01000e+02	1.03639e+00	1.40500e+02
703	1.40943e+02	7.03000e+02	1.03635e+00	1.41500e+02
705	1.41952e+02	7.05000e+02	1.03632e+00	1.42500e+02
707	1.42970e+02	7.07000e+02	1.03630e+00	1.43500e+02
709	1.43970e+02	7.09000e+02	1.03631e+00	1.44500e+02
711	1.44966e+02	7.11000e+02	1.03632e+00	1.45500e+02
713	1.45972e+02	7.13000e+02	1.03634e+00	1.46500e+02
715	1.46976e+02	7.15000e+02	1.03635e+00	1.47500e+02
717	1.47988e+02	7.17000e+02	1.03636e+00	1.48500e+02
719	1.48976e+02	7.19000e+02	1.03636e+00	1.49500e+02
721	1.49981e+02	7.21000e+02	1.03633e+00	1.50500e+02
723	1.50993e+02	7.23000e+02	1.03630e+00	1.51500e+02
725	1.51999e+02	7.25000e+02	1.03626e+00	1.52500e+02
727	1.53006e+02	7.27000e+02	1.03623e+00	1.53500e+02
729	1.54025e+02	7.29000e+02	1.03620e+00	1.54500e+02
731	1.55017e+02	7.31000e+02	1.03618e+00	1.55500e+02
733	1.56033e+02	7.33000e+02	1.03615e+00	1.56500e+02
735	1.57032e+02	7.35000e+02	1.03611e+00	1.57500e+02
737	1.58042e+02	7.37000e+02	1.03608e+00	1.58500e+02
739	1.59065e+02	7.39000e+02	1.03604e+00	1.59500e+02
741	1.60045e+02	7.41000e+02	1.03599e+00	1.60500e+02
743	1.61064e+02	7.43000e+02	1.03594e+00	1.61500e+02
745	1.62072e+02	7.45000e+02	1.03588e+00	1.62500e+02
747	1.63078e+02	7.47000e+02	1.03585e+00	1.63500e+02
749	1.64090e+02	7.49000e+02	1.03584e+00	1.64500e+02
751	1.65110e+02	7.51000e+02	1.03581e+00	1.65500e+02
753	1.66105e+02	7.53000e+02	1.03576e+00	1.66500e+02
755	1.67121e+02	7.55000e+02	1.03568e+00	1.67500e+02
757	1.68124e+02	7.57000e+02	1.03557e+00	1.68500e+02
759	1.69137e+02	7.59000e+02	1.03547e+00	1.69500e+02
761	1.70155e+02	7.61000e+02	1.03539e+00	1.70500e+02
763	1.71164e+02	7.63000e+02	1.03532e+00	1.71500e+02
765	1.72176e+02	7.65000e+02	1.03530e+00	1.72500e+02
767	1.73183e+02	7.67000e+02	1.03528e+00	1.73500e+02
769	1.74200e+02	7.69000e+02	1.03530e+00	1.74500e+02
771	1.75215e+02	7.71000e+02	1.03529e+00	1.75500e+02
773	1.76227e+02	7.73000e+02	1.03527e+00	1.76500e+02
775	1.77240e+02	7.75000e+02	1.03523e+00	1.77500e+02
777	1.78254e+02	7.77000e+02	1.03517e+00	1.78500e+02
779	1.79272e+02	7.79000e+02	1.03511e+00	1.79500e+02
781	1.80287e+02	7.81000e+02	1.03506e+00	1.80500e+02
783	1.81308e+02	7.83000e+02	1.03502e+00	1.81500e+02
785	1.82300e+02	7.85000e+02	1.03502e+00	1.82500e+02
787	1.83323e+02	7.87000e+02	1.03501e+00	1.83500e+02
789	1.84332e+02	7.89000e+02	1.03498e+00	1.84500e+02
791	1.85346e+02	7.91000e+02	1.03493e+00	1.85500e+02
793	1.86370e+02	7.93000e+02	1.03483e+00	1.86500e+02
795	1.87370e+02	7.95000e+02	1.03472e+00	1.87500e+02
797	1.88404e+02	7.97000e+02	1.03458e+00	1.88500e+02
799	1.89402e+02	7.99000e+02	1.03445e+00	1.89500e+02
801	1.90410e+02	8.01000e+02	1.03431e+00	1.90500e+02
803	1.91452e+02	8.03000e+02	1.03417e+00	1.91500e+02
805	1.92476e+02	8.05000e+02	1.03403e+00	1.92500e+02
807	1.93482e+02	8.07000e+02	1.03389e+00	1.93500e+02
809	1.94514e+02	8.09000e+02	1.03377e+00	1.94500e+02
811	1.95527e+02	8.11000e+02	1.03363e+00	1.95500e+02
813	1.96541e+02	8.13000e+02	1.03350e+00	1.96500e+02
815	1.97559e+02	8.15000e+02	1.03335e+00	1.97500e+02
817	1.98580e+02	8.17000e+02	1.03319e+00	1.98500e+02
819	1.99584e+02	8.19000e+02	1.03301e+00	1.99500e+02
821	2.00610e+02	8.21000e+02	1.03280e+00	2.00500e+02
823	2.01634e+02	8.23000e+02	1.03260e+00	2.01500e+02
825	2.02650e+02	8.25000e+02	1.03238e+00	2.02500e+02
827	2.03678e+02	8.27000e+02	1.03219e+00	2.03500e+02
829	2.04686e+02	8.29000e+02	1.03202e+00	2.04500e+02
831	2.05709e+02	8.31000e+02	1.03184e+00	2.05500e+02
833	2.06727e+02	8.33000e+02	1.03165e+00	2.06500e+02
835	2.07753e+02	8.35000e+02	1.03142e+00	2.07500e+02
837	2.08766e+02	8.37000e+02	1.03114e+00	2.08500e+02
839	2.09795e+02	8.39000e+02	1.03086e+00	2.09500e+02
841	2.10816e+02	8.41000e+02	1.03053e+00	2.10500e+02
843	2.11845e+02	8.43000e+02	1.03022e+00	2.11500e+02
845	2.12845e+02	8.45000e+02	1.02992e+00	2.12500e+02
847	2.13859e+02	8.47000e+02	1.02965e+00	2.13500e+02
849	2.14889e+02	8.49000e+02	1.02943e+00	2.14500e+02
851	2.15919e+02	8.51000e+02	1.02921e+00	2.15500e+02
853	2.16929e+02	8.53000e+02	1.02901e+00	2.16500e+02
855	2.17955e+02	8.55000e+02	1.02879e+00	2.17500e+02
857	2.18974e+02	8.57000e+02	1.02857e+00	2.18500e+02
859	2.19984e+02	8.59000e+02	1.02835e+00	2.19500e+02
861	2.21023e+02	8.61000e+02	1.02812e+00	2.20500e+02
863	2.22025e+02	8.63000e+02	1.02788e+00	2.21500e+02
865	2.23059e+02	8.65000e+02	1.02761e+00	2.22500e+02
867	2.24070e+02	8.67000e+02	1.02734e+00	2.23500e+02
869	2.25087e+02	8.69000e+02	1.02707e+00	2.24500e+02
871	2.26114e+02	8.71000e+02	1.02681e+00	2.25500e+02
873	2.27133e+02	8.73000e+02	1.02655e+00	2.26500e+02
875	2.28158e+02	8.75000e+02	1.02630e+00	2.27500e+02
877	2.29166e+02	8.77000e+02	1.02605e+00	2.28500e+02
879	2.30196e+02	8.79000e+02	1.02577e+00	2.29500e+02
881	2.31194e+02	8.81000e+02	1.02547e+00	2.30500e+02
883	2.32223e+02	8.83000e+02	1.02517e+00	2.31500e+02
885	2.33249e+02	8.85000e+02	1.02487e+00	2.32500e+02
887	2.34255e+02	8.87000e+02	1.02459e+00	2.33500e+02
889	2.35277e+02	8.89000e+02	1.02431e+00	2.34500e+02
891	2.36304e+02	8.91000e+02	1.02404e+00	2.35500e+02
893	2.37315e+02	8.93000e+02	1.02379e+00	2.36500e+02
895	2.38340e+02	8.95000e+02	1.02353e+00	2.37500e+02
897	2.39354e+02	8.97000e+02	1.02326e+00	2.38500e+02
899	2.40376e+02	8.99000e+02	1.02297e+00	2.39500e+02
901	2.41392e+02	9.01000e+02	1.02263e+00	2.40500e+02
903	2.42405e+02	9.03000e+02	1.02229e+00	2.41500e+02
905	2.43418e+02	9.05000e+02	1.02194e+00	2.42500e+02
907	2.44443e+02	9.07000e+02	1.02161e+00	2.43500e+02
909	2.45459e+02	9.09000e+02	1.02127e+00	2.44500e+02
911	2.46470e+02	9.11000e+02	1.02091e+00	2.45500e+02
913	2.47483e+02	9.13000e+02	1.02054e+00	2.46500e+02
915	2.48497e+02	9.15000e+02	1.02019e+00	2.47500e+02
917	2.49514e+02	9.17000e+02	1.01985e+00	2.48500e+02
919	2.50530e+02	9.19000e+02	1.01954e+00	2.49500e+02
921	2.51552e+02	9.21000e+02	1.01927e+00	2.50500e+02
923	2.52573e+02	9.23000e+02	1.01901e+00	2.51500e+02
925	2.53591e+02	9.25000e+02	1.01875e+00	2.52500e+02
927	2.54602e+02	9.27000e+02	1.01848e+00	2.53500e+02
929	2.55631e+02	9.29000e+02	1.01817e+00	2.54500e+02
931	2.56637e+02	9.31000e+02	1.01783e+00	2.55500e+02
933	2.57646e+02	9.33000e+02	1.01745e+00	2.56500e+02
935	2.58677e+02	9.35000e+02	1.01707e+00	2.57500e+02
937	2.59692e+02	9.37000e+02	1.01667e+00	2.58500e+02
939	2.60706e+02	9.39000e+02	1.01628e+00	2.59500e+02
941	2.61722e+02	9.41000e+02	1.01590e+00	2.60500e+02
943	2.62752e+02	9.43000e+02	1.01552e+00	2.61500e+02
945	2.63772e+02	9.45000e+02	1.01517e+00	2.62500e+02
947	2.64784e+02	9.47000e+02	1.01483e+00	2.63500e+02
949	2.65815e+02	9.49000e+02	1.01452e+00	2.64500e+02
951	2.66838e+02	9.51000e+02	1.01421e+00	2.65500e+02
953	2.67852e+02	9.53000e+02	1.01390e+00	2.66500e+02
955	2.68877e+02	9.55000e+02	1.01356e+00	2.67500e+02
957	2.69892e+02	9.57000e+02	1.01317e+00	2.68500e+02
959	2.70907e+02	9.59000e+02	1.01279e+00	2.69500e+02
961	2.71928e+02	9.61000e+02	1.01241e+00	2.70500e+02
963	2.72945e+02	9.63000e+02	1.01202e+00	2.71500e+02
965	2.73975e+02	9.65000e+02	1.01164e+00	2.72500e+02
967	2.74985e+02	9.67000e+02	1.01123e+00	2.73500e+02
969	2.76002e+02	9.69000e+02	1.01077e+00	2.74500e+02
971	2.77016e+02	9.71000e+02	1.01029e+00	2.75500e+02
973	2.78023e+02	9.73000e+02	1.00977e+00	2.76500e+02
975	2.79034e+02	9.75000e+02	1.00926e+00	2.77500e+02
977	2.80045e+02	9.77000e+02	1.00874e+00	2.78500e+02
979	2.81060e+02	9.79000e+02	1.00823e+00	2.79500e+02
981	2.82077e+02	9.81000e+02	1.00772e+00	2.80500e+02
983	2.83091e+02	9.83000e+02	1.00722e+00	2.81500e+02
985	2.84113e+02	9.85000e+02	1.00675e+00	2.82500e+02
987	2.85120e+02	9.87000e+02	1.00630e+00	2.83500e+02
989	2.86138e+02	9.89000e+02	1.00587e+00	2.84500e+02
991	2.87152e+02	9.91000e+02	1.00541e+00	2.85500e+02
993	2.88156e+02	9.93000e+02	1.00492e+00	2.86500e+02
995	2.89163e+02	9.95000e+02	1.00442e+00	2.87500e+02
997	2.90168e+02	9.97000e+02	1.00389e+00	2.88500e+02
999	2.91174e+02	9.99000e+02	1.00336e+00	2.89500e+02
1001	2.92183e+02	1.00100e+03	1.00281e+00	2.90500e+02
1003	2.93198e+02	1.00300e+03	1.00224e+00	2.91500e+02
1005	2.94207e+02	1.00500e+03	1.00158e+00	2.92500e+02
1007	2.95211e+02	1.00700e+03	1.00091e+00	2.93500e+02
1009	2.96223e+02	1.00900e+03	1.00017e+00	2.94500e+02
1011	2.97218e+02	1.01100e+03	9.99434e-01	2.95500e+02
1013	2.98229e+02	1.01300e+03	9.98665e-01	2.96500e+02
1015	2.99238e+02	1.01500e+03	9.97902e-01	2.97500e+02
1017	3.00246e+02	1.01700e+03	9.97132e-01	2.98500e+02
1019	3.01264e+02	1.01900e+03	9.96362e-01	2.99500e+02
1021	3.02270e+02	1.02100e+03	9.95575e-01	3.00500e+02
1023	3.03276e+02	1.02300e+03	9.94761e-01	3.01500e+02
1025	3.04274e+02	1.02500e+03	9.93892e-01	3.02500e+02
1027	3.05282e+02	1.02700e+03	9.92996e-01	3.03500e+02
1029	3.06270e+02	1.02900e+03	9.92015e-01	3.04500e+02
1031	3.07275e+02	1.03100e+03	9.91005e-01	3.05500e+02
1033	3.08259e+02	1.03300e+03	9.89896e-01	3.06500e+02
1035	3.09253e+02	1.03500e+03	9.88769e-01	3.07500e+02
1037	3.10225e+02	1.03700e+03	9.87546e-01	3.08500e+02
1039	3.11192e+02	1.03900e+03	9.86291e-01	3.09500e+02
1041	3.12151e+02	1.04100e+03	9.84934e-01	3.10500e+02
1043	3.13120e+02	1.04300e+03	9.83560e-01	3.11500e+02
1045	3.14118e+02	1.04500e+03	9.82112e-01	3.12500e+02
1047	3.15093e+02	1.04700e+03	9.80668e-01	3.13500e+02
1049	3.16092e+02	1.04900e+03	9.79188e-01	3.14500e+02
1051	3.17081e+02	1.05100e+03	9.77712e-01	3.15500e+02
1053	3.18075e+02	1.05300e+03	9.76232e-01	3.16500e+02
1055	3.19073e+02	1.05500e+03	9.74761e-01	3.17500e+02
1057	3.20064e+02	1.05700e+03	9.73306e-01	3.18500e+02
1059	3.21057e+02	1.05900e+03	9.71855e-01	3.19500e+02
1061	3.22058e+02	1.06100e+03	9.70421e-01	3.20500e+02
1063	3.23052e+02	1.06300e+03	9.68992e-01	3.21500e+02
1065	3.24052e+02	1.06500e+03	9.67596e-01	3.22500e+02
1067	3.25059e+02	1.06700e+03	9.66223e-01	3.23500e+02
1069	3.26059e+02	1.06900e+03	9.64909e-01	3.24500e+02
1071	3.27067e+02	1.07100e+03	9.63604e-01	3.25500e+02
1073	3.28066e+02	1.07300e+03	9.62325e-01	3.26500e+02
1075	3.29057e+02	1.07500e+03	9.61025e-01	3.27500e+02
1077	3.30065e+02	1.07700e+03	9.59694e-01	3.28500e+02
1079	3.31064e+02	1.07900e+03	9.58341e-01	3.29500e+02
1081	3.32052e+02	1.08100e+03	9.56918e-01	3.30500e+02
1083	3.33064e+02	1.08300e+03	9.55467e-01	3.31500e+02
1085	3.34050e+02	1.08500e+03	9.53930e-01	3.32500e+02
1087	3.35041e+02	1.08700e+03	9.52370e-01	3.33500e+02
1089	3.36042e+02	1.08900e+03	9.50725e-01	3.34500e+02
1091	3.37029e+02	1.09100e+03	9.49058e-01	3.35500e+02
1093	3.38022e+02	1.09300e+03	9.47305e-01	3.36500e+02
1095	3.39025e+02	1.09500e+03	9.45523e-01	3.37500e+02
1097	3.40022e+02	1.09700e+03	9.43614e-01	3.38500e+02
1099	3.41020e+02	1.09900e+03	9.41634e-01	3.39500e+02
1101	3.41998e+02	1.10100e+03	9.39452e-01	3.40500e+02
1103	3.42994e+02	1.10300e+03	9.37212e-01	3.41500e+02
1105	3.43984e+02	1.10500e+03	9.34759e-01	3.42500e+02
1107	3.44983e+02	1.10700e+03	9.32263e-01	3.43500e+02
1109	3.45976e+02	1.10900e+03	9.29539e-01	3.44500e+02
1111	3.46966e+02	1.11100e+03	9.26732e-01	3.45500e+02
1113	3.47959e+02	1.11300e+03	9.23647e-01	3.46500e+02
1115	3.48972e+02	1.11500e+03	9.20482e-01	3.47500e+02
1117	3.49970e+02	1.11700e+03	9.16997e-01	3.48500e+02
1119	3.50955e+02	1.11900e+03	9.13400e-01	3.49500e+02
1121	3.51954e+02	1.12100e+03	9.09396e-01	3.50500e+02
1123	3.52941e+02	1.12300e+03	9.05263e-01	3.51500e+02
1125	3.53937e+02	1.12500e+03	9.00653e-01	3.52500e+02
1127	3.54928e+02	1.12700e+03	8.95891e-01	3.53500e+02
1129	3.55930e+02	1.12900e+03	8.90498e-01	3.54500e+02
1131	3.56917e+02	1.13100e+03	8.84795e-01	3.55500e+02
1133	3.57914e+02	1.13300e+03	8.78142e-01	3.56500e+02
1135	3.58911e+02	1.13500e+03	8.71191e-01	3.57500e+02
1137	3.59902e+02	1.13700e+03	8.63241e-01	3.58500e+02
1139	3.60901e+02	1.13900e+03	8.55164e-01	3.59500e+02
1141	3.61891e+02	1.14100e+03	8.46270e-01	3.60500e+02
1143	3.62883e+02	1.14300e+03	8.37217e-01	3.61500e+02
1145	3.63881e+02	1.14500e+03	8.27444e-01	3.62500e+02
1147	3.64882e+02	1.14700e+03	8.17550e-01	3.63500e+02
1149	3.65875e+02	1.14900e+03	8.07028e-01	3.64500e+02
1151	3.66871e+02	1.15100e+03	7.96360e-01	3.65500e+02
1153	3.67861e+02	1.15300e+03	7.85021e-01	3.66500e+02
1155	3.68846e+02	1.15500e+03	7.73431e-01	3.67500e+02
1157	3.69840e+02	1.15700e+03	7.60995e-01	3.68500e+02
1159	3.70832e+02	1.15900e+03	7.48317e-01	3.69500e+02
1161	3.71826e+02	1.16100e+03	7.34731e-01	3.70500e+02
1163	3.72814e+02	1.16300e+03	7.20976e-01	3.71500e+02
1165	3.73809e+02	1.16500e+03	7.06418e-01	3.72500e+02
1167	3.74801e+02	1.16700e+03	6.91720e-01	3.73500e+02
1169	3.75774e+02	1.16900e+03	6.76271e-01	3.74500e+02
1171	3.76771e+02	1.17100e+03	6.60640e-01	3.75500e+02
1173	3.77732e+02	1.17300e+03	6.44278e-01	3.76500e+02
1175	3.78731e+02	1.17500e+03	6.27797e-01	3.77500e+02
1177	3.79719e+02	1.17700e+03	6.10709e-01	3.78500e+02
1179	3.80697e+02	1.17900e+03	5.93544e-01	3.79500e+02
1181	3.81712e+02	1.18100e+03	5.75933e-01	3.80500e+02
1183	3.82705e+02	1.18300e+03	5.58310e-01	3.81500e+02
1185	3.83717e+02	1.18500e+03	5.40440e-01	3.82500e+02
1187	3.84702e+02	1.18700e+03	5.22581e-01	3.83500e+02
1189	3.85696e+02	1.18900e+03	5.04620e-01	3.84500e+02
1191	3.86700e+02	1.19100e+03	4.86677e-01	3.85500e+02
1193	3.87701e+02	1.19300e+03	4.68705e-01	3.86500e+02
1195	3.88703e+02	1.19500e+03	4.50700e-01	3.87500e+02
1197	3.89705e+02	1.19700e+03	4.32556e-01	3.88500e+02
1199	3.90710e+02	1.19900e+03	4.14266e-01	3.89500e+02
1201	3.91702e+02	1.20100e+03	3.95696e-01	3.90500e+02
1203	3.92703e+02	1.20300e+03	3.77119e-01	3.91500e+02
1205	3.93711e+02	1.20500e+03	3.58421e-01	3.92500e+02
1207	3.94711e+02	1.20700e+03	3.39834e-01	3.93500e+02
1209	3.95711e+02	1.20900e+03	3.21368e-01	3.94500e+02
1211	3.96700e+02	1.21100e+03	3.02971e-01	3.95500e+02
1213	3.97727e+02	1.21300e+03	2.84765e-01	3.96500e+02
1215	3.98726e+02	1.21500e+03	2.66633e-01	3.97500e+02
1217	3.99738e+02	1.21700e+03	2.48814e-01	3.98500e+02
1219	4.00727e+02	1.21900e+03	2.31225e-01	3.99500e+02
1221	4.01727e+02	1.22100e+03	2.14313e-01	4.00500e+02
1223	4.02741e+02	1.22300e+03	1.97785e-01	4.01500e+02
1225	4.03766e+02	1.22500e+03	1.82407e-01	4.02500e+02
1227	4.04777e+02	1.22700e+03	1.67469e-01	4.03500e+02
1229	4.05796e+02	1.22900e+03	1.53996e-01	4.04500e+02
1231	4.06798e+02	1.23100e+03	1.40899e-01	4.05500e+02
1233	4.07795e+02	1.23300e+03	1.29306e-01	4.06500e+02
1235	4.08831e+02	1.23500e+03	1.18035e-01	4.07500e+02
1237	4.09879e+02	1.23700e+03	1.08169e-01	4.08500e+02
1239	4.10922e+02	1.23900e+03	9.85723e-02	4.09500e+02
1241	4.11939e+02	1.24100e+03	9.02632e-02	4.10500e+02
1243	4.12967e+02	1.24300e+03	8.22043e-02	4.11500e+02
1245	4.13964e+02	1.24500e+03	7.53029e-02	4.12500e+02
1247	4.14986e+02	1.24700e+03	6.86005e-02	4.13500e+02
1249	4.15992e+02	1.24900e+03	6.29049e-02	4.14500e+02
1251	4.17011e+02	1.25100e+03	5.73907e-02	4.15500e+02
1253	4.17987e+02	1.25300e+03	5.27713e-02	4.16500e+02
1255	4.18986e+02	1.25500e+03	4.83149e-02	4.17500e+02
1257	4.19967e+02	1.25700e+03	4.46398e-02	4.18500e+02
1259	4.20959e+02	1.25900e+03	4.10829e-02	4.19500e+02
1261	4.21957e+02	1.26100e+03	3.81617e-02	4.20500e+02
1263	4.22936e+02	1.26300e+03	3.53203e-02	4.21500e+02
1265	4.23921e+02	1.26500e+03	3.29832e-02	4.22500e+02
1267	4.24907e+02	1.26700e+03	3.07343e-02	4.23500e+02
1269	4.25895e+02	1.26900e+03	2.89351e-02	4.24500e+02
1271	4.26881e+02	1.27100e+03	2.72172e-02	4.25500e+02
1273	4.27871e+02	1.27300e+03	2.58613e-02	4.26500e+02
1275	4.28856e+02	1.27500e+03	2.45219e-02	4.27500e+02
1277	4.29851e+02	1.27700e+03	2.34299e-02	4.28500e+02
1279	4.30841e+02	1.27900e+03	2.23785e-02	4.29500e+02
1281	4.31829e+02	1.28100e+03	2.15376e-02	4.30500e+02
1283	4.32818e+02	1.28300e+03	2.07314e-02	4.31500e+02
1285	4.33801e+02	1.28500e+03	2.00991e-02	4.32500e+02
1287	4.34771e+02	1.28700e+03	1.94794e-02	4.33500e+02
1289	4.35761e+02	1.28900e+03	1.89683e-02	4.34500e+02
1291	4.36731e+02	1.29100e+03	1.84598e-02	4.35500e+02
1293	4.37714e+02	1.29300e+03	1.80194e-02	4.36500e+02
1295	4.38699e+02	1.29500e+03	1.75814e-02	4.37500e+02
1297	4.39674e+02	1.29700e+03	1.71955e-02	4.38500e+02
1299	4.40653e+02	1.29900e+03	1.68128e-02	4.39500e+02
1301	4.41630e+02	1.30100e+03	1.64651e-02	4.40500e+02
1303	4.42597e+02	1.30300e+03	1.61226e-02	4.41500e+02
1305	4.43585e+02	1.30500e+03	1.58109e-02	4.42500e+02
1307	4.44557e+02	1.30700e+03	1.55103e-02	4.43500e+02
1309	4.45541e+02	1.30900e+03	1.52680e-02	4.44500e+02
1311	4.46534e+02	1.31100e+03	1.50524e-02	4.45500e+02
1313	4.47527e+02	1.31300e+03	1.48988e-02	4.46500e+02
1315	4.48505e+02	1.31500e+03	1.47381e-02	4.47500e+02
1317	4.49490e+02	1.31700e+03	1.46120e-02	4.48500e+02
1319	4.50485e+02	1.31900e+03	1.45036e-02	4.49500e+02
1321	4.51457e+02	1.32100e+03	1.44319e-02	4.50500e+02
1323	4.52427e+02	1.32300e+03	1.43555e-02	4.51500e+02
1325	4.53406e+02	1.32500e+03	1.42756e-02	4.52500e+02
1327	4.54377e+02	1.32700e+03	1.41724e-02	4.53500e+02
1329	4.55359e+02	1.32900e+03	1.40449e-02	4.54500e+02
1331	4.56346e+02	1.33100e+03	1.39410e-02	4.55500e+02
1333	4.57339e+02	1.33300e+03	1.38608e-02	4.56500e+02
1335	4.58347e+02	1.33500e+03	1.37954e-02	4.57500e+02
1337	4.59349e+02	1.33700e+03	1.37647e-02	4.58500e+02
1339	4.60332e+02	1.33900e+03	1.37313e-02	4.59500e+02
1341	4.61320e+02	1.34100e+03	1.37108e-02	4.60500e+02
1343	4.62298e+02	1.34300e+03	1.36863e-02	4.61500e+02
1345	4.63284e+02	1.34500e+03	1.36476e-02	4.62500e+02
1347	4.64268e+02	1.34700e+03	1.35965e-02	4.63500e+02
1349	4.65257e+02	1.34900e+03	1.35240e-02	4.64500e+02
1351	4.66238e+02	1.35100e+03	1.34526e-02	4.65500e+02
1353	4.67217e+02	1.35300e+03	1.33693e-02	4.66500e+02
1355	4.68199e+02	1.35500e+03	1.32882e-02	4.67500e+02
1357	4.69188e+02	1.35700e+03	1.32175e-02	4.68500e+02
1359	4.70182e+02	1.35900e+03	1.31649e-02	4.69500e+02
1361	4.71175e+02	1.36100e+03	1.31477e-02	4.70500e+02
1363	4.72162e+02	1.36300e+03	1.31362e-02	4.71500e+02
1365	4.73146e+02	1.36500e+03	1.31573e-02	4.72500e+02
1367	4.74119e+02	1.36700e+03	1.31787e-02	4.73500e+02
1369	4.75104e+02	1.36900e+03	1.32052e-02	4.74500e+02
1371	4.76084e+02	1.37100e+03	1.32081e-02	4.75500e+02
1373	4.77066e+02	1.37300e+03	1.31737e-02	4.76500e+02
1375	4.78039e+02	1.37500e+03	1.31282e-02	4.77500e+02
1377	4.79014e+02	1.37700e+03	1.30564e-02	4.78500e+02
1379	4.79985e+02	1.37900e+03	1.30029e-02	4.79500e+02
1381	4.80972e+02	1.38100e+03	1.29577e-02	4.80500e+02
1383	4.81933e+02	1.38300e+03	1.29079e-02	4.81500e+02
1385	4.82913e+02	1.38500e+03	1.28535e-02	4.82500e+02
1387	4.83886e+02	1.38700e+03	1.27906e-02	4.83500e+02
1389	4.84858e+02	1.38900e+03	1.27147e-02	4.84500e+02
1391	4.85841e+02	1.39100e+03	1.26488e-02	4.85500e+02
1393	4.86809e+02	1.39300e+03	1.26006e-02	4.86500e+02
1395	4.87795e+02	1.39500e+03	1.25678e-02	4.87500e+02
1397	4.88785e+02	1.39700e+03	1.25645e-02	4.88500e+02
1399	4.89752e+02	1.39900e+03	1.25512e-02	4.89500e+02
1401	4.90733e+02	1.40100e+03	1.25297e-02	4.90500e+02
1403	4.91704e+02	1.40300e+03	1.24902e-02	4.91500e+02
1405	4.92674e+02	1.40500e+03	1.24086e-02	4.92500e+02
1407	4.93648e+02	1.40700e+03	1.23326e-02	4.93500e+02
1409	4.94632e+02	1.40900e+03	1.22521e-02	4.94500e+02
1411	4.95618e+02	1.41100e+03	1.21845e-02	4.95500e+02
1413	4.96601e+02	1.41300e+03	1.21351e-02	4.96500e+02
1415	4.97591e+02	1.41500e+03	1.20816e-02	4.97500e+02
1417	4.98575e+02	1.41700e+03	1.20291e-02	4.98500e+02
1419	4.99550e+02	1.41900e+03	1.19813e-02	4.99500e+02
1421	5.00539e+02	1.42100e+03	1.19344e-02	5.00500e+02
1423	5.01519e+02	1.42300e+03	1.18764e-02	5.01500e+02
1425	5.02502e+02	1.42500e+03	1.17986e-02	5.02500e+02
1427	5.03480e+02	1.42700e+03	1.17246e-02	5.03500e+02
1429	5.04473e+02	1.42900e+03	1.16706e-02	5.04500e+02
1431	5.05451e+02	1.43100e+03	1.16523e-02	5.05500e+02
1433	5.06436e+02	1.43300e+03	1.16993e-02	5.06500e+02
1435	5.07413e+02	1.43500e+03	1.17407e-02	5.07500e+02
1437	5.08403e+02	1.43700e+03	1.17892e-02	5.08500e+02
1439	5.09394e+02	1.43900e+03	1.18063e-02	5.09500e+02
1441	5.10376e+02	1.44100e+03	1.17777e-02	5.10500e+02
1443	5.11368e+02	1.44300e+03	1.17519e-02	5.11500e+02
1445	5.12341e+02	1.44500e+03	1.16933e-02	5.12500e+02
1447	5.13324e+02	1.44700e+03	1.16102e-02	5.13500e+02
1449	5.14311e+02	1.44900e+03	1.14641e-02	5.14500e+02
1451	5.15289e+02	1.45100e+03	1.13282e-02	5.15500e+02
1453	5.16277e+02	1.45300e+03	1.12442e-02	5.16500e+02
1455	5.17258e+02	1.45500e+03	1.12566e-02	5.17500e+02
1457	5.18247e+02	1.45700e+03	1.14371e-02	5.18500e+02
1459	5.19227e+02	1.45900e+03	1.15889e-02	5.19500e+02
1461	5.20219e+02	1.46100e+03	1.17330e-02	5.20500e+02
1463	5.21209e+02	1.46300e+03	1.18052e-02	5.21500e+02
1465	5.22194e+02	1.46500e+03	1.17727e-02	5.22500e+02
1467	5.23166e+02	1.46700e+03	1.17556e-02	5.23500e+02
1469	5.24161e+02	1.46900e+03	1.17087e-02	5.24500e+02
1471	5.25136e+02	1.47100e+03	1.16778e-02	5.25500e+02
1473	5.26127e+02	1.47300e+03	1.16550e-02	5.26500e+02
1475	5.27106e+02	1.47500e+03	1.16294e-02	5.27500e+02
1477	5.28107e+02	1.47700e+03	1.16061e-02	5.28500e+02
1479	5.29088e+02	1.47900e+03	1.15862e-02	5.29500e+02
1481	5.30078e+02	1.48100e+03	1.15794e-02	5.30500e+02
1483	5.31060e+02	1.48300e+03	1.15765e-02	5.31500e+02
1485	5.32042e+02	1.48500e+03	1.15797e-02	5.32500e+02
1487	5.33035e+02	1.48700e+03	1.15766e-02	5.33500e+02
1489	5.34031e+02	1.48900e+03	1.15832e-02	5.34500e+02
1491	5.35021e+02	1.49100e+03	1.16072e-02	5.35500e+02
1493	5.36004e+02	1.49300e+03	1.16463e-02	5.36500e+02
1495	5.36994e+02	1.49500e+03	1.16615e-02	5.37500e+02
1497	5.37987e+02	1.49700e+03	1.16398e-02	5.38500e+02
1499	5.38990e+02	1.49900e+03	1.16009e-02	5.39500e+02
1501	5.39981e+02	1.50100e+03	1.15342e-02	5.40500e+02
1503	5.40958e+02	1.50300e+03	1.14882e-02	5.41500e+02
1505	5.41958e+02	1.50500e+03	1.14595e-02	5.42500e+02
1507	5.42959e+02	1.50700e+03	1.14359e-02	5.43500e+02
1509	5.43958e+02	1.50900e+03	1.14316e-02	5.44500e+02
1511	5.44952e+02	1.51100e+03	1.14261e-02	5.45500e+02
1513	5.45949e+02	1.51300e+03	1.14326e-02	5.46500e+02
1515	5.46935e+02	1.51500e+03	1.14397e-02	5.47500e+02
1517	5.47949e+02	1.51700e+03	1.14517e-02	5.48500e+02
1519	5.48934e+02	1.51900e+03	1.14557e-02	5.49500e+02
1521	5.49925e+02	1.52100e+03	1.14481e-02	5.50500e+02
1523	5.50923e+02	1.52300e+03	1.14371e-02	5.51500e+02
1525	5.51912e+02	1.52500e+03	1.14136e-02	5.52500e+02
1527	5.52907e+02	1.52700e+03	1.13897e-02	5.53500e+02
1529	5.53908e+02	1.52900e+03	1.13319e-02	5.54500e+02
1531	5.54884e+02	1.53100e+03	1.12442e-02	5.55500e+02
1533	5.55867e+02	1.53300e+03	1.11250e-02	5.56500e+02
1535	5.56850e+02	1.53500e+03	1.10544e-02	5.57500e+02
1537	5.57833e+02	1.53700e+03	1.10796e-02	5.58500e+02
1539	5.58818e+02	1.53900e+03	1.11434e-02	5.59500e+02
1541	5.59815e+02	1.54100e+03	1.12825e-02	5.60500e+02
1543	5.60800e+02	1.54300e+03	1.13655e-02	5.61500e+02
1545	5.61796e+02	1.54500e+03	1.13979e-02	5.62500e+02
1547	5.62775e+02	1.54700e+03	1.14240e-02	5.63500e+02
1549	5.63764e+02	1.54900e+03	1.14227e-02	5.64500e+02
1551	5.64750e+02	1.55100e+03	1.14339e-02	5.65500e+02
1553	5.65752e+02	1.55300e+03	1.14436e-02	5.66500e+02
1555	5.66732e+02	1.55500e+03	1.14397e-02	5.67500e+02
1557	5.67741e+02	1.55700e+03	1.14132e-02	5.68500e+02
1559	5.68732e+02	1.55900e+03	1.13802e-02	5.69500e+02
1561	5.69704e+02	1.56100e+03	1.13305e-02	5.70500e+02
1563	5.70705e+02	1.56300e+03	1.12913e-02	5.71500e+02
1565	5.71697e+02	1.56500e+03	1.12609e-02	5.72500e+02
1567	5.72692e+02	1.56700e+03	1.12389e-02	5.73500e+02
1569	5.73690e+02	1.56900e+03	1.12319e-02	5.74500e+02
1571	5.74680e+02	1.57100e+03	1.12207e-02	5.75500e+02
1573	5.75665e+02	1.57300e+03	1.12163e-02	5.76500e+02
1575	5.76651e+02	1.57500e+03	1.12205e-02	5.77500e+02
1577	5.77645e+02	1.57700e+03	1.12413e-02	5.78500e+02
1579	5.78639e+02	1.57900e+03	1.12657e-02	5.79500e+02
1581	5.79620e+02	1.58100e+03	1.12946e-02	5.80500e+02
1583	5.80636e+02	1.58300e+03	1.13136e-02	5.81500e+02
1585	5.81629e+02	1.58500e+03	1.13187e-02	5.82500e+02
1587	5.82623e+02	1.58700e+03	1.13242e-02	5.83500e+02
1589	5.83623e+02	1.58900e+03	1.13262e-02	5.84500e+02
1591	5.84625e+02	1.59100e+03	1.13349e-02	5.85500e+02
1593	5.85618e+02	1.59300e+03	1.13491e-02	5.86500e+02
1595	5.86612e+02	1.59500e+03	1.13552e-02	5.87500e+02
1597	5.87596e+02	1.59700e+03	1.13491e-02	5.88500e+02
1599	5.88590e+02	1.59900e+03	1.13404e-02	5.89500e+02
1601	5.89594e+02	1.60100e+03	1.13196e-02	5.90500e+02
1603	5.90583e+02	1.60300e+03	1.13018e-02	5.91500e+02
1605	5.91561e+02	1.60500e+03	1.12778e-02	5.92500e+02
1607	5.92559e+02	1.60700e+03	1.12518e-02	5.93500e+02
1609	5.93546e+02	1.60900e+03	1.12319e-02	5.94500e+02
1611	5.94536e+02	1.61100e+03	1.12267e-02	5.95500e+02
1613	5.95513e+02	1.61300e+03	1.12380e-02	5.96500e+02
1615	5.96489e+02	1.61500e+03	1.12386e-02	5.97500e+02
1617	5.97483e+02	1.61700e+03	1.12266e-02	5.98500e+02
1619	5.98476e+02	1.61900e+03	1.12009e-02	5.99500e+02
1621	5.99451e+02	1.62100e+03	1.11425e-02	6.00500e+02
1623	6.00429e+02	1.62300e+03	1.10839e-02	6.01500e+02
1625	6.01420e+02	1.62500e+03	1.10225e-02	6.02500e+02
1627	6.02418e+02	1.62700e+03	1.09916e-02	6.03500e+02
1629	6.03388e+02	1.62900e+03	1.10092e-02	6.04500e+02
1631	6.04390e+02	1.63100e+03	1.10357e-02	6.05500e+02
1633	6.05379e+02	1.63300e+03	1.10923e-02	6.06500e+02
1635	6.06375e+02	1.63500e+03	1.11326e-02	6.07500e+02
1637	6.07371e+02	1.63700e+03	1.11574e-02	6.08500e+02
1639	6.08356e+02	1.63900e+03	1.11745e-02	6.09500e+02
1641	6.09344e+02	1.64100e+03	1.11791e-02	6.10500e+02
1643	6.10342e+02	1.64300e+03	1.11974e-02	6.11500e+02
1645	6.11329e+02	1.64500e+03	1.12191e-02	6.12500e+02
1647	6.12321e+02	1.64700e+03	1.12303e-02	6.13500e+02
1649	6.13317e+02	1.64900e+03	1.12172e-02	6.14500e+02
1651	6.14315e+02	1.65100e+03	1.12055e-02	6.15500e+02
1653	6.15316e+02	1.65300e+03	1.11868e-02	6.16500e+02
1655	6.16299e+02	1.65500e+03	1.11798e-02	6.17500e+02
1657	6.17279e+02	1.65700e+03	1.11766e-02	6.18500e+02
1659	6.18268e+02	1.65900e+03	1.11629e-02	6.19500e+02
1661	6.19261e+02	1.66100e+03	1.11328e-02	6.20500e+02
1663	6.20259e+02	1.66300e+03	1.11077e-02	6.21500e+02
1665	6.21256e+02	1.66500e+03	1.10872e-02	6.22500e+02
1667	6.22239e+02	1.66700e+03	1.10724e-02	6.23500e+02
1669	6.23238e+02	1.66900e+03	1.10729e-02	6.24500e+02
1671	6.24239e+02	1.67100e+03	1.10787e-02	6.25500e+02
1673	6.25248e+02	1.67300e+03	1.10942e-02	6.26500e+02
1675	6.26261e+02	1.67500e+03	1.11030e-02	6.27500e+02
1677	6.27261e+02	1.67700e+03	1.10981e-02	6.28500e+02
1679	6.28232e+02	1.67900e+03	1.10819e-02	6.29500e+02
1681	6.29231e+02	1.68100e+03	1.10473e-02	6.30500e+02
1683	6.30229e+02	1.68300e+03	1.10167e-02	6.31500e+02
1685	6.31234e+02	1.68500e+03	1.09911e-02	6.32500e+02
1687	6.32242e+02	1.68700e+03	1.09787e-02	6.33500e+02
1689	6.33244e+02	1.68900e+03	1.09820e-02	6.34500e+02
1691	6.34252e+02	1.69100e+03	1.09875e-02	6.35500e+02
1693	6.35248e+02	1.69300e+03	1.10077e-02	6.36500e+02
1695	6.36252e+02	1.69500e+03	1.10324e-02	6.37500e+02
1697	6.37246e+02	1.69700e+03	1.10741e-02	6.38500e+02
1699	6.38236e+02	1.69900e+03	1.11093e-02	6.39500e+02
1701	6.39251e+02	1.70100e+03	1.11297e-02	6.40500e+02
1703	6.40239e+02	1.70300e+03	1.11381e-02	6.41500e+02
1705	6.41236e+02	1.70500e+03	1.11225e-02	6.42500e+02
1707	6.42241e+02	1.70700e+03	1.11087e-02	6.43500e+02
1709	6.43252e+02	1.70900e+03	1.10792e-02	6.44500e+02
1711	6.44241e+02	1.71100e+03	1.10480e-02	6.45500e+02
1713	6.45249e+02	1.71300e+03	1.10155e-02	6.46500e+02
1715	6.46238e+02	1.71500e+03	1.09996e-02	6.47500e+02
1717	6.47219e+02	1.71700e+03	1.09811e-02	6.48500e+02
1719	6.48211e+02	1.71900e+03	1.09180e-02	6.49500e+02
1721	6.49188e+02	1.72100e+03	1.07858e-02	6.50500e+02
1723	6.50163e+02	1.72300e+03	1.06586e-02	6.51500e+02
1725	6.51158e+02	1.72500e+03	1.05766e-02	6.52500e+02
1727	6.52153e+02	1.72700e+03	1.05908e-02	6.53500e+02
1729	6.53138e+02	1.72900e+03	1.07655e-02	6.54500e+02
1731	6.54129e+02	1.73100e+03	1.09199e-02	6.55500e+02
1733	6.55134e+02	1.73300e+03	1.10921e-02	6.56500e+02
1735	6.56147e+02	1.73500e+03	1.12057e-02	6.57500e+02
1737	6.57141e+02	1.73700e+03	1.12214e-02	6.58500e+02
1739	6.58149e+02	1.73900e+03	1.12114e-02	6.59500e+02
1741	6.59155e+02	1.74100e+03	1.11056e-02	6.60500e+02
1743	6.60164e+02	1.74300e+03	1.10082e-02	6.61500e+02
1745	6.61172e+02	1.74500e+03	1.08955e-02	6.62500e+02
1747	6.62184e+02	1.74700e+03	1.08148e-02	6.63500e+02
1749	6.63191e+02	1.74900e+03	1.07838e-02	6.64500e+02
1751	6.64199e+02	1.75100e+03	1.07632e-02	6.65500e+02
1753	6.65199e+02	1.75300e+03	1.07899e-02	6.66500e+02
1755	6.66191e+02	1.75500e+03	1.08187e-02	6.67500e+02
1757	6.67180e+02	1.75700e+03	1.08711e-02	6.68500e+02
1759	6.68165e+02	1.75900e+03	1.09059e-02	6.69500e+02
1761	6.69160e+02	1.76100e+03	1.09134e-02	6.70500e+02
1763	6.70159e+02	1.76300e+03	1.09047e-02	6.71500e+02
1765	6.71151e+02	1.76500e+03	1.08602e-02	6.72500e+02
1767	6.72153e+02	1.76700e+03	1.08276e-02	6.73500e+02
1769	6.73143e+02	1.76900e+03	1.08123e-02	6.74500e+02
1771	6.74134e+02	1.77100e+03	1.08201e-02	6.75500e+02
1773	6.75125e+02	1.77300e+03	1.08546e-02	6.76500e+02
1775	6.76108e+02	1.77500e+03	1.08696e-02	6.77500e+02
1777	6.77103e+02	1.77700e+03	1.08685e-02	6.78500e+02
1779	6.78089e+02	1.77900e+03	1.08581e-02	6.79500e+02
1781	6.79089e+02	1.78100e+03	1.08225e-02	6.80500e+02
1783	6.80086e+02	1.78300e+03	1.07713e-02	6.81500e+02
1785	6.81091e+02	1.78500e+03	1.06719e-02	6.82500e+02
1787	6.82093e+02	1.78700e+03	1.05601e-02	6.83500e+02
1789	6.83096e+02	1.78900e+03	1.04441e-02	6.84500e+02
1791	6.84085e+02	1.79100e+03	1.04047e-02	6.85500e+02
1793	6.85097e+02	1.79300e+03	1.05199e-02	6.86500e+02
1795	6.85768e+02	1.79500e+03	1.06688e-02	6.87500e+02
1797	6.86243e+02	1.79700e+03	1.09005e-02	6.88500e+02
1799	6.87002e+02	1.79900e+03	1.10475e-02	6.89500e+02
1801	6.87730e+02	1.80100e+03	1.10993e-02	6.90500e+02
1803	6.88419e+02	1.80300e+03	1.11103e-02	6.91500e+02
1805	6.89055e+02	1.80500e+03	1.10299e-02	6.92500e+02
1807	6.89652e+02	1.80700e+03	1.09543e-02	6.93500e+02
1809	6.90221e+02	1.80900e+03	1.08469e-02	6.94500e+02
1811	6.90749e+02	1.81100e+03	1.07614e-02	6.95500e+02
1813	6.91242e+02	1.81300e+03	1.07024e-02	6.96500e+02
1815	6.91716e+02	1.81500e+03	1.06667e-02	6.97500e+02
1817	6.92168e+02	1.81700e+03	1.06778e-02	6.98500e+02
1819	6.92587e+02	1.81900e+03	1.06926e-02	6.99500e+02
1820	6.92794e+02	1.82000e+03	1.07146e-02	7.00000e+02