File: Experiments/TUBS/tga_nonisotherm/tga_dynamic_n2_dyn30_powder_12mg_r3.txt
index	ts	t	weight	tr
[#]	[°C]	[s]	[mg]	[°C]
683	1.30824e+02	6.83000e+02	1.20573e+01	1.31500e+02
685	1.31824e+02	6.85000e+02	1.20570e+01	1.32500e+02
687	1.32852e+02	6.87000e+02	1.20568e+01	1.33500e+02
689	1.33844e+02	6.89000e+02	1.20565e+01	1.34500e+02
691	1.34854e+02	6.91000e+02	1.20562e+01	1.35500e+02
693	1.35851e+02	6.93000e+02	1.20558e+01	1.36500e+02
695	1.36858e+02	6.95000e+02	1.20554e+01	1.37500e+02
697	1.37875e+02	6.97000e+02	1.20549e+01	1.38500e+02
699	1.38871e+02	6.99000e+02	1.20545e+01	1.39500e+02
701	1.39871e+02	7.01000e+02	1.20540e+01	1.40500e+02
703	1.40892e+02	7.03000e+02	1.20534e+01	1.41500e+02
705	1.41885e+02	7.05000e+02	1.20527e+01	1.42500e+02
707	1.42887e+02	7.07000e+02	1.20521e+01	1.43500e+02
709	1.43898e+02	7.09000e+02	1.20513e+01	1.44500e+02
711	1.44900e+02	7.11000e+02	1.20505e+01	1.45500e+02
713	1.45897e+02	7.13000e+02	1.20497e+01	1.46500e+02
715	1.46919e+02	7.15000e+02	1.20488e+01	1.47500e+02
717	1.47919e+02	7.17000e+02	1.20478e+01	1.48500e+02
719	1.48919e+02	7.19000e+02	1.20468e+01	1.49500e+02
721	1.49940e+02	7.21000e+02	1.20456e+01	1.50500e+02
723	1.50943e+02	7.23000e+02	1.20444e+01	1.51500e+02
725	1.51947e+02	7.25000e+02	1.20431e+01	1.52500e+02
727	1.52949e+02	7.27000e+02	1.20417e+01	1.53500e+02
729	1.53954e+02	7.29000e+02	1.20403e+01	1.54500e+02
731	1.54960e+02	7.31000e+02	1.20389e+01	1.55500e+02
733	1.55967e+02	7.33000e+02	1.20373e+01	1.56500e+02
735	1.56969e+02	7.35000e+02	1.20357e+01	1.57500e+02
737	1.57983e+02	7.37000e+02	1.20341e+01	1.58500e+02
739	1.58993e+02	7.39000e+02	1.20324e+01	1.59500e+02
741	1.60005e+02	7.41000e+02	1.20306e+01	1.60500e+02
743	1.61020e+02	7.43000e+02	1.20288e+01	1.61500e+02
745	1.62020e+02	7.45000e+02	1.20269e+01	1.62500e+02
747	1.63041e+02	7.47000e+02	1.20249e+01	1.63500e+02
749	1.64048e+02	7.49000e+02	1.20229e+01	1.64500e+02
751	1.65054e+02	7.51000e+02	1.20208e+01	1.65500e+02
753	1.66061e+02	7.53000e+02	1.20186e+01	1.66500e+02
755	1.67066e+02	7.55000e+02	1.20163e+01	1.67500e+02
757	1.68092e+02	7.57000e+02	1.20139e+01	1.68500e+02
759	1.69090e+02	7.59000e+02	1.20114e+01	1.69500e+02
761	1.70101e+02	7.61000e+02	1.20086e+01	1.70500e+02
763	1.71104e+02	7.63000e+02	1.20058e+01	1.71500e+02
765	1.72121e+02	7.65000e+02	1.20026e+01	1.72500e+02
767	1.73123e+02	7.67000e+02	1.19994e+01	1.73500e+02
769	1.74143e+02	7.69000e+02	1.19958e+01	1.74500e+02
771	1.75147e+02	7.71000e+02	1.19921e+01	1.75500e+02
773	1.76157e+02	7.73000e+02	1.19878e+01	1.76500e+02
775	1.77155e+02	7.75000e+02	1.19834e+01	1.77500e+02
777	1.78173e+02	7.77000e+02	1.19784e+01	1.78500e+02
779	1.79172e+02	7.79000e+02	1.19732e+01	1.79500e+02
781	1.80180e+02	7.81000e+02	1.19672e+01	1.80500e+02
783	1.81185e+02	7.83000e+02	1.19610e+01	1.81500e+02
785	1.82190e+02	7.85000e+02	1.19540e+01	1.82500e+02
787	1.83193e+02	7.87000e+02	1.19467e+01	1.83500e+02
789	1.84196e+02	7.89000e+02	1.19385e+01	1.84500e+02
791	1.85217e+02	7.91000e+02	1.19300e+01	1.85500e+02
793	1.86207e+02	7.93000e+02	1.19205e+01	1.86500e+02
795	1.87222e+02	7.95000e+02	1.19107e+01	1.87500e+02
797	1.88228e+02	7.97000e+02	1.18999e+01	1.88500e+02
799	1.89238e+02	7.99000e+02	1.18889e+01	1.89500e+02
801	1.90248e+02	8.01000e+02	1.18770e+01	1.90500e+02
803	1.91267e+02	8.03000e+02	1.18649e+01	1.91500e+02
805	1.92268e+02	8.05000e+02	1.18520e+01	1.92500e+02
807	1.93294e+02	8.07000e+02	1.18388e+01	1.93500e+02
809	1.94297e+02	8.09000e+02	1.18251e+01	1.94500e+02
811	1.95318e+02	8.11000e+02	1.18112e+01	1.95500e+02
813	1.96330e+02	8.13000e+02	1.17970e+01	1.96500e+02
815	1.97336e+02	8.15000e+02	1.17827e+01	1.97500e+02
817	1.98357e+02	8.17000e+02	1.17682e+01	1.98500e+02
819	1.99380e+02	8.19000e+02	1.17538e+01	1.99500e+02
821	2.00393e+02	8.21000e+02	1.17394e+01	2.00500e+02
823	2.01407e+02	8.23000e+02	1.17250e+01	2.01500e+02
825	2.02444e+02	8.25000e+02	1.17110e+01	2.02500e+02
827	2.03469e+02	8.27000e+02	1.16971e+01	2.03500e+02
829	2.04506e+02	8.29000e+02	1.16839e+01	2.04500e+02
831	2.05521e+02	8.31000e+02	1.16709e+01	2.05500e+02
833	2.06540e+02	8.33000e+02	1.16588e+01	2.06500e+02
835	2.07549e+02	8.35000e+02	1.16470e+01	2.07500e+02
837	2.08582e+02	8.37000e+02	1.16362e+01	2.08500e+02
839	2.09605e+02	8.39000e+02	1.16258e+01	2.09500e+02
841	2.10627e+02	8.41000e+02	1.16165e+01	2.10500e+02
843	2.11653e+02	8.43000e+02	1.16075e+01	2.11500e+02
845	2.12683e+02	8.45000e+02	1.15998e+01	2.12500e+02
847	2.13700e+02	8.47000e+02	1.15923e+01	2.13500e+02
849	2.14744e+02	8.49000e+02	1.15860e+01	2.14500e+02
851	2.15764e+02	8.51000e+02	1.15799e+01	2.15500e+02
853	2.16822e+02	8.53000e+02	1.15748e+01	2.16500e+02
855	2.17864e+02	8.55000e+02	1.15699e+01	2.17500e+02
857	2.18884e+02	8.57000e+02	1.15656e+01	2.18500e+02
859	2.19935e+02	8.59000e+02	1.15614e+01	2.19500e+02
861	2.21008e+02	8.61000e+02	1.15577e+01	2.20500e+02
863	2.22091e+02	8.63000e+02	1.15540e+01	2.21500e+02
865	2.23139e+02	8.65000e+02	1.15507e+01	2.22500e+02
867	2.24170e+02	8.67000e+02	1.15474e+01	2.23500e+02
869	2.25206e+02	8.69000e+02	1.15442e+01	2.24500e+02
871	2.26228e+02	8.71000e+02	1.15410e+01	2.25500e+02
873	2.27247e+02	8.73000e+02	1.15379e+01	2.26500e+02
875	2.28260e+02	8.75000e+02	1.15347e+01	2.27500e+02
877	2.29283e+02	8.77000e+02	1.15316e+01	2.28500e+02
879	2.30308e+02	8.79000e+02	1.15285e+01	2.29500e+02
881	2.31341e+02	8.81000e+02	1.15253e+01	2.30500e+02
883	2.32401e+02	8.83000e+02	1.15222e+01	2.31500e+02
885	2.33433e+02	8.85000e+02	1.15190e+01	2.32500e+02
887	2.34502e+02	8.87000e+02	1.15159e+01	2.33500e+02
889	2.35527e+02	8.89000e+02	1.15128e+01	2.34500e+02
891	2.36545e+02	8.91000e+02	1.15097e+01	2.35500e+02
893	2.37562e+02	8.93000e+02	1.15067e+01	2.36500e+02
895	2.38576e+02	8.95000e+02	1.15036e+01	2.37500e+02
897	2.39632e+02	8.97000e+02	1.15006e+01	2.38500e+02
899	2.40670e+02	8.99000e+02	1.14976e+01	2.39500e+02
901	2.41688e+02	9.01000e+02	1.14947e+01	2.40500e+02
903	2.42718e+02	9.03000e+02	1.14918e+01	2.41500e+02
905	2.43737e+02	9.05000e+02	1.14890e+01	2.42500e+02
907	2.44733e+02	9.07000e+02	1.14863e+01	2.43500e+02
909	2.45751e+02	9.09000e+02	1.14837e+01	2.44500e+02
911	2.46750e+02	9.11000e+02	1.14811e+01	2.45500e+02
913	2.47753e+02	9.13000e+02	1.14785e+01	2.46500e+02
915	2.48751e+02	9.15000e+02	1.14761e+01	2.47500e+02
917	2.49755e+02	9.17000e+02	1.14737e+01	2.48500e+02
919	2.50758e+02	9.19000e+02	1.14714e+01	2.49500e+02
921	2.51768e+02	9.21000e+02	1.14692e+01	2.50500e+02
923	2.52781e+02	9.23000e+02	1.14671e+01	2.51500e+02
925	2.53791e+02	9.25000e+02	1.14651e+01	2.52500e+02
927	2.54800e+02	9.27000e+02	1.14630e+01	2.53500e+02
929	2.55830e+02	9.29000e+02	1.14610e+01	2.54500e+02
931	2.56847e+02	9.31000e+02	1.14590e+01	2.55500e+02
933	2.57866e+02	9.33000e+02	1.14570e+01	2.56500e+02
935	2.58865e+02	9.35000e+02	1.14550e+01	2.57500e+02
937	2.59875e+02	9.37000e+02	1.14531e+01	2.58500e+02
939	2.60898e+02	9.39000e+02	1.14511e+01	2.59500e+02
941	2.61923e+02	9.41000e+02	1.14492e+01	2.60500e+02
943	2.62962e+02	9.43000e+02	1.14473e+01	2.61500e+02
945	2.63987e+02	9.45000e+02	1.14454e+01	2.62500e+02
947	2.65041e+02	9.47000e+02	1.14435e+01	2.63500e+02
949	2.66098e+02	9.49000e+02	1.14416e+01	2.64500e+02
951	2.67123e+02	9.51000e+02	1.14396e+01	2.65500e+02
953	2.68149e+02	9.53000e+02	1.14376e+01	2.66500e+02
955	2.69171e+02	9.55000e+02	1.14356e+01	2.67500e+02
957	2.70217e+02	9.57000e+02	1.14334e+01	2.68500e+02
959	2.71225e+02	9.59000e+02	1.14313e+01	2.69500e+02
961	2.72269e+02	9.61000e+02	1.14290e+01	2.70500e+02
963	2.73324e+02	9.63000e+02	1.14266e+01	2.71500e+02
965	2.74408e+02	9.65000e+02	1.14242e+01	2.72500e+02
967	2.75402e+02	9.67000e+02	1.14217e+01	2.73500e+02
969	2.76451e+02	9.69000e+02	1.14190e+01	2.74500e+02
971	2.77562e+02	9.71000e+02	1.14163e+01	2.75500e+02
973	2.78621e+02	9.73000e+02	1.14134e+01	2.76500e+02
975	2.79674e+02	9.75000e+02	1.14104e+01	2.77500e+02
977	2.80685e+02	9.77000e+02	1.14071e+01	2.78500e+02
979	2.81739e+02	9.79000e+02	1.14037e+01	2.79500e+02
981	2.82798e+02	9.81000e+02	1.14001e+01	2.80500e+02
983	2.83859e+02	9.83000e+02	1.13963e+01	2.81500e+02
985	2.84962e+02	9.85000e+02	1.13923e+01	2.82500e+02
987	2.86009e+02	9.87000e+02	1.13882e+01	2.83500e+02
989	2.87028e+02	9.89000e+02	1.13836e+01	2.84500e+02
991	2.88045e+02	9.91000e+02	1.13790e+01	2.85500e+02
993	2.89048e+02	9.93000e+02	1.13738e+01	2.86500e+02
995	2.90039e+02	9.95000e+02	1.13685e+01	2.87500e+02
997	2.91081e+02	9.97000e+02	1.13626e+01	2.88500e+02
999	2.92105e+02	9.99000e+02	1.13566e+01	2.89500e+02
1001	2.93076e+02	1.00100e+03	1.13500e+01	2.90500e+02
1003	2.94116e+02	1.00300e+03	1.13432e+01	2.91500e+02
1005	2.95160e+02	1.00500e+03	1.13357e+01	2.92500e+02
1007	2.96180e+02	1.00700e+03	1.13280e+01	2.93500e+02
1009	2.97200e+02	1.00900e+03	1.13196e+01	2.94500e+02
1011	2.98209e+02	1.01100e+03	1.13110e+01	2.95500e+02
1013	2.99219e+02	1.01300e+03	1.13016e+01	2.96500e+02
1015	3.00233e+02	1.01500e+03	1.12921e+01	2.97500e+02
1017	3.01244e+02	1.01700e+03	1.12817e+01	2.98500e+02
1019	3.02231e+02	1.01900e+03	1.12712e+01	2.99500e+02
1021	3.03214e+02	1.02100e+03	1.12598e+01	3.00500e+02
1023	3.04282e+02	1.02300e+03	1.12483e+01	3.01500e+02
1025	3.05305e+02	1.02500e+03	1.12360e+01	3.02500e+02
1027	3.06313e+02	1.02700e+03	1.12236e+01	3.03500e+02
1029	3.07352e+02	1.02900e+03	1.12104e+01	3.04500e+02
1031	3.08357e+02	1.03100e+03	1.11970e+01	3.05500e+02
1033	3.09430e+02	1.03300e+03	1.11829e+01	3.06500e+02
1035	3.10439e+02	1.03500e+03	1.11686e+01	3.07500e+02
1037	3.11471e+02	1.03700e+03	1.11537e+01	3.08500e+02
1039	3.12488e+02	1.03900e+03	1.11387e+01	3.09500e+02
1041	3.13573e+02	1.04100e+03	1.11231e+01	3.10500e+02
1043	3.14716e+02	1.04300e+03	1.11074e+01	3.11500e+02
1045	3.15695e+02	1.04500e+03	1.10912e+01	3.12500e+02
1047	3.16701e+02	1.04700e+03	1.10750e+01	3.13500e+02
1049	3.17749e+02	1.04900e+03	1.10584e+01	3.14500e+02
1051	3.18804e+02	1.05100e+03	1.10418e+01	3.15500e+02
1053	3.19962e+02	1.05300e+03	1.10249e+01	3.16500e+02
1055	3.21075e+02	1.05500e+03	1.10080e+01	3.17500e+02
1057	3.22180e+02	1.05700e+03	1.09909e+01	3.18500e+02
1059	3.23242e+02	1.05900e+03	1.09738e+01	3.19500e+02
1061	3.24307e+02	1.06100e+03	1.09565e+01	3.20500e+02
1063	3.25323e+02	1.06300e+03	1.09391e+01	3.21500e+02
1065	3.26332e+02	1.06500e+03	1.09214e+01	3.22500e+02
1067	3.27362e+02	1.06700e+03	1.09036e+01	3.23500e+02
1069	3.28417e+02	1.06900e+03	1.08853e+01	3.24500e+02
1071	3.29409e+02	1.07100e+03	1.08668e+01	3.25500e+02
1073	3.30425e+02	1.07300e+03	1.08477e+01	3.26500e+02
1075	3.31470e+02	1.07500e+03	1.08281e+01	3.27500e+02
1077	3.32451e+02	1.07700e+03	1.08076e+01	3.28500e+02
1079	3.33458e+02	1.07900e+03	1.07866e+01	3.29500e+02
1081	3.34449e+02	1.08100e+03	1.07641e+01	3.30500e+02
1083	3.35440e+02	1.08300e+03	1.07412e+01	3.31500e+02
1085	3.36432e+02	1.08500e+03	1.07164e+01	3.32500e+02
1087	3.37436e+02	1.08700e+03	1.06910e+01	3.33500e+02
1089	3.38495e+02	1.08900e+03	1.06634e+01	3.34500e+02
1091	3.39499e+02	1.09100e+03	1.06352e+01	3.35500e+02
1093	3.40527e+02	1.09300e+03	1.06043e+01	3.36500e+02
1095	3.41530e+02	1.09500e+03	1.05726e+01	3.37500e+02
1097	3.42535e+02	1.09700e+03	1.05379e+01	3.38500e+02
1099	3.43566e+02	1.09900e+03	1.05023e+01	3.39500e+02
1101	3.44543e+02	1.10100e+03	1.04634e+01	3.40500e+02
1103	3.45470e+02	1.10300e+03	1.04235e+01	3.41500e+02
1105	3.46511e+02	1.10500e+03	1.03798e+01	3.42500e+02
1107	3.47610e+02	1.10700e+03	1.03351e+01	3.43500e+02
1109	3.48660e+02	1.10900e+03	1.02863e+01	3.44500e+02
1111	3.49700e+02	1.11100e+03	1.02363e+01	3.45500e+02
1113	3.50835e+02	1.11300e+03	1.01821e+01	3.46500e+02
1115	3.51862e+02	1.11500e+03	1.01261e+01	3.47500e+02
1117	3.52851e+02	1.11700e+03	1.00661e+01	3.48500e+02
1119	3.53934e+02	1.11900e+03	1.00039e+01	3.49500e+02
1121	3.55077e+02	1.12100e+03	9.93834e+00	3.50500e+02
1123	3.56079e+02	1.12300e+03	9.87017e+00	3.51500e+02
1125	3.56956e+02	1.12500e+03	9.79657e+00	3.52500e+02
1127	3.57852e+02	1.12700e+03	9.72021e+00	3.53500e+02
1129	3.58839e+02	1.12900e+03	9.64091e+00	3.54500e+02
1131	3.59738e+02	1.13100e+03	9.55920e+00	3.55500e+02
1133	3.60606e+02	1.13300e+03	9.47193e+00	3.56500e+02
1135	3.61453e+02	1.13500e+03	9.38279e+00	3.57500e+02
1137	3.62319e+02	1.13700e+03	9.28847e+00	3.58500e+02
1139	3.63203e+02	1.13900e+03	9.19207e+00	3.59500e+02
1141	3.64147e+02	1.14100e+03	9.09048e+00	3.60500e+02
1143	3.65082e+02	1.14300e+03	8.98577e+00	3.61500e+02
1145	3.66044e+02	1.14500e+03	8.87838e+00	3.62500e+02
1147	3.66996e+02	1.14700e+03	8.76862e+00	3.63500e+02
1149	3.67928e+02	1.14900e+03	8.65255e+00	3.64500e+02
1151	3.68851e+02	1.15100e+03	8.53615e+00	3.65500e+02
1153	3.69759e+02	1.15300e+03	8.41536e+00	3.66500e+02
1155	3.70695e+02	1.15500e+03	8.29362e+00	3.67500e+02
1157	3.71620e+02	1.15700e+03	8.16782e+00	3.68500e+02
1159	3.72584e+02	1.15900e+03	8.04133e+00	3.69500e+02
1161	3.73519e+02	1.16100e+03	7.91123e+00	3.70500e+02
1163	3.74444e+02	1.16300e+03	7.78059e+00	3.71500e+02
1165	3.75398e+02	1.16500e+03	7.64700e+00	3.72500e+02
1167	3.76340e+02	1.16700e+03	7.51294e+00	3.73500e+02
1169	3.77236e+02	1.16900e+03	7.37631e+00	3.74500e+02
1171	3.78213e+02	1.17100e+03	7.23894e+00	3.75500e+02
1173	3.79153e+02	1.17300e+03	7.09840e+00	3.76500e+02
1175	3.80106e+02	1.17500e+03	6.95661e+00	3.77500e+02
1177	3.81087e+02	1.17700e+03	6.81095e+00	3.78500e+02
1179	3.82092e+02	1.17900e+03	6.66344e+00	3.79500e+02
1181	3.83117e+02	1.18100e+03	6.51172e+00	3.80500e+02
1183	3.84318e+02	1.18300e+03	6.35900e+00	3.81500e+02
1185	3.85239e+02	1.18500e+03	6.20257e+00	3.82500e+02
1187	3.86327e+02	1.18700e+03	6.04587e+00	3.83500e+02
1189	3.87219e+02	1.18900e+03	5.88629e+00	3.84500e+02
1191	3.88161e+02	1.19100e+03	5.72613e+00	3.85500e+02
1193	3.89049e+02	1.19300e+03	5.56317e+00	3.86500e+02
1195	3.90025e+02	1.19500e+03	5.39935e+00	3.87500e+02
1197	3.90938e+02	1.19700e+03	5.23231e+00	3.88500e+02
1199	3.91887e+02	1.19900e+03	5.06440e+00	3.89500e+02
1201	3.92885e+02	1.20100e+03	4.89007e+00	3.90500e+02
1203	3.93879e+02	1.20300e+03	4.71537e+00	3.91500e+02
1205	3.94820e+02	1.20500e+03	4.53733e+00	3.92500e+02
1207	3.95764e+02	1.20700e+03	4.35926e+00	3.93500e+02
1209	3.96754e+02	1.20900e+03	4.17975e+00	3.94500e+02
1211	3.97850e+02	1.21100e+03	4.00088e+00	3.95500e+02
1213	3.98790e+02	1.21300e+03	3.82264e+00	3.96500e+02
1215	3.99805e+02	1.21500e+03	3.64493e+00	3.97500e+02
1217	4.00920e+02	1.21700e+03	3.46797e+00	3.98500e+02
1219	4.01897e+02	1.21900e+03	3.29056e+00	3.99500e+02
1221	4.02961e+02	1.22100e+03	3.11308e+00	4.00500e+02
1223	4.03863e+02	1.22300e+03	2.93595e+00	4.01500e+02
1225	4.04924e+02	1.22500e+03	2.75987e+00	4.02500e+02
1227	4.05921e+02	1.22700e+03	2.58513e+00	4.03500e+02
1229	4.06967e+02	1.22900e+03	2.41342e+00	4.04500e+02
1231	4.08081e+02	1.23100e+03	2.24280e+00	4.05500e+02
1233	4.09204e+02	1.23300e+03	2.07895e+00	4.06500e+02
1235	4.10164e+02	1.23500e+03	1.91830e+00	4.07500e+02
1237	4.11131e+02	1.23700e+03	1.76430e+00	4.08500e+02
1239	4.12244e+02	1.23900e+03	1.61715e+00	4.09500e+02
1241	4.13295e+02	1.24100e+03	1.48068e+00	4.10500e+02
1243	4.14346e+02	1.24300e+03	1.35074e+00	4.11500e+02
1245	4.15328e+02	1.24500e+03	1.23192e+00	4.12500e+02
1247	4.16448e+02	1.24700e+03	1.12014e+00	4.13500e+02
1249	4.17550e+02	1.24900e+03	1.01962e+00	4.14500e+02
1251	4.18802e+02	1.25100e+03	9.25563e-01	4.15500e+02
1253	4.20198e+02	1.25300e+03	8.41519e-01	4.16500e+02
1255	4.21540e+02	1.25500e+03	7.63125e-01	4.17500e+02
1257	4.22708e+02	1.25700e+03	6.93524e-01	4.18500e+02
1259	4.23683e+02	1.25900e+03	6.30077e-01	4.19500e+02
1261	4.24929e+02	1.26100e+03	5.71464e-01	4.20500e+02
1263	4.25951e+02	1.26300e+03	5.18752e-01	4.21500e+02
1265	4.27100e+02	1.26500e+03	4.72029e-01	4.22500e+02
1267	4.28029e+02	1.26700e+03	4.28157e-01	4.23500e+02
1269	4.28968e+02	1.26900e+03	3.90757e-01	4.24500e+02
1271	4.29865e+02	1.27100e+03	3.55515e-01	4.25500e+02
1273	4.30924e+02	1.27300e+03	3.25904e-01	4.26500e+02
1275	4.32079e+02	1.27500e+03	2.99368e-01	4.27500e+02
1277	4.33148e+02	1.27700e+03	2.76284e-01	4.28500e+02
1279	4.34140e+02	1.27900e+03	2.54523e-01	4.29500e+02
1281	4.35016e+02	1.28100e+03	2.36833e-01	4.30500e+02
1283	4.36015e+02	1.28300e+03	2.19882e-01	4.31500e+02
1285	4.36942e+02	1.28500e+03	2.06447e-01	4.32500e+02
1287	4.37938e+02	1.28700e+03	1.93483e-01	4.33500e+02
1289	4.38954e+02	1.28900e+03	1.83285e-01	4.34500e+02
1291	4.39917e+02	1.29100e+03	1.73431e-01	4.35500e+02
1293	4.40900e+02	1.29300e+03	1.65688e-01	4.36500e+02
1295	4.41920e+02	1.29500e+03	1.58188e-01	4.37500e+02
1297	4.42887e+02	1.29700e+03	1.52296e-01	4.38500e+02
1299	4.43893e+02	1.29900e+03	1.46608e-01	4.39500e+02
1301	4.44869e+02	1.30100e+03	1.42163e-01	4.40500e+02
1303	4.45822e+02	1.30300e+03	1.37862e-01	4.41500e+02
1305	4.46822e+02	1.30500e+03	1.34492e-01	4.42500e+02
1307	4.47826e+02	1.30700e+03	1.31221e-01	4.43500e+02
1309	4.48852e+02	1.30900e+03	1.28636e-01	4.44500e+02
1311	4.49842e+02	1.31100e+03	1.26141e-01	4.45500e+02
1313	4.50826e+02	1.31300e+03	1.24181e-01	4.46500e+02
1315	4.51812e+02	1.31500e+03	1.22295e-01	4.47500e+02
1317	4.52864e+02	1.31700e+03	1.20822e-01	4.48500e+02
1319	4.53910e+02	1.31900e+03	1.19387e-01	4.49500e+02
1321	4.54777e+02	1.32100e+03	1.18235e-01	4.50500e+02
1323	4.55676e+02	1.32300e+03	1.17104e-01	4.51500e+02
1325	4.56643e+02	1.32500e+03	1.16177e-01	4.52500e+02
1327	4.57753e+02	1.32700e+03	1.15300e-01	4.53500e+02
1329	4.58653e+02	1.32900e+03	1.14639e-01	4.54500e+02
1331	4.59543e+02	1.33100e+03	1.14042e-01	4.55500e+02
1333	4.60490e+02	1.33300e+03	1.13654e-01	4.56500e+02
1335	4.61369e+02	1.33500e+03	1.13276e-01	4.57500e+02
1337	4.62259e+02	1.33700e+03	1.13045e-01	4.58500e+02
1339	4.63221e+02	1.33900e+03	1.12820e-01	4.59500e+02
1341	4.64144e+02	1.34100e+03	1.12682e-01	4.60500e+02
1343	4.65065e+02	1.34300e+03	1.12543e-01	4.61500e+02
1345	4.66063e+02	1.34500e+03	1.12439e-01	4.62500e+02
1347	4.67086e+02	1.34700e+03	1.12327e-01	4.63500e+02
1349	4.68228e+02	1.34900e+03	1.12226e-01	4.64500e+02
1351	4.69392e+02	1.35100e+03	1.12128e-01	4.65500e+02
1353	4.70727e+02	1.35300e+03	1.12044e-01	4.66500e+02
1355	4.72351e+02	1.35500e+03	1.11961e-01	4.67500e+02
1357	4.73545e+02	1.35700e+03	1.11891e-01	4.68500e+02
1359	4.74676e+02	1.35900e+03	1.11826e-01	4.69500e+02
1361	4.75444e+02	1.36100e+03	1.11777e-01	4.70500e+02
1363	4.76389e+02	1.36300e+03	1.11728e-01	4.71500e+02
1365	4.77433e+02	1.36500e+03	1.11688e-01	4.72500e+02
1367	4.78575e+02	1.36700e+03	1.11649e-01	4.73500e+02
1369	4.79675e+02	1.36900e+03	1.11608e-01	4.74500e+02
1371	4.80388e+02	1.37100e+03	1.11568e-01	4.75500e+02
1373	4.81280e+02	1.37300e+03	1.11525e-01	4.76500e+02
1375	4.82080e+02	1.37500e+03	1.11476e-01	4.77500e+02
1377	4.82877e+02	1.37700e+03	1.11417e-01	4.78500e+02
1379	4.83999e+02	1.37900e+03	1.11361e-01	4.79500e+02
1381	4.84983e+02	1.38100e+03	1.11319e-01	4.80500e+02
1383	4.86143e+02	1.38300e+03	1.11288e-01	4.81500e+02
1385	4.87159e+02	1.38500e+03	1.11265e-01	4.82500e+02
1387	4.88046e+02	1.38700e+03	1.11221e-01	4.83500e+02
1389	4.88790e+02	1.38900e+03	1.11156e-01	4.84500e+02
1391	4.89693e+02	1.39100e+03	1.11097e-01	4.85500e+02
1393	4.90341e+02	1.39300e+03	1.11056e-01	4.86500e+02
1395	4.91236e+02	1.39500e+03	1.11047e-01	4.87500e+02
1397	4.92142e+02	1.39700e+03	1.11086e-01	4.88500e+02
1399	4.93208e+02	1.39900e+03	1.11100e-01	4.89500e+02
1401	4.94083e+02	1.40100e+03	1.11082e-01	4.90500e+02
1403	4.95033e+02	1.40300e+03	1.11018e-01	4.91500e+02
1405	4.95911e+02	1.40500e+03	1.10876e-01	4.92500e+02
1407	4.96844e+02	1.40700e+03	1.10749e-01	4.93500e+02
1409	4.97855e+02	1.40900e+03	1.10632e-01	4.94500e+02
1411	4.98834e+02	1.41100e+03	1.10547e-01	4.95500e+02
1413	4.99772e+02	1.41300e+03	1.10520e-01	4.96500e+02
1415	5.00709e+02	1.41500e+03	1.10493e-01	4.97500e+02
1417	5.01661e+02	1.41700e+03	1.10500e-01	4.98500e+02
1419	5.02572e+02	1.41900e+03	1.10508e-01	4.99500e+02
1421	5.03516e+02	1.42100e+03	1.10525e-01	5.00500e+02
1423	5.04460e+02	1.42300e+03	1.10525e-01	5.01500e+02
1425	5.05525e+02	1.42500e+03	1.10494e-01	5.02500e+02
1427	5.06817e+02	1.42700e+03	1.10452e-01	5.03500e+02
1429	5.07664e+02	1.42900e+03	1.10402e-01	5.04500e+02
1431	5.08646e+02	1.43100e+03	1.10381e-01	5.05500e+02
1433	5.09708e+02	1.43300e+03	1.10396e-01	5.06500e+02
1435	5.10799e+02	1.43500e+03	1.10409e-01	5.07500e+02
1437	5.11559e+02	1.43700e+03	1.10423e-01	5.08500e+02
1439	5.12401e+02	1.43900e+03	1.10419e-01	5.09500e+02
1441	5.13425e+02	1.44100e+03	1.10382e-01	5.10500e+02
1443	5.14371e+02	1.44300e+03	1.10346e-01	5.11500e+02
1445	5.15317e+02	1.44500e+03	1.10282e-01	5.12500e+02
1447	5.16281e+02	1.44700e+03	1.10200e-01	5.13500e+02
1449	5.17300e+02	1.44900e+03	1.10065e-01	5.14500e+02
1451	5.18266e+02	1.45100e+03	1.09943e-01	5.15500e+02
1453	5.19261e+02	1.45300e+03	1.09883e-01	5.16500e+02
1455	5.20238e+02	1.45500e+03	1.09919e-01	5.17500e+02
1457	5.21216e+02	1.45700e+03	1.10112e-01	5.18500e+02
1459	5.22190e+02	1.45900e+03	1.10263e-01	5.19500e+02
1461	5.23171e+02	1.46100e+03	1.10387e-01	5.20500e+02
1463	5.24122e+02	1.46300e+03	1.10448e-01	5.21500e+02
1465	5.25031e+02	1.46500e+03	1.10393e-01	5.22500e+02
1467	5.25989e+02	1.46700e+03	1.10332e-01	5.23500e+02
1469	5.26988e+02	1.46900e+03	1.10215e-01	5.24500e+02
1471	5.27954e+02	1.47100e+03	1.10122e-01	5.25500e+02
1473	5.28958e+02	1.47300e+03	1.10049e-01	5.26500e+02
1475	5.29958e+02	1.47500e+03	1.10013e-01	5.27500e+02
1477	5.30931e+02	1.47700e+03	1.10040e-01	5.28500e+02
1479	5.31888e+02	1.47900e+03	1.10055e-01	5.29500e+02
1481	5.32886e+02	1.48100e+03	1.10081e-01	5.30500e+02
1483	5.33870e+02	1.48300e+03	1.10098e-01	5.31500e+02
1485	5.34920e+02	1.48500e+03	1.10112e-01	5.32500e+02
1487	5.35908e+02	1.48700e+03	1.10135e-01	5.33500e+02
1489	5.37021e+02	1.48900e+03	1.10162e-01	5.34500e+02
1491	5.38052e+02	1.49100e+03	1.10174e-01	5.35500e+02
1493	5.39093e+02	1.49300e+03	1.10152e-01	5.36500e+02
1495	5.40059e+02	1.49500e+03	1.10108e-01	5.37500e+02
1497	5.41044e+02	1.49700e+03	1.10011e-01	5.38500e+02
1499	5.42032e+02	1.49900e+03	1.09925e-01	5.39500e+02
1501	5.43066e+02	1.50100e+03	1.09845e-01	5.40500e+02
1503	5.44171e+02	1.50300e+03	1.09797e-01	5.41500e+02
1505	5.45193e+02	1.50500e+03	1.09809e-01	5.42500e+02
1507	5.46336e+02	1.50700e+03	1.09836e-01	5.43500e+02
1509	5.47325e+02	1.50900e+03	1.09897e-01	5.44500e+02
1511	5.48329e+02	1.51100e+03	1.09932e-01	5.45500e+02
1513	5.49299e+02	1.51300e+03	1.09948e-01	5.46500e+02
1515	5.50280e+02	1.51500e+03	1.09955e-01	5.47500e+02
1517	5.51282e+02	1.51700e+03	1.09935e-01	5.48500e+02
1519	5.52247e+02	1.51900e+03	1.09913e-01	5.49500e+02
1521	5.53195e+02	1.52100e+03	1.09877e-01	5.50500e+02
1523	5.54112e+02	1.52300e+03	1.09846e-01	5.51500e+02
1525	5.55007e+02	1.52500e+03	1.09818e-01	5.52500e+02
1527	5.55921e+02	1.52700e+03	1.09784e-01	5.53500e+02
1529	5.56826e+02	1.52900e+03	1.09719e-01	5.54500e+02
1531	5.57764e+02	1.53100e+03	1.09620e-01	5.55500e+02
1533	5.58730e+02	1.53300e+03	1.09491e-01	5.56500e+02
1535	5.59695e+02	1.53500e+03	1.09426e-01	5.57500e+02
1537	5.60661e+02	1.53700e+03	1.09485e-01	5.58500e+02
1539	5.61627e+02	1.53900e+03	1.09583e-01	5.59500e+02
1541	5.62595e+02	1.54100e+03	1.09761e-01	5.60500e+02
1543	5.63582e+02	1.54300e+03	1.09866e-01	5.61500e+02
1545	5.64577e+02	1.54500e+03	1.09886e-01	5.62500e+02
1547	5.65553e+02	1.54700e+03	1.09886e-01	5.63500e+02
1549	5.66550e+02	1.54900e+03	1.09820e-01	5.64500e+02
1551	5.67529e+02	1.55100e+03	1.09776e-01	5.65500e+02
1553	5.68522e+02	1.55300e+03	1.09739e-01	5.66500e+02
1555	5.69474e+02	1.55500e+03	1.09717e-01	5.67500e+02
1557	5.70510e+02	1.55700e+03	1.09711e-01	5.68500e+02
1559	5.71507e+02	1.55900e+03	1.09695e-01	5.69500e+02
1561	5.72426e+02	1.56100e+03	1.09675e-01	5.70500e+02
1563	5.73458e+02	1.56300e+03	1.09664e-01	5.71500e+02
1565	5.74511e+02	1.56500e+03	1.09660e-01	5.72500e+02
1567	5.75600e+02	1.56700e+03	1.09647e-01	5.73500e+02
1569	5.76669e+02	1.56900e+03	1.09632e-01	5.74500e+02
1571	5.77641e+02	1.57100e+03	1.09634e-01	5.75500e+02
1573	5.78653e+02	1.57300e+03	1.09674e-01	5.76500e+02
1575	5.79701e+02	1.57500e+03	1.09735e-01	5.77500e+02
1577	5.80686e+02	1.57700e+03	1.09823e-01	5.78500e+02
1579	5.81681e+02	1.57900e+03	1.09864e-01	5.79500e+02
1581	5.82665e+02	1.58100e+03	1.09851e-01	5.80500e+02
1583	5.83685e+02	1.58300e+03	1.09832e-01	5.81500e+02
1585	5.84614e+02	1.58500e+03	1.09777e-01	5.82500e+02
1587	5.85623e+02	1.58700e+03	1.09735e-01	5.83500e+02
1589	5.86591e+02	1.58900e+03	1.09697e-01	5.84500e+02
1591	5.87622e+02	1.59100e+03	1.09667e-01	5.85500e+02
1593	5.88614e+02	1.59300e+03	1.09663e-01	5.86500e+02
1595	5.89569e+02	1.59500e+03	1.09675e-01	5.87500e+02
1597	5.90517e+02	1.59700e+03	1.09713e-01	5.88500e+02
1599	5.91495e+02	1.59900e+03	1.09732e-01	5.89500e+02
1601	5.92478e+02	1.60100e+03	1.09730e-01	5.90500e+02
1603	5.93466e+02	1.60300e+03	1.09718e-01	5.91500e+02
1605	5.94433e+02	1.60500e+03	1.09688e-01	5.92500e+02
1607	5.95425e+02	1.60700e+03	1.09672e-01	5.93500e+02
1609	5.96423e+02	1.60900e+03	1.09661e-01	5.94500e+02
1611	5.97413e+02	1.61100e+03	1.09645e-01	5.95500e+02
1613	5.98406e+02	1.61300e+03	1.09629e-01	5.96500e+02
1615	5.99375e+02	1.61500e+03	1.09623e-01	5.97500e+02
1617	6.00327e+02	1.61700e+03	1.09619e-01	5.98500e+02
1619	6.01301e+02	1.61900e+03	1.09603e-01	5.99500e+02
1621	6.02342e+02	1.62100e+03	1.09572e-01	6.00500e+02
1623	6.03387e+02	1.62300e+03	1.09541e-01	6.01500e+02
1625	6.04418e+02	1.62500e+03	1.09505e-01	6.02500e+02
1627	6.05408e+02	1.62700e+03	1.09480e-01	6.03500e+02
1629	6.06381e+02	1.62900e+03	1.09465e-01	6.04500e+02
1631	6.07366e+02	1.63100e+03	1.09447e-01	6.05500e+02
1633	6.08443e+02	1.63300e+03	1.09433e-01	6.06500e+02
1635	6.09669e+02	1.63500e+03	1.09427e-01	6.07500e+02
1637	6.10703e+02	1.63700e+03	1.09429e-01	6.08500e+02
1639	6.11832e+02	1.63900e+03	1.09428e-01	6.09500e+02
1641	6.12922e+02	1.64100e+03	1.09427e-01	6.10500e+02
1643	6.13827e+02	1.64300e+03	1.09435e-01	6.11500e+02
1645	6.14709e+02	1.64500e+03	1.09464e-01	6.12500e+02
1647	6.15581e+02	1.64700e+03	1.09500e-01	6.13500e+02
1649	6.16491e+02	1.64900e+03	1.09545e-01	6.14500e+02
1651	6.17443e+02	1.65100e+03	1.09557e-01	6.15500e+02
1653	6.18400e+02	1.65300e+03	1.09542e-01	6.16500e+02
1655	6.19354e+02	1.65500e+03	1.09537e-01	6.17500e+02
1657	6.20337e+02	1.65700e+03	1.09513e-01	6.18500e+02
1659	6.21317e+02	1.65900e+03	1.09487e-01	6.19500e+02
1661	6.22300e+02	1.66100e+03	1.09445e-01	6.20500e+02
1663	6.23287e+02	1.66300e+03	1.09407e-01	6.21500e+02
1665	6.24254e+02	1.66500e+03	1.09373e-01	6.22500e+02
1667	6.25238e+02	1.66700e+03	1.09350e-01	6.23500e+02
1669	6.26222e+02	1.66900e+03	1.09353e-01	6.24500e+02
1671	6.27207e+02	1.67100e+03	1.09357e-01	6.25500e+02
1673	6.28203e+02	1.67300e+03	1.09375e-01	6.26500e+02
1675	6.29180e+02	1.67500e+03	1.09388e-01	6.27500e+02
1677	6.30166e+02	1.67700e+03	1.09397e-01	6.28500e+02
1679	6.31154e+02	1.67900e+03	1.09412e-01	6.29500e+02
1681	6.32125e+02	1.68100e+03	1.09427e-01	6.30500e+02
1683	6.33119e+02	1.68300e+03	1.09444e-01	6.31500e+02
1685	6.34116e+02	1.68500e+03	1.09460e-01	6.32500e+02
1687	6.35115e+02	1.68700e+03	1.09460e-01	6.33500e+02
1689	6.36099e+02	1.68900e+03	1.09439e-01	6.34500e+02
1691	6.37072e+02	1.69100e+03	1.09417e-01	6.35500e+02
1693	6.38048e+02	1.69300e+03	1.09390e-01	6.36500e+02
1695	6.39040e+02	1.69500e+03	1.09383e-01	6.37500e+02
1697	6.40057e+02	1.69700e+03	1.09409e-01	6.38500e+02
1699	6.41046e+02	1.69900e+03	1.09447e-01	6.39500e+02
1701	6.42045e+02	1.70100e+03	1.09500e-01	6.40500e+02
1703	6.43026e+02	1.70300e+03	1.09529e-01	6.41500e+02
1705	6.44007e+02	1.70500e+03	1.09514e-01	6.42500e+02
1707	6.45019e+02	1.70700e+03	1.09474e-01	6.43500e+02
1709	6.45995e+02	1.70900e+03	1.09399e-01	6.44500e+02
1711	6.46995e+02	1.71100e+03	1.09348e-01	6.45500e+02
1713	6.48003e+02	1.71300e+03	1.09326e-01	6.46500e+02
1715	6.49024e+02	1.71500e+03	1.09317e-01	6.47500e+02
1717	6.50055e+02	1.71700e+03	1.09311e-01	6.48500e+02
1719	6.51081e+02	1.71900e+03	1.09250e-01	6.49500e+02
1721	6.52073e+02	1.72100e+03	1.09110e-01	6.50500e+02
1723	6.53052e+02	1.72300e+03	1.08996e-01	6.51500e+02
1725	6.54075e+02	1.72500e+03	1.08938e-01	6.52500e+02
1727	6.55041e+02	1.72700e+03	1.08970e-01	6.53500e+02
1729	6.56023e+02	1.72900e+03	1.09157e-01	6.54500e+02
1731	6.57013e+02	1.73100e+03	1.09324e-01	6.55500e+02
1733	6.58009e+02	1.73300e+03	1.09511e-01	6.56500e+02
1735	6.58998e+02	1.73500e+03	1.09650e-01	6.57500e+02
1737	6.60015e+02	1.73700e+03	1.09705e-01	6.58500e+02
1739	6.60982e+02	1.73900e+03	1.09724e-01	6.59500e+02
1741	6.61942e+02	1.74100e+03	1.09636e-01	6.60500e+02
1743	6.62942e+02	1.74300e+03	1.09538e-01	6.61500e+02
1745	6.63909e+02	1.74500e+03	1.09386e-01	6.62500e+02
1747	6.64898e+02	1.74700e+03	1.09266e-01	6.63500e+02
1749	6.65859e+02	1.74900e+03	1.09184e-01	6.64500e+02
1751	6.66835e+02	1.75100e+03	1.09136e-01	6.65500e+02
1753	6.67815e+02	1.75300e+03	1.09170e-01	6.66500e+02
1755	6.68821e+02	1.75500e+03	1.09206e-01	6.67500e+02
1757	6.69820e+02	1.75700e+03	1.09275e-01	6.68500e+02
1759	6.70821e+02	1.75900e+03	1.09318e-01	6.69500e+02
1761	6.71822e+02	1.76100e+03	1.09334e-01	6.70500e+02
1763	6.72807e+02	1.76300e+03	1.09344e-01	6.71500e+02
1765	6.73802e+02	1.76500e+03	1.09341e-01	6.72500e+02
1767	6.74782e+02	1.76700e+03	1.09351e-01	6.73500e+02
1769	6.75769e+02	1.76900e+03	1.09375e-01	6.74500e+02
1771	6.76761e+02	1.77100e+03	1.09386e-01	6.75500e+02
1773	6.77759e+02	1.77300e+03	1.09369e-01	6.76500e+02
1775	6.78737e+02	1.77500e+03	1.09339e-01	6.77500e+02
1777	6.79726e+02	1.77700e+03	1.09280e-01	6.78500e+02
1779	6.80701e+02	1.77900e+03	1.09247e-01	6.79500e+02
1781	6.81684e+02	1.78100e+03	1.09241e-01	6.80500e+02
1783	6.82650e+02	1.78300e+03	1.09235e-01	6.81500e+02
1785	6.83636e+02	1.78500e+03	1.09209e-01	6.82500e+02
1787	6.84615e+02	1.78700e+03	1.09150e-01	6.83500e+02
1789	6.85595e+02	1.78900e+03	1.09051e-01	6.84500e+02
1791	6.86568e+02	1.79100e+03	1.08996e-01	6.85500e+02
1793	6.87563e+02	1.79300e+03	1.09048e-01	6.86500e+02
1795	6.88244e+02	1.79500e+03	1.09156e-01	6.87500e+02
1797	6.88702e+02	1.79700e+03	1.09366e-01	6.88500e+02
1799	6.89400e+02	1.79900e+03	1.09518e-01	6.89500e+02
1801	6.90046e+02	1.80100e+03	1.09616e-01	6.90500e+02
1803	6.90677e+02	1.80300e+03	1.09662e-01	6.91500e+02
1805	6.91244e+02	1.80500e+03	1.09624e-01	6.92500e+02
1807	6.91798e+02	1.80700e+03	1.09579e-01	6.93500e+02
1809	6.92305e+02	1.80900e+03	1.09493e-01	6.94500e+02
1811	6.92803e+02	1.81100e+03	1.09427e-01	6.95500e+02
1813	6.93229e+02	1.81300e+03	1.09386e-01	6.96500e+02
1815	6.93608e+02	1.81500e+03	1.09370e-01	6.97500e+02
1817	6.94013e+02	1.81700e+03	1.09409e-01	6.98500e+02
1819	6.94369e+02	1.81900e+03	1.09453e-01	6.99500e+02
1820	6.94563e+02	1.82000e+03	1.09485e-01	7.00000e+02