File: Experiments/TUBS/tga_nonisotherm/tga_dynamic_n2low30_dyn30_powder_3mg_r2.txt
Index	Ts	t	Weight	Tr
[#]	[°C]	[s]	[mg]	[°C]
681	1.30360e+02	6.81000e+02	2.94763	130.5
683	1.31358e+02	6.83000e+02	2.94751	131.5
685	1.32384e+02	6.85000e+02	2.94737	132.5
687	1.33380e+02	6.87000e+02	2.94724	133.5
689	1.34381e+02	6.89000e+02	2.94715	134.5
691	1.35397e+02	6.91000e+02	2.94706	135.5
693	1.36412e+02	6.93000e+02	2.94695	136.5
695	1.37418e+02	6.95000e+02	2.9468	137.5
697	1.38417e+02	6.97000e+02	2.94661	138.5
699	1.39422e+02	6.99000e+02	2.94645	139.5
701	1.40435e+02	7.01000e+02	2.94629	140.5
703	1.41436e+02	7.03000e+02	2.94613	141.5
705	1.42448e+02	7.05000e+02	2.94595	142.5
707	1.43464e+02	7.07000e+02	2.94577	143.5
709	1.44468e+02	7.09000e+02	2.94556	144.5
711	1.45473e+02	7.11000e+02	2.94533	145.5
713	1.46494e+02	7.13000e+02	2.94507	146.5
715	1.47493e+02	7.15000e+02	2.9448	147.5
717	1.48485e+02	7.17000e+02	2.94452	148.5
719	1.49506e+02	7.19000e+02	2.94422	149.5
721	1.50510e+02	7.21000e+02	2.94387	150.5
723	1.51526e+02	7.23000e+02	2.94352	151.5
725	1.52529e+02	7.25000e+02	2.94314	152.5
727	1.53538e+02	7.27000e+02	2.94273	153.5
729	1.54556e+02	7.29000e+02	2.94231	154.5
731	1.55553e+02	7.31000e+02	2.94189	155.5
733	1.56564e+02	7.33000e+02	2.94147	156.5
735	1.57587e+02	7.35000e+02	2.94105	157.5
737	1.58597e+02	7.37000e+02	2.94061	158.5
739	1.59609e+02	7.39000e+02	2.94017	159.5
741	1.60626e+02	7.41000e+02	2.93971	160.5
743	1.61639e+02	7.43000e+02	2.93924	161.5
745	1.62640e+02	7.45000e+02	2.93875	162.5
747	1.63661e+02	7.47000e+02	2.93825	163.5
749	1.64666e+02	7.49000e+02	2.93773	164.5
751	1.65684e+02	7.51000e+02	2.93721	165.5
753	1.66711e+02	7.53000e+02	2.93666	166.5
755	1.67730e+02	7.55000e+02	2.93608	167.5
757	1.68746e+02	7.57000e+02	2.93546	168.5
759	1.69756e+02	7.59000e+02	2.93484	169.5
761	1.70769e+02	7.61000e+02	2.93418	170.5
763	1.71777e+02	7.63000e+02	2.9335	171.5
765	1.72781e+02	7.65000e+02	2.93278	172.5
767	1.73804e+02	7.67000e+02	2.93203	173.5
769	1.74822e+02	7.69000e+02	2.9312	174.5
771	1.75836e+02	7.71000e+02	2.93035	175.5
773	1.76845e+02	7.73000e+02	2.92943	176.5
775	1.77862e+02	7.75000e+02	2.92853	177.5
777	1.78877e+02	7.77000e+02	2.92757	178.5
779	1.79900e+02	7.79000e+02	2.92653	179.5
781	1.80921e+02	7.81000e+02	2.92532	180.5
783	1.81924e+02	7.83000e+02	2.92405	181.5
785	1.82941e+02	7.85000e+02	2.92256	182.5
787	1.83949e+02	7.87000e+02	2.921	183.5
789	1.84977e+02	7.89000e+02	2.91929	184.5
791	1.85983e+02	7.91000e+02	2.91759	185.5
793	1.86997e+02	7.93000e+02	2.91569	186.5
795	1.88023e+02	7.95000e+02	2.91357	187.5
797	1.89024e+02	7.97000e+02	2.91101	188.5
799	1.90040e+02	7.99000e+02	2.90839	189.5
801	1.91064e+02	8.01000e+02	2.90559	190.5
803	1.92076e+02	8.03000e+02	2.90297	191.5
805	1.93086e+02	8.05000e+02	2.90045	192.5
807	1.94105e+02	8.07000e+02	2.89781	193.5
809	1.95122e+02	8.09000e+02	2.89506	194.5
811	1.96143e+02	8.11000e+02	2.89226	195.5
813	1.97155e+02	8.13000e+02	2.88937	196.5
815	1.98172e+02	8.15000e+02	2.88651	197.5
817	1.99187e+02	8.17000e+02	2.8837	198.5
819	2.00205e+02	8.19000e+02	2.88091	199.5
821	2.01224e+02	8.21000e+02	2.87819	200.5
823	2.02251e+02	8.23000e+02	2.8755	201.5
825	2.03265e+02	8.25000e+02	2.87297	202.5
827	2.04288e+02	8.27000e+02	2.87053	203.5
829	2.05305e+02	8.29000e+02	2.86833	204.5
831	2.06321e+02	8.31000e+02	2.86618	205.5
833	2.07351e+02	8.33000e+02	2.86425	206.5
835	2.08359e+02	8.35000e+02	2.86236	207.5
837	2.09380e+02	8.37000e+02	2.86069	208.5
839	2.10399e+02	8.39000e+02	2.85907	209.5
841	2.11405e+02	8.41000e+02	2.85769	210.5
843	2.12429e+02	8.43000e+02	2.85636	211.5
845	2.13455e+02	8.45000e+02	2.8552	212.5
847	2.14466e+02	8.47000e+02	2.85405	213.5
849	2.15501e+02	8.49000e+02	2.85303	214.5
851	2.16523e+02	8.51000e+02	2.85205	215.5
853	2.17532e+02	8.53000e+02	2.85118	216.5
855	2.18541e+02	8.55000e+02	2.85031	217.5
857	2.19560e+02	8.57000e+02	2.84953	218.5
859	2.20584e+02	8.59000e+02	2.84879	219.5
861	2.21610e+02	8.61000e+02	2.84812	220.5
863	2.22617e+02	8.63000e+02	2.84743	221.5
865	2.23633e+02	8.65000e+02	2.84674	222.5
867	2.24633e+02	8.67000e+02	2.84606	223.5
869	2.25615e+02	8.69000e+02	2.84539	224.5
871	2.26618e+02	8.71000e+02	2.84474	225.5
873	2.27623e+02	8.73000e+02	2.84409	226.5
875	2.28630e+02	8.75000e+02	2.8434	227.5
877	2.29644e+02	8.77000e+02	2.84265	228.5
879	2.30651e+02	8.79000e+02	2.8419	229.5
881	2.31661e+02	8.81000e+02	2.84108	230.5
883	2.32678e+02	8.83000e+02	2.84026	231.5
885	2.33702e+02	8.85000e+02	2.83948	232.5
887	2.34731e+02	8.87000e+02	2.83875	233.5
889	2.35802e+02	8.89000e+02	2.83809	234.5
891	2.36879e+02	8.91000e+02	2.83738	235.5
893	2.37910e+02	8.93000e+02	2.83666	236.5
895	2.38968e+02	8.95000e+02	2.8359	237.5
897	2.40024e+02	8.97000e+02	2.83511	238.5
899	2.41050e+02	8.99000e+02	2.83435	239.5
901	2.42089e+02	9.01000e+02	2.83361	240.5
903	2.43142e+02	9.03000e+02	2.83289	241.5
905	2.44188e+02	9.05000e+02	2.83221	242.5
907	2.45222e+02	9.07000e+02	2.83153	243.5
909	2.46238e+02	9.09000e+02	2.83087	244.5
911	2.47255e+02	9.11000e+02	2.83021	245.5
913	2.48276e+02	9.13000e+02	2.82955	246.5
915	2.49300e+02	9.15000e+02	2.82891	247.5
917	2.50351e+02	9.17000e+02	2.82831	248.5
919	2.51388e+02	9.19000e+02	2.82773	249.5
921	2.52436e+02	9.21000e+02	2.8272	250.5
923	2.53478e+02	9.23000e+02	2.82666	251.5
925	2.54489e+02	9.25000e+02	2.82616	252.5
927	2.55515e+02	9.27000e+02	2.82565	253.5
929	2.56491e+02	9.29000e+02	2.82515	254.5
931	2.57473e+02	9.31000e+02	2.82464	255.5
933	2.58496e+02	9.33000e+02	2.82413	256.5
935	2.59513e+02	9.35000e+02	2.82364	257.5
937	2.60555e+02	9.37000e+02	2.82318	258.5
939	2.61581e+02	9.39000e+02	2.82269	259.5
941	2.62583e+02	9.41000e+02	2.8222	260.5
943	2.63622e+02	9.43000e+02	2.8217	261.5
945	2.64641e+02	9.45000e+02	2.82116	262.5
947	2.65670e+02	9.47000e+02	2.82061	263.5
949	2.66710e+02	9.49000e+02	2.82003	264.5
951	2.67735e+02	9.51000e+02	2.81947	265.5
953	2.68761e+02	9.53000e+02	2.81892	266.5
955	2.69778e+02	9.55000e+02	2.81836	267.5
957	2.70787e+02	9.57000e+02	2.8178	268.5
959	2.71845e+02	9.59000e+02	2.81724	269.5
961	2.72831e+02	9.61000e+02	2.81668	270.5
963	2.73832e+02	9.63000e+02	2.81609	271.5
965	2.74874e+02	9.65000e+02	2.81546	272.5
967	2.75924e+02	9.67000e+02	2.81482	273.5
969	2.76963e+02	9.69000e+02	2.81413	274.5
971	2.77991e+02	9.71000e+02	2.8134	275.5
973	2.79045e+02	9.73000e+02	2.81261	276.5
975	2.80105e+02	9.75000e+02	2.81181	277.5
977	2.81140e+02	9.77000e+02	2.81096	278.5
979	2.82142e+02	9.79000e+02	2.81009	279.5
981	2.83164e+02	9.81000e+02	2.80914	280.5
983	2.84173e+02	9.83000e+02	2.80817	281.5
985	2.85153e+02	9.85000e+02	2.80709	282.5
987	2.86137e+02	9.87000e+02	2.80596	283.5
989	2.87161e+02	9.89000e+02	2.8047	284.5
991	2.88158e+02	9.91000e+02	2.8034	285.5
993	2.89194e+02	9.93000e+02	2.80195	286.5
995	2.90224e+02	9.95000e+02	2.80048	287.5
997	2.91224e+02	9.97000e+02	2.79886	288.5
999	2.92261e+02	9.99000e+02	2.79719	289.5
1001	2.93312e+02	1.00100e+03	2.79536	290.5
1003	2.94331e+02	1.00300e+03	2.79347	291.5
1005	2.95327e+02	1.00500e+03	2.79133	292.5
1007	2.96348e+02	1.00700e+03	2.78911	293.5
1009	2.97385e+02	1.00900e+03	2.78672	294.5
1011	2.98390e+02	1.01100e+03	2.78439	295.5
1013	2.99411e+02	1.01300e+03	2.78197	296.5
1015	3.00428e+02	1.01500e+03	2.77943	297.5
1017	3.01446e+02	1.01700e+03	2.77662	298.5
1019	3.02484e+02	1.01900e+03	2.7737	299.5
1021	3.03495e+02	1.02100e+03	2.77047	300.5
1023	3.04524e+02	1.02300e+03	2.76722	301.5
1025	3.05546e+02	1.02500e+03	2.76376	302.5
1027	3.06575e+02	1.02700e+03	2.76027	303.5
1029	3.07632e+02	1.02900e+03	2.75659	304.5
1031	3.08712e+02	1.03100e+03	2.75286	305.5
1033	3.09775e+02	1.03300e+03	2.74894	306.5
1035	3.10810e+02	1.03500e+03	2.74501	307.5
1037	3.11869e+02	1.03700e+03	2.7409	308.5
1039	3.12926e+02	1.03900e+03	2.73676	309.5
1041	3.14004e+02	1.04100e+03	2.73248	310.5
1043	3.15025e+02	1.04300e+03	2.7282	311.5
1045	3.16128e+02	1.04500e+03	2.72384	312.5
1047	3.17139e+02	1.04700e+03	2.71947	313.5
1049	3.18237e+02	1.04900e+03	2.71505	314.5
1051	3.19280e+02	1.05100e+03	2.71063	315.5
1053	3.20341e+02	1.05300e+03	2.70615	316.5
1055	3.21369e+02	1.05500e+03	2.70166	317.5
1057	3.22378e+02	1.05700e+03	2.69715	318.5
1059	3.23407e+02	1.05900e+03	2.69265	319.5
1061	3.24438e+02	1.06100e+03	2.68811	320.5
1063	3.25458e+02	1.06300e+03	2.68352	321.5
1065	3.26459e+02	1.06500e+03	2.67884	322.5
1067	3.27490e+02	1.06700e+03	2.67412	323.5
1069	3.28491e+02	1.06900e+03	2.66924	324.5
1071	3.29519e+02	1.07100e+03	2.6643	325.5
1073	3.30515e+02	1.07300e+03	2.6591	326.5
1075	3.31513e+02	1.07500e+03	2.6538	327.5
1077	3.32498e+02	1.07700e+03	2.64812	328.5
1079	3.33460e+02	1.07900e+03	2.64231	329.5
1081	3.34469e+02	1.08100e+03	2.63603	330.5
1083	3.35475e+02	1.08300e+03	2.62956	331.5
1085	3.36474e+02	1.08500e+03	2.62246	332.5
1087	3.37518e+02	1.08700e+03	2.61515	333.5
1089	3.38540e+02	1.08900e+03	2.60707	334.5
1091	3.39536e+02	1.09100e+03	2.59881	335.5
1093	3.40532e+02	1.09300e+03	2.58977	336.5
1095	3.41533e+02	1.09500e+03	2.58054	337.5
1097	3.42579e+02	1.09700e+03	2.57049	338.5
1099	3.43605e+02	1.09900e+03	2.56016	339.5
1101	3.44630e+02	1.10100e+03	2.54879	340.5
1103	3.45690e+02	1.10300e+03	2.53707	341.5
1105	3.46699e+02	1.10500e+03	2.52406	342.5
1107	3.47657e+02	1.10700e+03	2.51068	343.5
1109	3.48690e+02	1.10900e+03	2.49593	344.5
1111	3.49717e+02	1.11100e+03	2.48086	345.5
1113	3.50740e+02	1.11300e+03	2.4644	346.5
1115	3.51747e+02	1.11500e+03	2.44758	347.5
1117	3.52772e+02	1.11700e+03	2.42928	348.5
1119	3.53735e+02	1.11900e+03	2.41055	349.5
1121	3.54719e+02	1.12100e+03	2.39021	350.5
1123	3.55701e+02	1.12300e+03	2.36943	351.5
1125	3.56712e+02	1.12500e+03	2.34693	352.5
1127	3.57770e+02	1.12700e+03	2.32404	353.5
1129	3.58701e+02	1.12900e+03	2.29944	354.5
1131	3.59668e+02	1.13100e+03	2.27445	355.5
1133	3.60691e+02	1.13300e+03	2.24776	356.5
1135	3.61656e+02	1.13500e+03	2.22065	357.5
1137	3.62568e+02	1.13700e+03	2.19174	358.5
1139	3.63546e+02	1.13900e+03	2.16238	359.5
1141	3.64590e+02	1.14100e+03	2.1312	360.5
1143	3.65474e+02	1.14300e+03	2.09968	361.5
1145	3.66445e+02	1.14500e+03	2.06656	362.5
1147	3.67417e+02	1.14700e+03	2.03311	363.5
1149	3.68411e+02	1.14900e+03	1.99815	364.5
1151	3.69390e+02	1.15100e+03	1.96282	365.5
1153	3.70406e+02	1.15300e+03	1.92592	366.5
1155	3.71440e+02	1.15500e+03	1.88863	367.5
1157	3.72436e+02	1.15700e+03	1.84977	368.5
1159	3.73414e+02	1.15900e+03	1.81061	369.5
1161	3.74412e+02	1.16100e+03	1.76996	370.5
1163	3.75422e+02	1.16300e+03	1.729	371.5
1165	3.76398e+02	1.16500e+03	1.68671	372.5
1167	3.77360e+02	1.16700e+03	1.64429	373.5
1169	3.78357e+02	1.16900e+03	1.60089	374.5
1171	3.79335e+02	1.17100e+03	1.55726	375.5
1173	3.80329e+02	1.17300e+03	1.51256	376.5
1175	3.81329e+02	1.17500e+03	1.46747	377.5
1177	3.82292e+02	1.17700e+03	1.42123	378.5
1179	3.83305e+02	1.17900e+03	1.37488	379.5
1181	3.84312e+02	1.18100e+03	1.32761	380.5
1183	3.85361e+02	1.18300e+03	1.28023	381.5
1185	3.86385e+02	1.18500e+03	1.23235	382.5
1187	3.87428e+02	1.18700e+03	1.18471	383.5
1189	3.88454e+02	1.18900e+03	1.1372	384.5
1191	3.89427e+02	1.19100e+03	1.0899	385.5
1193	3.90412e+02	1.19300e+03	1.04308	386.5
1195	3.91435e+02	1.19500e+03	0.996464	387.5
1197	3.92461e+02	1.19700e+03	0.950466	388.5
1199	3.93480e+02	1.19900e+03	0.904672	389.5
1201	3.94579e+02	1.20100e+03	0.859675	390.5
1203	3.95624e+02	1.20300e+03	0.81504	391.5
1205	3.96657e+02	1.20500e+03	0.771557	392.5
1207	3.97692e+02	1.20700e+03	0.728511	393.5
1209	3.98703e+02	1.20900e+03	0.687035	394.5
1211	3.99727e+02	1.21100e+03	0.646128	395.5
1213	4.00731e+02	1.21300e+03	0.60717	396.5
1215	4.01726e+02	1.21500e+03	0.568754	397.5
1217	4.02737e+02	1.21700e+03	0.532499	398.5
1219	4.03753e+02	1.21900e+03	0.496843	399.5
1221	4.04745e+02	1.22100e+03	0.463537	400.5
1223	4.05737e+02	1.22300e+03	0.430849	401.5
1225	4.06837e+02	1.22500e+03	0.400667	402.5
1227	4.07876e+02	1.22700e+03	0.371119	403.5
1229	4.08910e+02	1.22900e+03	0.344125	404.5
1231	4.09932e+02	1.23100e+03	0.317728	405.5
1233	4.10933e+02	1.23300e+03	0.293832	406.5
1235	4.11888e+02	1.23500e+03	0.270434	407.5
1237	4.12826e+02	1.23700e+03	0.249358	408.5
1239	4.13794e+02	1.23900e+03	0.228749	409.5
1241	4.14752e+02	1.24100e+03	0.210265	410.5
1243	4.15664e+02	1.24300e+03	0.192282	411.5
1245	4.16668e+02	1.24500e+03	0.176396	412.5
1247	4.17719e+02	1.24700e+03	0.160943	413.5
1249	4.18794e+02	1.24900e+03	0.147423	414.5
1251	4.19788e+02	1.25100e+03	0.134224	415.5
1253	4.20891e+02	1.25300e+03	0.122709	416.5
1255	4.21983e+02	1.25500e+03	0.111526	417.5
1257	4.23092e+02	1.25700e+03	0.101874	418.5
1259	4.24269e+02	1.25900e+03	0.0925072	419.5
1261	4.25247e+02	1.26100e+03	0.0845357	420.5
1263	4.26137e+02	1.26300e+03	0.0768359	421.5
1265	4.27114e+02	1.26500e+03	0.0703684	422.5
1267	4.28034e+02	1.26700e+03	0.0640871	423.5
1269	4.29011e+02	1.26900e+03	0.0588513	424.5
1271	4.30003e+02	1.27100e+03	0.0538095	425.5
1273	4.30937e+02	1.27300e+03	0.0496796	426.5
1275	4.31866e+02	1.27500e+03	0.0456943	427.5
1277	4.32830e+02	1.27700e+03	0.0424743	428.5
1279	4.33806e+02	1.27900e+03	0.0393597	429.5
1281	4.34778e+02	1.28100e+03	0.0368375	430.5
1283	4.35764e+02	1.28300e+03	0.0343767	431.5
1285	4.36749e+02	1.28500e+03	0.0323703	432.5
1287	4.37759e+02	1.28700e+03	0.0304409	433.5
1289	4.38764e+02	1.28900e+03	0.0288865	434.5
1291	4.39746e+02	1.29100e+03	0.0273872	435.5
1293	4.40737e+02	1.29300e+03	0.0262078	436.5
1295	4.41766e+02	1.29500e+03	0.02508	437.5
1297	4.42902e+02	1.29700e+03	0.0241988	438.5
1299	4.43958e+02	1.29900e+03	0.0233356	439.5
1301	4.45053e+02	1.30100e+03	0.0226443	440.5
1303	4.46015e+02	1.30300e+03	0.0219693	441.5
1305	4.47021e+02	1.30500e+03	0.0213961	442.5
1307	4.48012e+02	1.30700e+03	0.0208134	443.5
1309	4.48961e+02	1.30900e+03	0.0203013	444.5
1311	4.49960e+02	1.31100e+03	0.0198378	445.5
1313	4.50919e+02	1.31300e+03	0.0194872	446.5
1315	4.51869e+02	1.31500e+03	0.0191475	447.5
1317	4.52928e+02	1.31700e+03	0.0188939	448.5
1319	4.53938e+02	1.31900e+03	0.0186348	449.5
1321	4.54961e+02	1.32100e+03	0.0184134	450.5
1323	4.55884e+02	1.32300e+03	0.0181972	451.5
1325	4.56860e+02	1.32500e+03	0.0180241	452.5
1327	4.57894e+02	1.32700e+03	0.0178665	453.5
1329	4.58918e+02	1.32900e+03	0.0177225	454.5
1331	4.59880e+02	1.33100e+03	0.0175546	455.5
1333	4.60784e+02	1.33300e+03	0.0173996	456.5
1335	4.61804e+02	1.33500e+03	0.0172997	457.5
1337	4.62774e+02	1.33700e+03	0.017297	458.5
1339	4.63659e+02	1.33900e+03	0.0172993	459.5
1341	4.64504e+02	1.34100e+03	0.0173429	460.5
1343	4.65402e+02	1.34300e+03	0.0173506	461.5
1345	4.66328e+02	1.34500e+03	0.0173245	462.5
1347	4.67366e+02	1.34700e+03	0.0172961	463.5
1349	4.68342e+02	1.34900e+03	0.0172433	464.5
1351	4.69267e+02	1.35100e+03	0.0171923	465.5
1353	4.70237e+02	1.35300e+03	0.0171503	466.5
1355	4.71164e+02	1.35500e+03	0.0171262	467.5
1357	4.72082e+02	1.35700e+03	0.0171216	468.5
1359	4.73118e+02	1.35900e+03	0.0171078	469.5
1361	4.74244e+02	1.36100e+03	0.0170975	470.5
1363	4.75141e+02	1.36300e+03	0.0170858	471.5
1365	4.76202e+02	1.36500e+03	0.017047	472.5
1367	4.77078e+02	1.36700e+03	0.0169849	473.5
1369	4.78024e+02	1.36900e+03	0.0169008	474.5
1371	4.78914e+02	1.37100e+03	0.0168478	475.5
1373	4.79839e+02	1.37300e+03	0.016817	476.5
1375	4.80793e+02	1.37500e+03	0.0167831	477.5
1377	4.81742e+02	1.37700e+03	0.0167655	478.5
1379	4.82729e+02	1.37900e+03	0.0167501	479.5
1381	4.83723e+02	1.38100e+03	0.0167312	480.5
1383	4.84714e+02	1.38300e+03	0.0166958	481.5
1385	4.85690e+02	1.38500e+03	0.0166418	482.5
1387	4.86681e+02	1.38700e+03	0.0165949	483.5
1389	4.87700e+02	1.38900e+03	0.016536	484.5
1391	4.88720e+02	1.39100e+03	0.0164668	485.5
1393	4.89869e+02	1.39300e+03	0.0164004	486.5
1395	4.90843e+02	1.39500e+03	0.0163638	487.5
1397	4.91714e+02	1.39700e+03	0.0163693	488.5
1399	4.92619e+02	1.39900e+03	0.0163753	489.5
1401	4.93452e+02	1.40100e+03	0.0164414	490.5
1403	4.94433e+02	1.40300e+03	0.0165372	491.5
1405	4.95499e+02	1.40500e+03	0.0166283	492.5
1407	4.96436e+02	1.40700e+03	0.0166389	493.5
1409	4.97350e+02	1.40900e+03	0.0165566	494.5
1411	4.98257e+02	1.41100e+03	0.0165031	495.5
1413	4.99182e+02	1.41300e+03	0.0164451	496.5
1415	5.00125e+02	1.41500e+03	0.0164174	497.5
1417	5.01146e+02	1.41700e+03	0.0164121	498.5
1419	5.02087e+02	1.41900e+03	0.0163669	499.5
1421	5.03081e+02	1.42100e+03	0.0162842	500.5
1423	5.04058e+02	1.42300e+03	0.0162071	501.5
1425	5.05063e+02	1.42500e+03	0.0161135	502.5
1427	5.06093e+02	1.42700e+03	0.0160299	503.5
1429	5.07053e+02	1.42900e+03	0.0159868	504.5
1431	5.08086e+02	1.43100e+03	0.015984	505.5
1433	5.09111e+02	1.43300e+03	0.0160473	506.5
1435	5.10152e+02	1.43500e+03	0.0160934	507.5
1437	5.11170e+02	1.43700e+03	0.0161453	508.5
1439	5.12129e+02	1.43900e+03	0.0161782	509.5
1441	5.13342e+02	1.44100e+03	0.0161861	510.5
1443	5.15059e+02	1.44300e+03	0.0162034	511.5
1445	5.16001e+02	1.44500e+03	0.0162272	512.5
1447	5.16906e+02	1.44700e+03	0.0162498	513.5
1449	5.17899e+02	1.44900e+03	0.0162436	514.5
1451	5.18810e+02	1.45100e+03	0.0162044	515.5
1453	5.19644e+02	1.45300e+03	0.0161298	516.5
1455	5.20529e+02	1.45500e+03	0.01609	517.5
1457	5.21506e+02	1.45700e+03	0.0160678	518.5
1459	5.22493e+02	1.45900e+03	0.0160347	519.5
1461	5.23531e+02	1.46100e+03	0.0160179	520.5
1463	5.24509e+02	1.46300e+03	0.0160201	521.5
1465	5.25518e+02	1.46500e+03	0.0160387	522.5
1467	5.26443e+02	1.46700e+03	0.0160418	523.5
1469	5.27401e+02	1.46900e+03	0.0160423	524.5
1471	5.28305e+02	1.47100e+03	0.0160428	525.5
1473	5.29330e+02	1.47300e+03	0.0160355	526.5
1475	5.30360e+02	1.47500e+03	0.0160271	527.5
1477	5.31297e+02	1.47700e+03	0.0160263	528.5
1479	5.32295e+02	1.47900e+03	0.0160358	529.5
1481	5.33270e+02	1.48100e+03	0.016051	530.5
1483	5.34200e+02	1.48300e+03	0.0160506	531.5
1485	5.35211e+02	1.48500e+03	0.016033	532.5
1487	5.36171e+02	1.48700e+03	0.0160129	533.5
1489	5.37136e+02	1.48900e+03	0.0159667	534.5
1491	5.38108e+02	1.49100e+03	0.0159178	535.5
1493	5.39072e+02	1.49300e+03	0.0158582	536.5
1495	5.40071e+02	1.49500e+03	0.0158062	537.5
1497	5.41087e+02	1.49700e+03	0.0157526	538.5
1499	5.42135e+02	1.49900e+03	0.0156978	539.5
1501	5.43131e+02	1.50100e+03	0.0156607	540.5
1503	5.44063e+02	1.50300e+03	0.0156625	541.5
1505	5.45015e+02	1.50500e+03	0.0157505	542.5
1507	5.45981e+02	1.50700e+03	0.0158464	543.5
1509	5.46934e+02	1.50900e+03	0.0159698	544.5
1511	5.47863e+02	1.51100e+03	0.0160422	545.5
1513	5.48785e+02	1.51300e+03	0.0160357	546.5
1515	5.49729e+02	1.51500e+03	0.016008	547.5
1517	5.50690e+02	1.51700e+03	0.0159077	548.5
1519	5.51608e+02	1.51900e+03	0.0158359	549.5
1521	5.52532e+02	1.52100e+03	0.0157929	550.5
1523	5.53464e+02	1.52300e+03	0.0157857	551.5
1525	5.54504e+02	1.52500e+03	0.0157835	552.5
1527	5.55541e+02	1.52700e+03	0.0157388	553.5
1529	5.56544e+02	1.52900e+03	0.0157122	554.5
1531	5.57545e+02	1.53100e+03	0.0157445	555.5
1533	5.58615e+02	1.53300e+03	0.015827	556.5
1535	5.59811e+02	1.53500e+03	0.0158533	557.5
1537	5.60801e+02	1.53700e+03	0.0158544	558.5
1539	5.61677e+02	1.53900e+03	0.0158714	559.5
1541	5.62671e+02	1.54100e+03	0.0158852	560.5
1543	5.63580e+02	1.54300e+03	0.0158979	561.5
1545	5.64507e+02	1.54500e+03	0.01591	562.5
1547	5.65461e+02	1.54700e+03	0.0159167	563.5
1549	5.66440e+02	1.54900e+03	0.0158901	564.5
1551	5.67431e+02	1.55100e+03	0.0158448	565.5
1553	5.68390e+02	1.55300e+03	0.0157765	566.5
1555	5.69353e+02	1.55500e+03	0.0157351	567.5
1557	5.70321e+02	1.55700e+03	0.015716	568.5
1559	5.71303e+02	1.55900e+03	0.0157036	569.5
1561	5.72270e+02	1.56100e+03	0.015721	570.5
1563	5.73244e+02	1.56300e+03	0.0157405	571.5
1565	5.74211e+02	1.56500e+03	0.0157598	572.5
1567	5.75176e+02	1.56700e+03	0.0157572	573.5
1569	5.76153e+02	1.56900e+03	0.015736	574.5
1571	5.77121e+02	1.57100e+03	0.0157243	575.5
1573	5.78103e+02	1.57300e+03	0.015706	576.5
1575	5.79085e+02	1.57500e+03	0.0156828	577.5
1577	5.80049e+02	1.57700e+03	0.0156595	578.5
1579	5.81023e+02	1.57900e+03	0.0156509	579.5
1581	5.81994e+02	1.58100e+03	0.015659	580.5
1583	5.82959e+02	1.58300e+03	0.015659	581.5
1585	5.83930e+02	1.58500e+03	0.0156512	582.5
1587	5.84918e+02	1.58700e+03	0.0156316	583.5
1589	5.85901e+02	1.58900e+03	0.0155979	584.5
1591	5.86876e+02	1.59100e+03	0.0155724	585.5
1593	5.87851e+02	1.59300e+03	0.0155511	586.5
1595	5.88828e+02	1.59500e+03	0.0155274	587.5
1597	5.89806e+02	1.59700e+03	0.0154837	588.5
1599	5.90788e+02	1.59900e+03	0.0154137	589.5
1601	5.91773e+02	1.60100e+03	0.0152941	590.5
1603	5.92751e+02	1.60300e+03	0.0151916	591.5
1605	5.93722e+02	1.60500e+03	0.0151334	592.5
1607	5.94709e+02	1.60700e+03	0.0151412	593.5
1609	5.95701e+02	1.60900e+03	0.0152656	594.5
1611	5.96708e+02	1.61100e+03	0.0153678	595.5
1613	5.97710e+02	1.61300e+03	0.015484	596.5
1615	5.98687e+02	1.61500e+03	0.0155601	597.5
1617	5.99722e+02	1.61700e+03	0.0155591	598.5
1619	6.00762e+02	1.61900e+03	0.0155433	599.5
1621	6.01753e+02	1.62100e+03	0.0154949	600.5
1623	6.02737e+02	1.62300e+03	0.0154841	601.5
1625	6.03680e+02	1.62500e+03	0.0154973	602.5
1627	6.04604e+02	1.62700e+03	0.0154978	603.5
1629	6.05574e+02	1.62900e+03	0.0155069	604.5
1631	6.06554e+02	1.63100e+03	0.0155172	605.5
1633	6.07539e+02	1.63300e+03	0.0155175	606.5
1635	6.08531e+02	1.63500e+03	0.0155064	607.5
1637	6.09506e+02	1.63700e+03	0.0154887	608.5
1639	6.10464e+02	1.63900e+03	0.0154803	609.5
1641	6.11424e+02	1.64100e+03	0.0154703	610.5
1643	6.12399e+02	1.64300e+03	0.0154531	611.5
1645	6.13378e+02	1.64500e+03	0.015433	612.5
1647	6.14375e+02	1.64700e+03	0.015423	613.5
1649	6.15378e+02	1.64900e+03	0.0154135	614.5
1651	6.16378e+02	1.65100e+03	0.0153914	615.5
1653	6.17395e+02	1.65300e+03	0.0153585	616.5
1655	6.18386e+02	1.65500e+03	0.0153405	617.5
1657	6.19385e+02	1.65700e+03	0.0153517	618.5
1659	6.20397e+02	1.65900e+03	0.015388	619.5
1661	6.21365e+02	1.66100e+03	0.0154676	620.5
1663	6.22361e+02	1.66300e+03	0.0155285	621.5
1665	6.23372e+02	1.66500e+03	0.0155506	622.5
1667	6.24377e+02	1.66700e+03	0.0155264	623.5
1669	6.25334e+02	1.66900e+03	0.0154477	624.5
1671	6.26325e+02	1.67100e+03	0.0154146	625.5
1673	6.27317e+02	1.67300e+03	0.0154169	626.5
1675	6.28311e+02	1.67500e+03	0.0154276	627.5
1677	6.29340e+02	1.67700e+03	0.0154617	628.5
1679	6.30384e+02	1.67900e+03	0.0154798	629.5
1681	6.31428e+02	1.68100e+03	0.0154964	630.5
1683	6.32413e+02	1.68300e+03	0.0155323	631.5
1685	6.34291e+02	1.68500e+03	0.0155938	632.5
1687	6.35173e+02	1.68700e+03	0.0156541	633.5
1689	6.35974e+02	1.68900e+03	0.0157264	634.5
1691	6.36928e+02	1.69100e+03	0.0157827	635.5
1693	6.37825e+02	1.69300e+03	0.0157871	636.5
1695	6.38760e+02	1.69500e+03	0.015761	637.5
1697	6.39694e+02	1.69700e+03	0.0156738	638.5
1699	6.40644e+02	1.69900e+03	0.0156081	639.5
1701	6.41591e+02	1.70100e+03	0.0155426	640.5
1703	6.42540e+02	1.70300e+03	0.0154848	641.5
1705	6.43487e+02	1.70500e+03	0.0154468	642.5
1707	6.44434e+02	1.70700e+03	0.01542	643.5
1709	6.45395e+02	1.70900e+03	0.015415	644.5
1711	6.46360e+02	1.71100e+03	0.0154089	645.5
1713	6.47337e+02	1.71300e+03	0.0154193	646.5
1715	6.48295e+02	1.71500e+03	0.015435	647.5
1717	6.49257e+02	1.71700e+03	0.0154444	648.5
1719	6.50222e+02	1.71900e+03	0.015433	649.5
1721	6.51207e+02	1.72100e+03	0.0154007	650.5
1723	6.52175e+02	1.72300e+03	0.0153844	651.5
1725	6.53156e+02	1.72500e+03	0.0153778	652.5
1727	6.54127e+02	1.72700e+03	0.0153797	653.5
1729	6.55104e+02	1.72900e+03	0.0154124	654.5
1731	6.56080e+02	1.73100e+03	0.0154527	655.5
1733	6.57054e+02	1.73300e+03	0.0154978	656.5
1735	6.58039e+02	1.73500e+03	0.015514	657.5
1737	6.59003e+02	1.73700e+03	0.0154994	658.5
1739	6.59988e+02	1.73900e+03	0.0154928	659.5
1741	6.60979e+02	1.74100e+03	0.0154789	660.5
1743	6.61970e+02	1.74300e+03	0.0154711	661.5
1745	6.62954e+02	1.74500e+03	0.0154778	662.5
1747	6.63913e+02	1.74700e+03	0.0154878	663.5
1749	6.64871e+02	1.74900e+03	0.0155029	664.5
1751	6.65852e+02	1.75100e+03	0.015508	665.5
1753	6.66821e+02	1.75300e+03	0.0155073	666.5
1755	6.67797e+02	1.75500e+03	0.0155119	667.5
1757	6.68776e+02	1.75700e+03	0.0155231	668.5
1759	6.69759e+02	1.75900e+03	0.0155379	669.5
1761	6.70738e+02	1.76100e+03	0.0155608	670.5
1763	6.71713e+02	1.76300e+03	0.015578	671.5
1765	6.72712e+02	1.76500e+03	0.0155884	672.5
1767	6.73681e+02	1.76700e+03	0.0155892	673.5
1769	6.74670e+02	1.76900e+03	0.0155657	674.5
1771	6.75660e+02	1.77100e+03	0.0155473	675.5
1773	6.76658e+02	1.77300e+03	0.0155346	676.5
1775	6.77635e+02	1.77500e+03	0.0155368	677.5
1777	6.78620e+02	1.77700e+03	0.0155365	678.5
1779	6.79610e+02	1.77900e+03	0.015502	679.5
1781	6.80604e+02	1.78100e+03	0.0154399	680.5
1783	6.81589e+02	1.78300e+03	0.0153904	681.5
1785	6.82569e+02	1.78500e+03	0.0153254	682.5
1787	6.83541e+02	1.78700e+03	0.015265	683.5
1789	6.84528e+02	1.78900e+03	0.0152285	684.5
1791	6.85517e+02	1.79100e+03	0.0152239	685.5
1793	6.86509e+02	1.79300e+03	0.0152659	686.5
1795	6.87186e+02	1.79500e+03	0.0152981	687.5
1797	6.87664e+02	1.79700e+03	0.0153645	688.5
1799	6.88368e+02	1.79900e+03	0.0154435	689.5
1801	6.89073e+02	1.80100e+03	0.0155277	690.5
1803	6.89721e+02	1.80300e+03	0.0155536	691.5
1805	6.90319e+02	1.80500e+03	0.0155377	692.5
1807	6.90869e+02	1.80700e+03	0.0155403	693.5
1809	6.91390e+02	1.80900e+03	0.0155309	694.5
1811	6.91879e+02	1.81100e+03	0.0155149	695.5
1813	6.92345e+02	1.81300e+03	0.0154934	696.5
1815	6.92789e+02	1.81500e+03	0.0154907	697.5
1817	6.93190e+02	1.81700e+03	0.0155028	698.5
1819	6.93575e+02	1.81900e+03	0.0155117	699.5
1821	6.93942e+02	1.82100e+03	0.0155332	700.0
1823	6.94276e+02	1.82300e+03	0.0155596	700.0
1825	6.94595e+02	1.82500e+03	0.0155768	700.0
1827	6.94895e+02	1.82700e+03	0.0155831	700.0
1829	6.95181e+02	1.82900e+03	0.0155731	700.0
1831	6.95458e+02	1.83100e+03	0.015563	700.0
1833	6.95718e+02	1.83300e+03	0.0155373	700.0
1835	6.95959e+02	1.83500e+03	0.0155086	700.0
1837	6.96181e+02	1.83700e+03	0.0154819	700.0
1839	6.96393e+02	1.83900e+03	0.015463	700.0
1841	6.96603e+02	1.84100e+03	0.0154718	700.0
1843	6.96794e+02	1.84300e+03	0.0154956	700.0
1845	6.96986e+02	1.84500e+03	0.0155522	700.0
1847	6.97157e+02	1.84700e+03	0.0156054	700.0
1849	6.97321e+02	1.84900e+03	0.0156459	700.0
1851	6.97488e+02	1.85100e+03	0.0156642	700.0
1853	6.97630e+02	1.85300e+03	0.015635	700.0
1855	6.97775e+02	1.85500e+03	0.0156103	700.0
1857	6.97902e+02	1.85700e+03	0.0155761	700.0
1859	6.98040e+02	1.85900e+03	0.0155545	700.0
1861	6.98153e+02	1.86100e+03	0.0155264	700.0
1863	6.98266e+02	1.86300e+03	0.0154886	700.0
1865	6.98380e+02	1.86500e+03	0.0154433	700.0
1867	6.98488e+02	1.86700e+03	0.0154236	700.0
1869	6.98573e+02	1.86900e+03	0.0154417	700.0
1871	6.98675e+02	1.87100e+03	0.015462	700.0
1873	6.98765e+02	1.87300e+03	0.0155022	700.0
1875	6.98853e+02	1.87500e+03	0.0155344	700.0
1877	6.98932e+02	1.87700e+03	0.0155562	700.0
1879	6.99005e+02	1.87900e+03	0.0155584	700.0
1881	6.99070e+02	1.88100e+03	0.0155489	700.0
1883	6.99148e+02	1.88300e+03	0.0155566	700.0
1885	6.99210e+02	1.88500e+03	0.0155694	700.0
1887	6.99266e+02	1.88700e+03	0.01558	700.0
1889	6.99327e+02	1.88900e+03	0.0155866	700.0
1891	6.99392e+02	1.89100e+03	0.0155815	700.0
1893	6.99446e+02	1.89300e+03	0.0155436	700.0
1895	6.99497e+02	1.89500e+03	0.0155052	700.0
1897	6.99546e+02	1.89700e+03	0.0154566	700.0
1899	6.99601e+02	1.89900e+03	0.0154281	700.0
1901	6.99635e+02	1.90100e+03	0.0154377	700.0
1903	6.99679e+02	1.90300e+03	0.0154484	700.0
1905	6.99714e+02	1.90500e+03	0.0154713	700.0
1907	6.99753e+02	1.90700e+03	0.0154734	700.0
1909	6.99802e+02	1.90900e+03	0.0154483	700.0
1911	6.99820e+02	1.91100e+03	0.015421	700.0
1913	6.99858e+02	1.91300e+03	0.015384	700.0
1915	6.99887e+02	1.91500e+03	0.0153699	700.0
1917	6.99911e+02	1.91700e+03	0.0153775	700.0
1919	6.99949e+02	1.91900e+03	0.0153885	700.0
1921	6.99977e+02	1.92100e+03	0.0154174	700.0
1923	7.00000e+02	1.92300e+03	0.01544	700.0
1925	7.00019e+02	1.92500e+03	0.0154625	700.0
1927	7.00039e+02	1.92700e+03	0.0154853	700.0
1929	7.00068e+02	1.92900e+03	0.0155094	700.0
1931	7.00079e+02	1.93100e+03	0.0155412	700.0
1933	7.00095e+02	1.93300e+03	0.0155954	700.0
1935	7.00117e+02	1.93500e+03	0.0156564	700.0
1937	7.00147e+02	1.93700e+03	0.01572	700.0
1939	7.00162e+02	1.93900e+03	0.015765	700.0
1941	7.00169e+02	1.94100e+03	0.0157876	700.0
1943	7.00193e+02	1.94300e+03	0.015802	700.0
1945	7.00195e+02	1.94500e+03	0.0157854	700.0
1947	7.00224e+02	1.94700e+03	0.0157466	700.0
1949	7.00228e+02	1.94900e+03	0.0156915	700.0
1951	7.00238e+02	1.95100e+03	0.015656	700.0
1953	7.00257e+02	1.95300e+03	0.0156163	700.0
1955	7.00261e+02	1.95500e+03	0.0155643	700.0
1957	7.00271e+02	1.95700e+03	0.0155124	700.0
1959	7.00279e+02	1.95900e+03	0.0154808	700.0
1961	7.00290e+02	1.96100e+03	0.0154903	700.0
1963	7.00296e+02	1.96300e+03	0.0155187	700.0
1965	7.00305e+02	1.96500e+03	0.0155973	700.0
1967	7.00322e+02	1.96700e+03	0.0156598	700.0
1969	7.00327e+02	1.96900e+03	0.0157131	700.0
1971	7.00340e+02	1.97100e+03	0.0157392	700.0
1973	7.00345e+02	1.97300e+03	0.0157217	700.0
1975	7.00351e+02	1.97500e+03	0.0157092	700.0
1977	7.00352e+02	1.97700e+03	0.0156826	700.0
1979	7.00361e+02	1.97900e+03	0.0156632	700.0
1981	7.00374e+02	1.98100e+03	0.0156528	700.0
1983	7.00390e+02	1.98300e+03	0.0156499	700.0
1985	7.00395e+02	1.98500e+03	0.0156568	700.0
1987	7.00398e+02	1.98700e+03	0.015642	700.0
1989	7.00392e+02	1.98900e+03	0.0156053	700.0
1991	7.00397e+02	1.99100e+03	0.0155729	700.0
1993	7.00403e+02	1.99300e+03	0.0155339	700.0
1995	7.00409e+02	1.99500e+03	0.0155059	700.0
1997	7.00418e+02	1.99700e+03	0.0154962	700.0
1999	7.00416e+02	1.99900e+03	0.0154923	700.0
2001	7.00415e+02	2.00100e+03	0.0155153	700.0
2003	7.00425e+02	2.00300e+03	0.015538	700.0
2005	7.00426e+02	2.00500e+03	0.015583	700.0
2007	7.00420e+02	2.00700e+03	0.0156319	700.0
2009	7.00438e+02	2.00900e+03	0.0156797	700.0
2011	7.00434e+02	2.01100e+03	0.0157143	700.0
2013	7.00440e+02	2.01300e+03	0.0157273	700.0
2015	7.00443e+02	2.01500e+03	0.0157348	700.0
2017	7.00442e+02	2.01700e+03	0.0157281	700.0
2019	7.00453e+02	2.01900e+03	0.0157213	700.0
2021	7.00450e+02	2.02100e+03	0.0157092	700.0
2023	7.00452e+02	2.02300e+03	0.0156938	700.0
2025	7.00456e+02	2.02500e+03	0.0156961	700.0
2027	7.00458e+02	2.02700e+03	0.0157137	700.0
2029	7.00457e+02	2.02900e+03	0.0157522	700.0
2031	7.00455e+02	2.03100e+03	0.0157726	700.0
2033	7.00455e+02	2.03300e+03	0.0157861	700.0
2035	7.00467e+02	2.03500e+03	0.0157951	700.0
2037	7.00463e+02	2.03700e+03	0.0157883	700.0
2039	7.00467e+02	2.03900e+03	0.0157732	700.0
2041	7.00465e+02	2.04100e+03	0.0157502	700.0
2043	7.00461e+02	2.04300e+03	0.0157447	700.0
2045	7.00461e+02	2.04500e+03	0.015753	700.0
2047	7.00482e+02	2.04700e+03	0.0157721	700.0
2049	7.00467e+02	2.04900e+03	0.015806	700.0
2051	7.00473e+02	2.05100e+03	0.0158363	700.0
2053	7.00474e+02	2.05300e+03	0.0158653	700.0
2055	7.00470e+02	2.05500e+03	0.0158815	700.0
2057	7.00474e+02	2.05700e+03	0.015872	700.0
2059	7.00468e+02	2.05900e+03	0.0158567	700.0
2061	7.00469e+02	2.06100e+03	0.0158038	700.0
2063	7.00467e+02	2.06300e+03	0.0157412	700.0
2065	7.00473e+02	2.06500e+03	0.0156607	700.0
2067	7.00472e+02	2.06700e+03	0.0156166	700.0
2069	7.00472e+02	2.06900e+03	0.0156171	700.0
2071	7.00466e+02	2.07100e+03	0.0156231	700.0
2073	7.00468e+02	2.07300e+03	0.0156475	700.0
2075	7.00470e+02	2.07500e+03	0.0156465	700.0
2077	7.00472e+02	2.07700e+03	0.0156257	700.0
2079	7.00462e+02	2.07900e+03	0.0156001	700.0
2081	7.00469e+02	2.08100e+03	0.0155563	700.0
2083	7.00467e+02	2.08300e+03	0.0155169	700.0
2085	7.00471e+02	2.08500e+03	0.0155011	700.0
2087	7.00463e+02	2.08700e+03	0.015517	700.0
2089	7.00457e+02	2.08900e+03	0.0155889	700.0
2091	7.00463e+02	2.09100e+03	0.0156553	700.0
2093	7.00455e+02	2.09300e+03	0.0157183	700.0
2095	7.00454e+02	2.09500e+03	0.0157585	700.0
2097	7.00450e+02	2.09700e+03	0.0157598	700.0
2099	7.00449e+02	2.09900e+03	0.0157571	700.0
2101	7.00448e+02	2.10100e+03	0.0157335	700.0
2103	7.00447e+02	2.10300e+03	0.0157197	700.0
2105	7.00440e+02	2.10500e+03	0.0157061	700.0
2107	7.00444e+02	2.10700e+03	0.0156928	700.0
2109	7.00441e+02	2.10900e+03	0.0156842	700.0
2111	7.00445e+02	2.11100e+03	0.0156694	700.0
2113	7.00439e+02	2.11300e+03	0.0156741	700.0
2115	7.00439e+02	2.11500e+03	0.0156951	700.0
2117	7.00441e+02	2.11700e+03	0.0156979	700.0
2119	7.00442e+02	2.11900e+03	0.0156282	700.0
2121	7.00438e+02	2.12100e+03	0.0155034	700.0
2123	7.00431e+02	2.12300e+03	0.0154893	700.0
2125	7.00437e+02	2.12500e+03	0.0155998	700.0
2127	7.00432e+02	2.12700e+03	0.0157155	700.0
2129	7.00431e+02	2.12900e+03	0.0158561	700.0
2131	7.00432e+02	2.13100e+03	0.0158897	700.0
2133	7.00422e+02	2.13300e+03	0.0158001	700.0
2135	7.00428e+02	2.13500e+03	0.0157599	700.0
2137	7.00421e+02	2.13700e+03	0.0157097	700.0
2139	7.00423e+02	2.13900e+03	0.0156653	700.0
2141	7.00419e+02	2.14100e+03	0.0156775	700.0
2143	7.00425e+02	2.14300e+03	0.0157306	700.0
2145	7.00417e+02	2.14500e+03	0.0158385	700.0
2147	7.00419e+02	2.14700e+03	0.015885	700.0
2149	7.00412e+02	2.14900e+03	0.0158665	700.0
2151	7.00415e+02	2.15100e+03	0.0158368	700.0
2153	7.00407e+02	2.15300e+03	0.0157693	700.0
2155	7.00407e+02	2.15500e+03	0.015732	700.0
2157	7.00407e+02	2.15700e+03	0.0157052	700.0
2159	7.00401e+02	2.15900e+03	0.0156732	700.0
2161	7.00394e+02	2.16100e+03	0.0156601	700.0
2163	7.00393e+02	2.16300e+03	0.0156543	700.0
2165	7.00386e+02	2.16500e+03	0.0156621	700.0
2167	7.00393e+02	2.16700e+03	0.0156556	700.0
2169	7.00391e+02	2.16900e+03	0.015645	700.0
2171	7.00385e+02	2.17100e+03	0.0156479	700.0
2173	7.00392e+02	2.17300e+03	0.0156526	700.0
2175	7.00380e+02	2.17500e+03	0.0156528	700.0
2177	7.00379e+02	2.17700e+03	0.0156639	700.0
2179	7.00380e+02	2.17900e+03	0.0156853	700.0
2181	7.00379e+02	2.18100e+03	0.0157077	700.0
2183	7.00378e+02	2.18300e+03	0.0157137	700.0
2185	7.00366e+02	2.18500e+03	0.0157048	700.0
2187	7.00369e+02	2.18700e+03	0.0157149	700.0
2189	7.00367e+02	2.18900e+03	0.0157354	700.0
2191	7.00371e+02	2.19100e+03	0.0157568	700.0
2193	7.00366e+02	2.19300e+03	0.0157864	700.0
2195	7.00364e+02	2.19500e+03	0.01581	700.0
2197	7.00366e+02	2.19700e+03	0.0158263	700.0
2199	7.00359e+02	2.19900e+03	0.0158385	700.0
2201	7.00364e+02	2.20100e+03	0.0158343	700.0
2203	7.00361e+02	2.20300e+03	0.0158231	700.0
2205	7.00354e+02	2.20500e+03	0.0157903	700.0
2207	7.00353e+02	2.20700e+03	0.0157572	700.0
2209	7.00356e+02	2.20900e+03	0.0157176	700.0
2211	7.00347e+02	2.21100e+03	0.0156879	700.0
2213	7.00349e+02	2.21300e+03	0.0156699	700.0
2215	7.00349e+02	2.21500e+03	0.0156451	700.0
2217	7.00348e+02	2.21700e+03	0.0156288	700.0
2219	7.00342e+02	2.21900e+03	0.0156123	700.0
2221	7.00336e+02	2.22100e+03	0.0155975	700.0
2223	7.00333e+02	2.22300e+03	0.0155919	700.0
2225	7.00337e+02	2.22500e+03	0.0155888	700.0
2227	7.00324e+02	2.22700e+03	0.0155951	700.0
2229	7.00324e+02	2.22900e+03	0.0156214	700.0
2231	7.00328e+02	2.23100e+03	0.015647	700.0
2233	7.00324e+02	2.23300e+03	0.0156791	700.0
2235	7.00323e+02	2.23500e+03	0.0156964	700.0
2237	7.00313e+02	2.23700e+03	0.0157044	700.0
2239	7.00317e+02	2.23900e+03	0.0157288	700.0
2241	7.00313e+02	2.24100e+03	0.0157623	700.0
2243	7.00303e+02	2.24300e+03	0.0158089	700.0
2245	7.00310e+02	2.24500e+03	0.0158756	700.0
2247	7.00305e+02	2.24700e+03	0.0159374	700.0
2249	7.00298e+02	2.24900e+03	0.015993	700.0
2251	7.00296e+02	2.25100e+03	0.0160286	700.0
2253	7.00286e+02	2.25300e+03	0.0160289	700.0
2255	7.00289e+02	2.25500e+03	0.0160301	700.0
2257	7.00285e+02	2.25700e+03	0.0159955	700.0
2259	7.00273e+02	2.25900e+03	0.0159561	700.0
2261	7.00272e+02	2.26100e+03	0.0158833	700.0
2263	7.00262e+02	2.26300e+03	0.0157941	700.0
2265	7.00257e+02	2.26500e+03	0.0156657	700.0
2267	7.00253e+02	2.26700e+03	0.0155496	700.0
2269	7.00238e+02	2.26900e+03	0.0155069	700.0
2271	7.00241e+02	2.27100e+03	0.0155471	700.0
2273	7.00240e+02	2.27300e+03	0.0157409	700.0
2275	7.00239e+02	2.27500e+03	0.0159078	700.0
2277	7.00230e+02	2.27700e+03	0.0160867	700.0
2279	7.00221e+02	2.27900e+03	0.0162047	700.0
2281	7.00217e+02	2.28100e+03	0.0162231	700.0
2283	7.00204e+02	2.28300e+03	0.0162246	700.0
2285	7.00205e+02	2.28500e+03	0.0161531	700.0
2287	7.00197e+02	2.28700e+03	0.0160937	700.0
2289	7.00203e+02	2.28900e+03	0.0159997	700.0
2291	7.00195e+02	2.29100e+03	0.0159072	700.0
2293	7.00191e+02	2.29300e+03	0.0158129	700.0
2295	7.00176e+02	2.29500e+03	0.0157539	700.0
2297	7.00181e+02	2.29700e+03	0.0157514	700.0
2299	7.00181e+02	2.29900e+03	0.0157524	700.0
2301	7.00171e+02	2.30100e+03	0.0157838	700.0
2303	7.00163e+02	2.30300e+03	0.0157962	700.0
2305	7.00163e+02	2.30500e+03	0.0158238	700.0
2307	7.00159e+02	2.30700e+03	0.0158671	700.0
2309	7.00157e+02	2.30900e+03	0.0158741	700.0
2311	7.00153e+02	2.31100e+03	0.0158165	700.0
2313	7.00139e+02	2.31300e+03	0.015702	700.0
2315	7.00142e+02	2.31500e+03	0.0156405	700.0
2317	7.00134e+02	2.31700e+03	0.0156202	700.0
2319	7.00132e+02	2.31900e+03	0.0156075	700.0
2321	7.00125e+02	2.32100e+03	0.0156351	700.0
2323	7.00123e+02	2.32300e+03	0.0156425	700.0
2325	7.00119e+02	2.32500e+03	0.0156536	700.0
2327	7.00114e+02	2.32700e+03	0.0156817	700.0
2329	7.00109e+02	2.32900e+03	0.015745	700.0
2331	7.00115e+02	2.33100e+03	0.015816	700.0
2333	7.00103e+02	2.33300e+03	0.0158988	700.0
2335	7.00105e+02	2.33500e+03	0.0159532	700.0
2337	7.00101e+02	2.33700e+03	0.0159725	700.0
2339	7.00103e+02	2.33900e+03	0.0159921	700.0
2341	7.00098e+02	2.34100e+03	0.0159827	700.0
2343	7.00099e+02	2.34300e+03	0.0159665	700.0
2345	7.00091e+02	2.34500e+03	0.0159364	700.0
2347	7.00099e+02	2.34700e+03	0.0159132	700.0
2349	7.00083e+02	2.34900e+03	0.0158907	700.0
2351	7.00081e+02	2.35100e+03	0.0158679	700.0
2353	7.00079e+02	2.35300e+03	0.0158444	700.0
2355	7.00079e+02	2.35500e+03	0.0158198	700.0
2357	7.00081e+02	2.35700e+03	0.0157929	700.0
2359	7.00073e+02	2.35900e+03	0.0157665	700.0
2361	7.00075e+02	2.36100e+03	0.0157461	700.0
2363	7.00075e+02	2.36300e+03	0.0157425	700.0
2365	7.00072e+02	2.36500e+03	0.0157373	700.0
2367	7.00069e+02	2.36700e+03	0.0157045	700.0
2369	7.00074e+02	2.36900e+03	0.0157061	700.0
2371	7.00061e+02	2.37100e+03	0.015776	700.0
2373	7.00064e+02	2.37300e+03	0.0159145	700.0
2375	7.00065e+02	2.37500e+03	0.0160049	700.0
2377	7.00062e+02	2.37700e+03	0.0160448	700.0
2379	7.00059e+02	2.37900e+03	0.0160395	700.0
2381	7.00064e+02	2.38100e+03	0.0159395	700.0
2383	7.00056e+02	2.38300e+03	0.0158604	700.0
2385	7.00062e+02	2.38500e+03	0.0157782	700.0
2387	7.00047e+02	2.38700e+03	0.0157246	700.0
2389	7.00059e+02	2.38900e+03	0.0157248	700.0
2391	7.00053e+02	2.39100e+03	0.0157323	700.0
2393	7.00060e+02	2.39300e+03	0.0157834	700.0
2395	7.00058e+02	2.39500e+03	0.0158363	700.0
2397	7.00055e+02	2.39700e+03	0.0159071	700.0
2399	7.00048e+02	2.39900e+03	0.0159618	700.0
2401	7.00045e+02	2.40100e+03	0.0159823	700.0
2403	7.00039e+02	2.40300e+03	0.0159833	700.0
2405	7.00042e+02	2.40500e+03	0.015961	700.0
2407	7.00037e+02	2.40700e+03	0.0159635	700.0
2409	7.00035e+02	2.40900e+03	0.0159743	700.0
2411	7.00035e+02	2.41100e+03	0.0159624	700.0
2413	7.00036e+02	2.41300e+03	0.0159312	700.0
2415	7.00035e+02	2.41500e+03	0.0158997	700.0
2417	7.00029e+02	2.41700e+03	0.0158482	700.0
2419	7.00036e+02	2.41900e+03	0.0157954	700.0
2421	7.00030e+02	2.42100e+03	0.0157456	700.0
2423	7.00028e+02	2.42300e+03	0.0157211	700.0
2425	7.00020e+02	2.42500e+03	0.0157209	700.0
2427	7.00022e+02	2.42700e+03	0.0157126	700.0
2429	7.00029e+02	2.42900e+03	0.0157052	700.0
2431	7.00019e+02	2.43100e+03	0.0156953	700.0
2433	7.00016e+02	2.43300e+03	0.0156873	700.0
2435	7.00017e+02	2.43500e+03	0.0156853	700.0
2437	7.00023e+02	2.43700e+03	0.0156909	700.0
2439	7.00008e+02	2.43900e+03	0.0156927	700.0
2441	7.00013e+02	2.44100e+03	0.015674	700.0
2443	7.00006e+02	2.44300e+03	0.0156392	700.0
2445	7.00016e+02	2.44500e+03	0.0155892	700.0
2447	7.00006e+02	2.44700e+03	0.0155709	700.0
2449	7.00010e+02	2.44900e+03	0.0155802	700.0
2451	7.00003e+02	2.45100e+03	0.0155819	700.0
2453	7.00007e+02	2.45300e+03	0.0155932	700.0
2455	7.00007e+02	2.45500e+03	0.0155893	700.0
2457	7.00004e+02	2.45700e+03	0.0155623	700.0
2459	6.99991e+02	2.45900e+03	0.0155345	700.0
2461	6.99997e+02	2.46100e+03	0.0155152	700.0
2463	6.99999e+02	2.46300e+03	0.0155341	700.0
2465	6.99997e+02	2.46500e+03	0.0155992	700.0
2467	6.99992e+02	2.46700e+03	0.0156488	700.0
2469	6.99984e+02	2.46900e+03	0.0157044	700.0
2471	6.99989e+02	2.47100e+03	0.0157432	700.0
2473	6.99992e+02	2.47300e+03	0.0157641	700.0
2475	6.99983e+02	2.47500e+03	0.0157906	700.0
2477	6.99981e+02	2.47700e+03	0.0158085	700.0
2479	6.99985e+02	2.47900e+03	0.0158182	700.0
2481	6.99980e+02	2.48100e+03	0.015812	700.0
2483	6.99974e+02	2.48300e+03	0.0157984	700.0
2485	6.99974e+02	2.48500e+03	0.0157697	700.0
2487	6.99966e+02	2.48700e+03	0.0157452	700.0
2489	6.99975e+02	2.48900e+03	0.0157203	700.0
2491	6.99974e+02	2.49100e+03	0.0157054	700.0
2493	6.99970e+02	2.49300e+03	0.0157102	700.0
2495	6.99975e+02	2.49500e+03	0.015729	700.0
2497	6.99979e+02	2.49700e+03	0.015771	700.0
2499	6.99967e+02	2.49900e+03	0.0158032	700.0
2501	6.99975e+02	2.50100e+03	0.0158325	700.0
2503	6.99966e+02	2.50300e+03	0.0158543	700.0
2505	6.99973e+02	2.50500e+03	0.0158823	700.0
2507	6.99965e+02	2.50700e+03	0.0159258	700.0
2509	6.99970e+02	2.50900e+03	0.0159707	700.0
2511	6.99960e+02	2.51100e+03	0.0159876	700.0
2513	6.99961e+02	2.51300e+03	0.0159578	700.0
2515	6.99957e+02	2.51500e+03	0.0159336	700.0
2517	6.99966e+02	2.51700e+03	0.0158921	700.0
2519	6.99956e+02	2.51900e+03	0.015892	700.0
2521	6.99958e+02	2.52100e+03	0.0159455	700.0
2523	6.99949e+02	2.52300e+03	0.0159719	700.0
2525	6.99954e+02	2.52500e+03	0.0159653	700.0
2527	6.99953e+02	2.52700e+03	0.015916	700.0
2529	6.99949e+02	2.52900e+03	0.0158121	700.0
2531	6.99943e+02	2.53100e+03	0.0157567	700.0
2533	6.99955e+02	2.53300e+03	0.0157207	700.0
2535	6.99952e+02	2.53500e+03	0.0156668	700.0
2537	6.99956e+02	2.53700e+03	0.0156207	700.0
2539	6.99948e+02	2.53900e+03	0.015624	700.0
2541	6.99952e+02	2.54100e+03	0.0157075	700.0
2543	6.99953e+02	2.54300e+03	0.0158057	700.0
2545	6.99950e+02	2.54500e+03	0.0159293	700.0
2547	6.99947e+02	2.54700e+03	0.0159873	700.0
2549	6.99941e+02	2.54900e+03	0.015932	700.0
2551	6.99951e+02	2.55100e+03	0.0158418	700.0
2553	6.99944e+02	2.55300e+03	0.015701	700.0
2555	6.99946e+02	2.55500e+03	0.0156449	700.0
2557	6.99935e+02	2.55700e+03	0.0156968	700.0
2559	6.99944e+02	2.55900e+03	0.0157589	700.0
2561	6.99941e+02	2.56100e+03	0.0158738	700.0
2563	6.99945e+02	2.56300e+03	0.0159357	700.0
2565	6.99942e+02	2.56500e+03	0.0159513	700.0
2567	6.99936e+02	2.56700e+03	0.0159612	700.0
2569	6.99944e+02	2.56900e+03	0.0159216	700.0
2571	6.99939e+02	2.57100e+03	0.015876	700.0
2573	6.99945e+02	2.57300e+03	0.0158078	700.0
2575	6.99940e+02	2.57500e+03	0.0157725	700.0
2577	6.99941e+02	2.57700e+03	0.015759	700.0
2579	6.99955e+02	2.57900e+03	0.0157292	700.0
2581	6.99955e+02	2.58100e+03	0.0157035	700.0
2583	6.99948e+02	2.58300e+03	0.0157058	700.0
2585	6.99946e+02	2.58500e+03	0.0157291	700.0
2587	6.99953e+02	2.58700e+03	0.0157444	700.0
2589	6.99939e+02	2.58900e+03	0.0157674	700.0
2591	6.99946e+02	2.59100e+03	0.0157767	700.0
2593	6.99948e+02	2.59300e+03	0.0157658	700.0
2595	6.99948e+02	2.59500e+03	0.0157579	700.0
2597	6.99939e+02	2.59700e+03	0.0157435	700.0
2599	6.99940e+02	2.59900e+03	0.0157286	700.0
2601	6.99948e+02	2.60100e+03	0.0157089	700.0
2603	6.99939e+02	2.60300e+03	0.0156908	700.0
2605	6.99942e+02	2.60500e+03	0.015676	700.0
2607	6.99944e+02	2.60700e+03	0.0156669	700.0
2609	6.99941e+02	2.60900e+03	0.0156621	700.0
2611	6.99946e+02	2.61100e+03	0.0156543	700.0
2613	6.99938e+02	2.61300e+03	0.0156581	700.0
2615	6.99942e+02	2.61500e+03	0.0156795	700.0
2617	6.99935e+02	2.61700e+03	0.0157236	700.0
2619	6.99943e+02	2.61900e+03	0.0157487	700.0
2621	6.99938e+02	2.62100e+03	0.0157475	700.0
2623	6.99939e+02	2.62300e+03	0.0157245	700.0
2625	6.99943e+02	2.62500e+03	0.0156652	700.0
2627	6.99945e+02	2.62700e+03	0.0156244	700.0
2629	6.99932e+02	2.62900e+03	0.0156023	700.0
2631	6.99933e+02	2.63100e+03	0.0155962	700.0
2633	6.99930e+02	2.63300e+03	0.0156288	700.0
2635	6.99927e+02	2.63500e+03	0.0156586	700.0
2637	6.99933e+02	2.63700e+03	0.015685	700.0
2639	6.99931e+02	2.63900e+03	0.0156947	700.0
2641	6.99932e+02	2.64100e+03	0.0156724	700.0
2643	6.99934e+02	2.64300e+03	0.015652	700.0
2645	6.99939e+02	2.64500e+03	0.0156164	700.0
2647	6.99941e+02	2.64700e+03	0.0155886	700.0
2649	6.99929e+02	2.64900e+03	0.0155795	700.0
2651	6.99936e+02	2.65100e+03	0.0155764	700.0
2653	6.99937e+02	2.65300e+03	0.0155772	700.0
2655	6.99930e+02	2.65500e+03	0.0155704	700.0
2657	6.99939e+02	2.65700e+03	0.0155737	700.0
2659	6.99933e+02	2.65900e+03	0.0155934	700.0
2661	6.99926e+02	2.66100e+03	0.0156371	700.0
2663	6.99937e+02	2.66300e+03	0.0156548	700.0
2665	6.99929e+02	2.66500e+03	0.0156447	700.0
2667	6.99933e+02	2.66700e+03	0.0156302	700.0
2669	6.99948e+02	2.66900e+03	0.0155859	700.0
2671	6.99930e+02	2.67100e+03	0.0155552	700.0
2673	6.99939e+02	2.67300e+03	0.015543	700.0
2675	6.99938e+02	2.67500e+03	0.0155412	700.0
2677	6.99941e+02	2.67700e+03	0.0155584	700.0
2679	6.99946e+02	2.67900e+03	0.0155622	700.0
2681	6.99930e+02	2.68100e+03	0.0155603	700.0
2683	6.99937e+02	2.68300e+03	0.0155611	700.0
2685	6.99936e+02	2.68500e+03	0.0155539	700.0
2687	6.99936e+02	2.68700e+03	0.0155302	700.0
2689	6.99942e+02	2.68900e+03	0.0154989	700.0
2691	6.99926e+02	2.69100e+03	0.0154893	700.0
2693	6.99930e+02	2.69300e+03	0.0154913	700.0
2695	6.99929e+02	2.69500e+03	0.0154912	700.0
2697	6.99941e+02	2.69700e+03	0.0155189	700.0
2699	6.99937e+02	2.69900e+03	0.0155615	700.0
2701	6.99936e+02	2.70100e+03	0.0156265	700.0
2703	6.99932e+02	2.70300e+03	0.0156669	700.0
2705	6.99941e+02	2.70500e+03	0.015677	700.0
2707	6.99935e+02	2.70700e+03	0.0156723	700.0
2709	6.99929e+02	2.70900e+03	0.0156247	700.0
2711	6.99935e+02	2.71100e+03	0.0155737	700.0
2713	6.99924e+02	2.71300e+03	0.0155236	700.0
2715	6.99937e+02	2.71500e+03	0.0154829	700.0
2717	6.99934e+02	2.71700e+03	0.0154539	700.0
2719	6.99933e+02	2.71900e+03	0.0154467	700.0
2720	6.99931e+02	2.72000e+03	0.0154484	700.0