File: Experiments/TUBS/tga_nonisotherm/tga_dynamic_n2_dyn20_powder_3mg_r2.txt
index	ts	t	weight	tr
[#]	[°C]	[s]	[mg]	[°C]
723	1.30060e+02	7.23000e+02	2.95484e+00	1.31000e+02
725	1.30715e+02	7.25000e+02	2.95478e+00	1.31667e+02
727	1.31370e+02	7.27000e+02	2.95473e+00	1.32333e+02
729	1.32044e+02	7.29000e+02	2.95468e+00	1.33000e+02
731	1.32689e+02	7.31000e+02	2.95462e+00	1.33667e+02
733	1.33379e+02	7.33000e+02	2.95457e+00	1.34333e+02
735	1.34036e+02	7.35000e+02	2.95450e+00	1.35000e+02
737	1.34703e+02	7.37000e+02	2.95439e+00	1.35667e+02
739	1.35359e+02	7.39000e+02	2.95429e+00	1.36333e+02
741	1.36033e+02	7.41000e+02	2.95417e+00	1.37000e+02
743	1.36698e+02	7.43000e+02	2.95405e+00	1.37667e+02
745	1.37359e+02	7.45000e+02	2.95391e+00	1.38333e+02
747	1.38031e+02	7.47000e+02	2.95376e+00	1.39000e+02
749	1.38699e+02	7.49000e+02	2.95358e+00	1.39667e+02
751	1.39358e+02	7.51000e+02	2.95342e+00	1.40333e+02
753	1.40035e+02	7.53000e+02	2.95326e+00	1.41000e+02
755	1.40690e+02	7.55000e+02	2.95310e+00	1.41667e+02
757	1.41364e+02	7.57000e+02	2.95296e+00	1.42333e+02
759	1.42033e+02	7.59000e+02	2.95281e+00	1.43000e+02
761	1.42716e+02	7.61000e+02	2.95266e+00	1.43667e+02
763	1.43370e+02	7.63000e+02	2.95250e+00	1.44333e+02
765	1.44045e+02	7.65000e+02	2.95231e+00	1.45000e+02
767	1.44707e+02	7.67000e+02	2.95213e+00	1.45667e+02
769	1.45376e+02	7.69000e+02	2.95192e+00	1.46333e+02
771	1.46058e+02	7.71000e+02	2.95170e+00	1.47000e+02
773	1.46722e+02	7.73000e+02	2.95146e+00	1.47667e+02
775	1.47385e+02	7.75000e+02	2.95120e+00	1.48333e+02
777	1.48058e+02	7.77000e+02	2.95093e+00	1.49000e+02
779	1.48734e+02	7.79000e+02	2.95066e+00	1.49667e+02
781	1.49401e+02	7.81000e+02	2.95038e+00	1.50333e+02
783	1.50078e+02	7.83000e+02	2.95008e+00	1.51000e+02
785	1.50757e+02	7.85000e+02	2.94975e+00	1.51667e+02
787	1.51420e+02	7.87000e+02	2.94944e+00	1.52333e+02
789	1.52087e+02	7.89000e+02	2.94913e+00	1.53000e+02
791	1.52763e+02	7.91000e+02	2.94882e+00	1.53667e+02
793	1.53424e+02	7.93000e+02	2.94851e+00	1.54333e+02
795	1.54105e+02	7.95000e+02	2.94819e+00	1.55000e+02
797	1.54774e+02	7.97000e+02	2.94785e+00	1.55667e+02
799	1.55456e+02	7.99000e+02	2.94751e+00	1.56333e+02
801	1.56125e+02	8.01000e+02	2.94715e+00	1.57000e+02
803	1.56799e+02	8.03000e+02	2.94678e+00	1.57667e+02
805	1.57464e+02	8.05000e+02	2.94639e+00	1.58333e+02
807	1.58157e+02	8.07000e+02	2.94600e+00	1.59000e+02
809	1.58827e+02	8.09000e+02	2.94558e+00	1.59667e+02
811	1.59503e+02	8.11000e+02	2.94517e+00	1.60333e+02
813	1.60170e+02	8.13000e+02	2.94475e+00	1.61000e+02
815	1.60854e+02	8.15000e+02	2.94434e+00	1.61667e+02
817	1.61533e+02	8.17000e+02	2.94395e+00	1.62333e+02
819	1.62197e+02	8.19000e+02	2.94355e+00	1.63000e+02
821	1.62879e+02	8.21000e+02	2.94314e+00	1.63667e+02
823	1.63563e+02	8.23000e+02	2.94271e+00	1.64333e+02
825	1.64226e+02	8.25000e+02	2.94224e+00	1.65000e+02
827	1.64900e+02	8.27000e+02	2.94177e+00	1.65667e+02
829	1.65579e+02	8.29000e+02	2.94127e+00	1.66333e+02
831	1.66255e+02	8.31000e+02	2.94077e+00	1.67000e+02
833	1.66934e+02	8.33000e+02	2.94022e+00	1.67667e+02
835	1.67623e+02	8.35000e+02	2.93967e+00	1.68333e+02
837	1.68304e+02	8.37000e+02	2.93906e+00	1.69000e+02
839	1.68974e+02	8.39000e+02	2.93845e+00	1.69667e+02
841	1.69655e+02	8.41000e+02	2.93780e+00	1.70333e+02
843	1.70341e+02	8.43000e+02	2.93713e+00	1.71000e+02
845	1.71010e+02	8.45000e+02	2.93639e+00	1.71667e+02
847	1.71691e+02	8.47000e+02	2.93562e+00	1.72333e+02
849	1.72386e+02	8.49000e+02	2.93475e+00	1.73000e+02
851	1.73050e+02	8.51000e+02	2.93386e+00	1.73667e+02
853	1.73756e+02	8.53000e+02	2.93286e+00	1.74333e+02
855	1.74426e+02	8.55000e+02	2.93185e+00	1.75000e+02
857	1.75116e+02	8.57000e+02	2.93073e+00	1.75667e+02
859	1.75812e+02	8.59000e+02	2.92957e+00	1.76333e+02
861	1.76498e+02	8.61000e+02	2.92830e+00	1.77000e+02
863	1.77181e+02	8.63000e+02	2.92701e+00	1.77667e+02
865	1.77869e+02	8.65000e+02	2.92561e+00	1.78333e+02
867	1.78552e+02	8.67000e+02	2.92419e+00	1.79000e+02
869	1.79236e+02	8.69000e+02	2.92266e+00	1.79667e+02
871	1.79906e+02	8.71000e+02	2.92109e+00	1.80333e+02
873	1.80602e+02	8.73000e+02	2.91941e+00	1.81000e+02
875	1.81272e+02	8.75000e+02	2.91769e+00	1.81667e+02
877	1.81954e+02	8.77000e+02	2.91585e+00	1.82333e+02
879	1.82645e+02	8.79000e+02	2.91397e+00	1.83000e+02
881	1.83323e+02	8.81000e+02	2.91198e+00	1.83667e+02
883	1.83990e+02	8.83000e+02	2.90997e+00	1.84333e+02
885	1.84668e+02	8.85000e+02	2.90786e+00	1.85000e+02
887	1.85344e+02	8.87000e+02	2.90573e+00	1.85667e+02
889	1.86025e+02	8.89000e+02	2.90351e+00	1.86333e+02
891	1.86699e+02	8.91000e+02	2.90128e+00	1.87000e+02
893	1.87369e+02	8.93000e+02	2.89896e+00	1.87667e+02
895	1.88053e+02	8.95000e+02	2.89662e+00	1.88333e+02
897	1.88734e+02	8.97000e+02	2.89424e+00	1.89000e+02
899	1.89414e+02	8.99000e+02	2.89186e+00	1.89667e+02
901	1.90081e+02	9.01000e+02	2.88946e+00	1.90333e+02
903	1.90764e+02	9.03000e+02	2.88708e+00	1.91000e+02
905	1.91451e+02	9.05000e+02	2.88471e+00	1.91667e+02
907	1.92122e+02	9.07000e+02	2.88235e+00	1.92333e+02
909	1.92806e+02	9.09000e+02	2.88001e+00	1.93000e+02
911	1.93492e+02	9.11000e+02	2.87768e+00	1.93667e+02
913	1.94150e+02	9.13000e+02	2.87540e+00	1.94333e+02
915	1.94843e+02	9.15000e+02	2.87314e+00	1.95000e+02
917	1.95514e+02	9.17000e+02	2.87096e+00	1.95667e+02
919	1.96204e+02	9.19000e+02	2.86880e+00	1.96333e+02
921	1.96876e+02	9.21000e+02	2.86675e+00	1.97000e+02
923	1.97557e+02	9.23000e+02	2.86472e+00	1.97667e+02
925	1.98244e+02	9.25000e+02	2.86280e+00	1.98333e+02
927	1.98914e+02	9.27000e+02	2.86090e+00	1.99000e+02
929	1.99600e+02	9.29000e+02	2.85913e+00	1.99667e+02
931	2.00283e+02	9.31000e+02	2.85741e+00	2.00333e+02
933	2.00962e+02	9.33000e+02	2.85584e+00	2.01000e+02
935	2.01629e+02	9.35000e+02	2.85430e+00	2.01667e+02
937	2.02313e+02	9.37000e+02	2.85289e+00	2.02333e+02
939	2.03000e+02	9.39000e+02	2.85151e+00	2.03000e+02
941	2.03664e+02	9.41000e+02	2.85026e+00	2.03667e+02
943	2.04354e+02	9.43000e+02	2.84904e+00	2.04333e+02
945	2.05026e+02	9.45000e+02	2.84795e+00	2.05000e+02
947	2.05709e+02	9.47000e+02	2.84689e+00	2.05667e+02
949	2.06388e+02	9.49000e+02	2.84594e+00	2.06333e+02
951	2.07061e+02	9.51000e+02	2.84500e+00	2.07000e+02
953	2.07754e+02	9.53000e+02	2.84416e+00	2.07667e+02
955	2.08429e+02	9.55000e+02	2.84335e+00	2.08333e+02
957	2.09098e+02	9.57000e+02	2.84262e+00	2.09000e+02
959	2.09779e+02	9.59000e+02	2.84190e+00	2.09667e+02
961	2.10460e+02	9.61000e+02	2.84128e+00	2.10333e+02
963	2.11136e+02	9.63000e+02	2.84065e+00	2.11000e+02
965	2.11815e+02	9.65000e+02	2.84008e+00	2.11667e+02
967	2.12495e+02	9.67000e+02	2.83950e+00	2.12333e+02
969	2.13168e+02	9.69000e+02	2.83895e+00	2.13000e+02
971	2.13850e+02	9.71000e+02	2.83841e+00	2.13667e+02
973	2.14513e+02	9.73000e+02	2.83790e+00	2.14333e+02
975	2.15187e+02	9.75000e+02	2.83741e+00	2.15000e+02
977	2.15864e+02	9.77000e+02	2.83694e+00	2.15667e+02
979	2.16534e+02	9.79000e+02	2.83648e+00	2.16333e+02
981	2.17201e+02	9.81000e+02	2.83602e+00	2.17000e+02
983	2.17901e+02	9.83000e+02	2.83556e+00	2.17667e+02
985	2.18575e+02	9.85000e+02	2.83509e+00	2.18333e+02
987	2.19240e+02	9.87000e+02	2.83462e+00	2.19000e+02
989	2.19917e+02	9.89000e+02	2.83416e+00	2.19667e+02
991	2.20597e+02	9.91000e+02	2.83371e+00	2.20333e+02
993	2.21270e+02	9.93000e+02	2.83328e+00	2.21000e+02
995	2.21943e+02	9.95000e+02	2.83284e+00	2.21667e+02
997	2.22628e+02	9.97000e+02	2.83237e+00	2.22333e+02
999	2.23305e+02	9.99000e+02	2.83188e+00	2.23000e+02
1001	2.23982e+02	1.00100e+03	2.83133e+00	2.23667e+02
1003	2.24664e+02	1.00300e+03	2.83079e+00	2.24333e+02
1005	2.25335e+02	1.00500e+03	2.83025e+00	2.25000e+02
1007	2.26018e+02	1.00700e+03	2.82972e+00	2.25667e+02
1009	2.26693e+02	1.00900e+03	2.82921e+00	2.26333e+02
1011	2.27372e+02	1.01100e+03	2.82870e+00	2.27000e+02
1013	2.28051e+02	1.01300e+03	2.82819e+00	2.27667e+02
1015	2.28721e+02	1.01500e+03	2.82770e+00	2.28333e+02
1017	2.29401e+02	1.01700e+03	2.82722e+00	2.29000e+02
1019	2.30074e+02	1.01900e+03	2.82677e+00	2.29667e+02
1021	2.30749e+02	1.02100e+03	2.82635e+00	2.30333e+02
1023	2.31425e+02	1.02300e+03	2.82592e+00	2.31000e+02
1025	2.32095e+02	1.02500e+03	2.82551e+00	2.31667e+02
1027	2.32763e+02	1.02700e+03	2.82509e+00	2.32333e+02
1029	2.33435e+02	1.02900e+03	2.82467e+00	2.33000e+02
1031	2.34114e+02	1.03100e+03	2.82424e+00	2.33667e+02
1033	2.34776e+02	1.03300e+03	2.82380e+00	2.34333e+02
1035	2.35459e+02	1.03500e+03	2.82337e+00	2.35000e+02
1037	2.36124e+02	1.03700e+03	2.82296e+00	2.35667e+02
1039	2.36797e+02	1.03900e+03	2.82256e+00	2.36333e+02
1041	2.37452e+02	1.04100e+03	2.82219e+00	2.37000e+02
1043	2.38129e+02	1.04300e+03	2.82182e+00	2.37667e+02
1045	2.38784e+02	1.04500e+03	2.82146e+00	2.38333e+02
1047	2.39454e+02	1.04700e+03	2.82111e+00	2.39000e+02
1049	2.40127e+02	1.04900e+03	2.82077e+00	2.39667e+02
1051	2.40769e+02	1.05100e+03	2.82043e+00	2.40333e+02
1053	2.41433e+02	1.05300e+03	2.82008e+00	2.41000e+02
1055	2.42122e+02	1.05500e+03	2.81974e+00	2.41667e+02
1057	2.42789e+02	1.05700e+03	2.81941e+00	2.42333e+02
1059	2.43481e+02	1.05900e+03	2.81908e+00	2.43000e+02
1061	2.44144e+02	1.06100e+03	2.81876e+00	2.43667e+02
1063	2.44816e+02	1.06300e+03	2.81846e+00	2.44333e+02
1065	2.45506e+02	1.06500e+03	2.81816e+00	2.45000e+02
1067	2.46185e+02	1.06700e+03	2.81787e+00	2.45667e+02
1069	2.46853e+02	1.06900e+03	2.81759e+00	2.46333e+02
1071	2.47534e+02	1.07100e+03	2.81731e+00	2.47000e+02
1073	2.48202e+02	1.07300e+03	2.81706e+00	2.47667e+02
1075	2.48879e+02	1.07500e+03	2.81681e+00	2.48333e+02
1077	2.49564e+02	1.07700e+03	2.81658e+00	2.49000e+02
1079	2.50251e+02	1.07900e+03	2.81633e+00	2.49667e+02
1081	2.50923e+02	1.08100e+03	2.81605e+00	2.50333e+02
1083	2.51635e+02	1.08300e+03	2.81576e+00	2.51000e+02
1085	2.52317e+02	1.08500e+03	2.81546e+00	2.51667e+02
1087	2.52995e+02	1.08700e+03	2.81517e+00	2.52333e+02
1089	2.53720e+02	1.08900e+03	2.81488e+00	2.53000e+02
1091	2.54411e+02	1.09100e+03	2.81460e+00	2.53667e+02
1093	2.55113e+02	1.09300e+03	2.81433e+00	2.54333e+02
1095	2.55799e+02	1.09500e+03	2.81405e+00	2.55000e+02
1097	2.56478e+02	1.09700e+03	2.81379e+00	2.55667e+02
1099	2.57157e+02	1.09900e+03	2.81354e+00	2.56333e+02
1101	2.57858e+02	1.10100e+03	2.81329e+00	2.57000e+02
1103	2.58539e+02	1.10300e+03	2.81302e+00	2.57667e+02
1105	2.59210e+02	1.10500e+03	2.81274e+00	2.58333e+02
1107	2.59894e+02	1.10700e+03	2.81245e+00	2.59000e+02
1109	2.60560e+02	1.10900e+03	2.81213e+00	2.59667e+02
1111	2.61252e+02	1.11100e+03	2.81182e+00	2.60333e+02
1113	2.61923e+02	1.11300e+03	2.81150e+00	2.61000e+02
1115	2.62594e+02	1.11500e+03	2.81118e+00	2.61667e+02
1117	2.63282e+02	1.11700e+03	2.81088e+00	2.62333e+02
1119	2.63969e+02	1.11900e+03	2.81059e+00	2.63000e+02
1121	2.64669e+02	1.12100e+03	2.81031e+00	2.63667e+02
1123	2.65335e+02	1.12300e+03	2.81000e+00	2.64333e+02
1125	2.66004e+02	1.12500e+03	2.80969e+00	2.65000e+02
1127	2.66705e+02	1.12700e+03	2.80938e+00	2.65667e+02
1129	2.67411e+02	1.12900e+03	2.80907e+00	2.66333e+02
1131	2.68125e+02	1.13100e+03	2.80877e+00	2.67000e+02
1133	2.68815e+02	1.13300e+03	2.80844e+00	2.67667e+02
1135	2.69487e+02	1.13500e+03	2.80809e+00	2.68333e+02
1137	2.70168e+02	1.13700e+03	2.80770e+00	2.69000e+02
1139	2.70859e+02	1.13900e+03	2.80732e+00	2.69667e+02
1141	2.71552e+02	1.14100e+03	2.80692e+00	2.70333e+02
1143	2.72229e+02	1.14300e+03	2.80652e+00	2.71000e+02
1145	2.72937e+02	1.14500e+03	2.80611e+00	2.71667e+02
1147	2.73650e+02	1.14700e+03	2.80568e+00	2.72333e+02
1149	2.74338e+02	1.14900e+03	2.80522e+00	2.73000e+02
1151	2.75025e+02	1.15100e+03	2.80472e+00	2.73667e+02
1153	2.75709e+02	1.15300e+03	2.80417e+00	2.74333e+02
1155	2.76389e+02	1.15500e+03	2.80362e+00	2.75000e+02
1157	2.77061e+02	1.15700e+03	2.80303e+00	2.75667e+02
1159	2.77736e+02	1.15900e+03	2.80243e+00	2.76333e+02
1161	2.78434e+02	1.16100e+03	2.80181e+00	2.77000e+02
1163	2.79127e+02	1.16300e+03	2.80116e+00	2.77667e+02
1165	2.79852e+02	1.16500e+03	2.80045e+00	2.78333e+02
1167	2.80587e+02	1.16700e+03	2.79973e+00	2.79000e+02
1169	2.81219e+02	1.16900e+03	2.79895e+00	2.79667e+02
1171	2.81884e+02	1.17100e+03	2.79816e+00	2.80333e+02
1173	2.82532e+02	1.17300e+03	2.79734e+00	2.81000e+02
1175	2.83197e+02	1.17500e+03	2.79650e+00	2.81667e+02
1177	2.83854e+02	1.17700e+03	2.79561e+00	2.82333e+02
1179	2.84520e+02	1.17900e+03	2.79470e+00	2.83000e+02
1181	2.85197e+02	1.18100e+03	2.79373e+00	2.83667e+02
1183	2.85857e+02	1.18300e+03	2.79274e+00	2.84333e+02
1185	2.86514e+02	1.18500e+03	2.79168e+00	2.85000e+02
1187	2.87173e+02	1.18700e+03	2.79061e+00	2.85667e+02
1189	2.87846e+02	1.18900e+03	2.78948e+00	2.86333e+02
1191	2.88501e+02	1.19100e+03	2.78834e+00	2.87000e+02
1193	2.89179e+02	1.19300e+03	2.78713e+00	2.87667e+02
1195	2.89830e+02	1.19500e+03	2.78588e+00	2.88333e+02
1197	2.90502e+02	1.19700e+03	2.78452e+00	2.89000e+02
1199	2.91141e+02	1.19900e+03	2.78313e+00	2.89667e+02
1201	2.91843e+02	1.20100e+03	2.78161e+00	2.90333e+02
1203	2.92530e+02	1.20300e+03	2.78009e+00	2.91000e+02
1205	2.93210e+02	1.20500e+03	2.77848e+00	2.91667e+02
1207	2.93898e+02	1.20700e+03	2.77684e+00	2.92333e+02
1209	2.94583e+02	1.20900e+03	2.77512e+00	2.93000e+02
1211	2.95263e+02	1.21100e+03	2.77337e+00	2.93667e+02
1213	2.95948e+02	1.21300e+03	2.77153e+00	2.94333e+02
1215	2.96619e+02	1.21500e+03	2.76965e+00	2.95000e+02
1217	2.97286e+02	1.21700e+03	2.76767e+00	2.95667e+02
1219	2.97954e+02	1.21900e+03	2.76568e+00	2.96333e+02
1221	2.98643e+02	1.22100e+03	2.76360e+00	2.97000e+02
1223	2.99326e+02	1.22300e+03	2.76149e+00	2.97667e+02
1225	2.99991e+02	1.22500e+03	2.75930e+00	2.98333e+02
1227	3.00633e+02	1.22700e+03	2.75708e+00	2.99000e+02
1229	3.01277e+02	1.22900e+03	2.75475e+00	2.99667e+02
1231	3.01917e+02	1.23100e+03	2.75239e+00	3.00333e+02
1233	3.02580e+02	1.23300e+03	2.74994e+00	3.01000e+02
1235	3.03229e+02	1.23500e+03	2.74747e+00	3.01667e+02
1237	3.03902e+02	1.23700e+03	2.74491e+00	3.02333e+02
1239	3.04579e+02	1.23900e+03	2.74233e+00	3.03000e+02
1241	3.05268e+02	1.24100e+03	2.73966e+00	3.03667e+02
1243	3.05935e+02	1.24300e+03	2.73697e+00	3.04333e+02
1245	3.06613e+02	1.24500e+03	2.73423e+00	3.05000e+02
1247	3.07288e+02	1.24700e+03	2.73149e+00	3.05667e+02
1249	3.07988e+02	1.24900e+03	2.72870e+00	3.06333e+02
1251	3.08651e+02	1.25100e+03	2.72591e+00	3.07000e+02
1253	3.09314e+02	1.25300e+03	2.72308e+00	3.07667e+02
1255	3.09984e+02	1.25500e+03	2.72023e+00	3.08333e+02
1257	3.10669e+02	1.25700e+03	2.71732e+00	3.09000e+02
1259	3.11346e+02	1.25900e+03	2.71441e+00	3.09667e+02
1261	3.12020e+02	1.26100e+03	2.71147e+00	3.10333e+02
1263	3.12725e+02	1.26300e+03	2.70853e+00	3.11000e+02
1265	3.13403e+02	1.26500e+03	2.70558e+00	3.11667e+02
1267	3.14060e+02	1.26700e+03	2.70264e+00	3.12333e+02
1269	3.14736e+02	1.26900e+03	2.69971e+00	3.13000e+02
1271	3.15407e+02	1.27100e+03	2.69677e+00	3.13667e+02
1273	3.16074e+02	1.27300e+03	2.69383e+00	3.14333e+02
1275	3.16732e+02	1.27500e+03	2.69088e+00	3.15000e+02
1277	3.17395e+02	1.27700e+03	2.68788e+00	3.15667e+02
1279	3.18069e+02	1.27900e+03	2.68487e+00	3.16333e+02
1281	3.18735e+02	1.28100e+03	2.68182e+00	3.17000e+02
1283	3.19398e+02	1.28300e+03	2.67877e+00	3.17667e+02
1285	3.20058e+02	1.28500e+03	2.67571e+00	3.18333e+02
1287	3.20712e+02	1.28700e+03	2.67261e+00	3.19000e+02
1289	3.21392e+02	1.28900e+03	2.66944e+00	3.19667e+02
1291	3.22051e+02	1.29100e+03	2.66624e+00	3.20333e+02
1293	3.22726e+02	1.29300e+03	2.66293e+00	3.21000e+02
1295	3.23392e+02	1.29500e+03	2.65959e+00	3.21667e+02
1297	3.24052e+02	1.29700e+03	2.65615e+00	3.22333e+02
1299	3.24720e+02	1.29900e+03	2.65267e+00	3.23000e+02
1301	3.25374e+02	1.30100e+03	2.64905e+00	3.23667e+02
1303	3.26044e+02	1.30300e+03	2.64536e+00	3.24333e+02
1305	3.26697e+02	1.30500e+03	2.64149e+00	3.25000e+02
1307	3.27349e+02	1.30700e+03	2.63755e+00	3.25667e+02
1309	3.28006e+02	1.30900e+03	2.63337e+00	3.26333e+02
1311	3.28672e+02	1.31100e+03	2.62912e+00	3.27000e+02
1313	3.29376e+02	1.31300e+03	2.62460e+00	3.27667e+02
1315	3.30022e+02	1.31500e+03	2.62000e+00	3.28333e+02
1317	3.30693e+02	1.31700e+03	2.61510e+00	3.29000e+02
1319	3.31331e+02	1.31900e+03	2.61011e+00	3.29667e+02
1321	3.31979e+02	1.32100e+03	2.60478e+00	3.30333e+02
1323	3.32645e+02	1.32300e+03	2.59935e+00	3.31000e+02
1325	3.33306e+02	1.32500e+03	2.59356e+00	3.31667e+02
1327	3.33959e+02	1.32700e+03	2.58766e+00	3.32333e+02
1329	3.34622e+02	1.32900e+03	2.58136e+00	3.33000e+02
1331	3.35269e+02	1.33100e+03	2.57496e+00	3.33667e+02
1333	3.35917e+02	1.33300e+03	2.56813e+00	3.34333e+02
1335	3.36568e+02	1.33500e+03	2.56118e+00	3.35000e+02
1337	3.37222e+02	1.33700e+03	2.55377e+00	3.35667e+02
1339	3.37873e+02	1.33900e+03	2.54620e+00	3.36333e+02
1341	3.38543e+02	1.34100e+03	2.53811e+00	3.37000e+02
1343	3.39206e+02	1.34300e+03	2.52987e+00	3.37667e+02
1345	3.39866e+02	1.34500e+03	2.52107e+00	3.38333e+02
1347	3.40528e+02	1.34700e+03	2.51211e+00	3.39000e+02
1349	3.41195e+02	1.34900e+03	2.50254e+00	3.39667e+02
1351	3.41863e+02	1.35100e+03	2.49282e+00	3.40333e+02
1353	3.42500e+02	1.35300e+03	2.48244e+00	3.41000e+02
1355	3.43153e+02	1.35500e+03	2.47190e+00	3.41667e+02
1357	3.43833e+02	1.35700e+03	2.46067e+00	3.42333e+02
1359	3.44475e+02	1.35900e+03	2.44928e+00	3.43000e+02
1361	3.45137e+02	1.36100e+03	2.43714e+00	3.43667e+02
1363	3.45792e+02	1.36300e+03	2.42481e+00	3.44333e+02
1365	3.46473e+02	1.36500e+03	2.41169e+00	3.45000e+02
1367	3.47136e+02	1.36700e+03	2.39839e+00	3.45667e+02
1369	3.47786e+02	1.36900e+03	2.38429e+00	3.46333e+02
1371	3.48444e+02	1.37100e+03	2.36999e+00	3.47000e+02
1373	3.49103e+02	1.37300e+03	2.35488e+00	3.47667e+02
1375	3.49765e+02	1.37500e+03	2.33957e+00	3.48333e+02
1377	3.50428e+02	1.37700e+03	2.32341e+00	3.49000e+02
1379	3.51138e+02	1.37900e+03	2.30703e+00	3.49667e+02
1381	3.51848e+02	1.38100e+03	2.28979e+00	3.50333e+02
1383	3.52526e+02	1.38300e+03	2.27235e+00	3.51000e+02
1385	3.53176e+02	1.38500e+03	2.25405e+00	3.51667e+02
1387	3.53818e+02	1.38700e+03	2.23554e+00	3.52333e+02
1389	3.54489e+02	1.38900e+03	2.21613e+00	3.53000e+02
1391	3.55139e+02	1.39100e+03	2.19650e+00	3.53667e+02
1393	3.55803e+02	1.39300e+03	2.17595e+00	3.54333e+02
1395	3.56468e+02	1.39500e+03	2.15523e+00	3.55000e+02
1397	3.57142e+02	1.39700e+03	2.13363e+00	3.55667e+02
1399	3.57827e+02	1.39900e+03	2.11186e+00	3.56333e+02
1401	3.58504e+02	1.40100e+03	2.08925e+00	3.57000e+02
1403	3.59187e+02	1.40300e+03	2.06644e+00	3.57667e+02
1405	3.59864e+02	1.40500e+03	2.04280e+00	3.58333e+02
1407	3.60539e+02	1.40700e+03	2.01896e+00	3.59000e+02
1409	3.61207e+02	1.40900e+03	1.99432e+00	3.59667e+02
1411	3.61855e+02	1.41100e+03	1.96953e+00	3.60333e+02
1413	3.62512e+02	1.41300e+03	1.94400e+00	3.61000e+02
1415	3.63192e+02	1.41500e+03	1.91830e+00	3.61667e+02
1417	3.63886e+02	1.41700e+03	1.89189e+00	3.62333e+02
1419	3.64543e+02	1.41900e+03	1.86530e+00	3.63000e+02
1421	3.65184e+02	1.42100e+03	1.83799e+00	3.63667e+02
1423	3.65843e+02	1.42300e+03	1.81051e+00	3.64333e+02
1425	3.66502e+02	1.42500e+03	1.78232e+00	3.65000e+02
1427	3.67173e+02	1.42700e+03	1.75402e+00	3.65667e+02
1429	3.67858e+02	1.42900e+03	1.72508e+00	3.66333e+02
1431	3.68536e+02	1.43100e+03	1.69599e+00	3.67000e+02
1433	3.69209e+02	1.43300e+03	1.66629e+00	3.67667e+02
1435	3.69894e+02	1.43500e+03	1.63649e+00	3.68333e+02
1437	3.70534e+02	1.43700e+03	1.60620e+00	3.69000e+02
1439	3.71194e+02	1.43900e+03	1.57589e+00	3.69667e+02
1441	3.71859e+02	1.44100e+03	1.54526e+00	3.70333e+02
1443	3.72530e+02	1.44300e+03	1.51460e+00	3.71000e+02
1445	3.73176e+02	1.44500e+03	1.48375e+00	3.71667e+02
1447	3.73863e+02	1.44700e+03	1.45290e+00	3.72333e+02
1449	3.74506e+02	1.44900e+03	1.42188e+00	3.73000e+02
1451	3.75163e+02	1.45100e+03	1.39073e+00	3.73667e+02
1453	3.75818e+02	1.45300e+03	1.35932e+00	3.74333e+02
1455	3.76466e+02	1.45500e+03	1.32791e+00	3.75000e+02
1457	3.77104e+02	1.45700e+03	1.29638e+00	3.75667e+02
1459	3.77742e+02	1.45900e+03	1.26492e+00	3.76333e+02
1461	3.78402e+02	1.46100e+03	1.23351e+00	3.77000e+02
1463	3.79076e+02	1.46300e+03	1.20212e+00	3.77667e+02
1465	3.79734e+02	1.46500e+03	1.17074e+00	3.78333e+02
1467	3.80387e+02	1.46700e+03	1.13934e+00	3.79000e+02
1469	3.81089e+02	1.46900e+03	1.10796e+00	3.79667e+02
1471	3.81762e+02	1.47100e+03	1.07666e+00	3.80333e+02
1473	3.82459e+02	1.47300e+03	1.04554e+00	3.81000e+02
1475	3.83084e+02	1.47500e+03	1.01451e+00	3.81667e+02
1477	3.83797e+02	1.47700e+03	9.83825e-01	3.82333e+02
1479	3.84472e+02	1.47900e+03	9.53310e-01	3.83000e+02
1481	3.85209e+02	1.48100e+03	9.23226e-01	3.83667e+02
1483	3.85848e+02	1.48300e+03	8.93137e-01	3.84333e+02
1485	3.86530e+02	1.48500e+03	8.63277e-01	3.85000e+02
1487	3.87219e+02	1.48700e+03	8.33422e-01	3.85667e+02
1489	3.87841e+02	1.48900e+03	8.03783e-01	3.86333e+02
1491	3.88476e+02	1.49100e+03	7.74333e-01	3.87000e+02
1493	3.89120e+02	1.49300e+03	7.45355e-01	3.87667e+02
1495	3.89778e+02	1.49500e+03	7.16597e-01	3.88333e+02
1497	3.90468e+02	1.49700e+03	6.88546e-01	3.89000e+02
1499	3.91127e+02	1.49900e+03	6.60719e-01	3.89667e+02
1501	3.91778e+02	1.50100e+03	6.33587e-01	3.90333e+02
1503	3.92451e+02	1.50300e+03	6.06525e-01	3.91000e+02
1505	3.93114e+02	1.50500e+03	5.80089e-01	3.91667e+02
1507	3.93771e+02	1.50700e+03	5.53939e-01	3.92333e+02
1509	3.94444e+02	1.50900e+03	5.28703e-01	3.93000e+02
1511	3.95111e+02	1.51100e+03	5.03796e-01	3.93667e+02
1513	3.95785e+02	1.51300e+03	4.80047e-01	3.94333e+02
1515	3.96459e+02	1.51500e+03	4.56614e-01	3.95000e+02
1517	3.97135e+02	1.51700e+03	4.34414e-01	3.95667e+02
1519	3.97838e+02	1.51900e+03	4.12500e-01	3.96333e+02
1521	3.98535e+02	1.52100e+03	3.91837e-01	3.97000e+02
1523	3.99182e+02	1.52300e+03	3.71487e-01	3.97667e+02
1525	3.99833e+02	1.52500e+03	3.52406e-01	3.98333e+02
1527	4.00492e+02	1.52700e+03	3.33608e-01	3.99000e+02
1529	4.01152e+02	1.52900e+03	3.16055e-01	3.99667e+02
1531	4.01823e+02	1.53100e+03	2.98780e-01	4.00333e+02
1533	4.02492e+02	1.53300e+03	2.82704e-01	4.01000e+02
1535	4.03170e+02	1.53500e+03	2.66893e-01	4.01667e+02
1537	4.03831e+02	1.53700e+03	2.52224e-01	4.02333e+02
1539	4.04507e+02	1.53900e+03	2.37795e-01	4.03000e+02
1541	4.05177e+02	1.54100e+03	2.24458e-01	4.03667e+02
1543	4.05859e+02	1.54300e+03	2.11359e-01	4.04333e+02
1545	4.06530e+02	1.54500e+03	1.99295e-01	4.05000e+02
1547	4.07234e+02	1.54700e+03	1.87427e-01	4.05667e+02
1549	4.07920e+02	1.54900e+03	1.76511e-01	4.06333e+02
1551	4.08592e+02	1.55100e+03	1.65790e-01	4.07000e+02
1553	4.09234e+02	1.55300e+03	1.55947e-01	4.07667e+02
1555	4.09911e+02	1.55500e+03	1.46271e-01	4.08333e+02
1557	4.10579e+02	1.55700e+03	1.37396e-01	4.09000e+02
1559	4.11233e+02	1.55900e+03	1.28688e-01	4.09667e+02
1561	4.11896e+02	1.56100e+03	1.20743e-01	4.10333e+02
1563	4.12560e+02	1.56300e+03	1.12974e-01	4.11000e+02
1565	4.13236e+02	1.56500e+03	1.05946e-01	4.11667e+02
1567	4.13891e+02	1.56700e+03	9.90664e-02	4.12333e+02
1569	4.14565e+02	1.56900e+03	9.28783e-02	4.13000e+02
1571	4.15249e+02	1.57100e+03	8.68266e-02	4.13667e+02
1573	4.15912e+02	1.57300e+03	8.14075e-02	4.14333e+02
1575	4.16546e+02	1.57500e+03	7.61096e-02	4.15000e+02
1577	4.17204e+02	1.57700e+03	7.13848e-02	4.15667e+02
1579	4.17882e+02	1.57900e+03	6.67689e-02	4.16333e+02
1581	4.18567e+02	1.58100e+03	6.26702e-02	4.17000e+02
1583	4.19229e+02	1.58300e+03	5.86719e-02	4.17667e+02
1585	4.19876e+02	1.58500e+03	5.51437e-02	4.18333e+02
1587	4.20512e+02	1.58700e+03	5.17016e-02	4.19000e+02
1589	4.21137e+02	1.58900e+03	4.86675e-02	4.19667e+02
1591	4.21774e+02	1.59100e+03	4.57060e-02	4.20333e+02
1593	4.22407e+02	1.59300e+03	4.31084e-02	4.21000e+02
1595	4.23056e+02	1.59500e+03	4.05860e-02	4.21667e+02
1597	4.23697e+02	1.59700e+03	3.84046e-02	4.22333e+02
1599	4.24346e+02	1.59900e+03	3.62767e-02	4.23000e+02
1601	4.24996e+02	1.60100e+03	3.44291e-02	4.23667e+02
1603	4.25671e+02	1.60300e+03	3.26164e-02	4.24333e+02
1605	4.26331e+02	1.60500e+03	3.10244e-02	4.25000e+02
1607	4.26988e+02	1.60700e+03	2.94720e-02	4.25667e+02
1609	4.27621e+02	1.60900e+03	2.81230e-02	4.26333e+02
1611	4.28276e+02	1.61100e+03	2.68116e-02	4.27000e+02
1613	4.28930e+02	1.61300e+03	2.56748e-02	4.27667e+02
1615	4.29589e+02	1.61500e+03	2.45668e-02	4.28333e+02
1617	4.30253e+02	1.61700e+03	2.36195e-02	4.29000e+02
1619	4.30909e+02	1.61900e+03	2.27169e-02	4.29667e+02
1621	4.31563e+02	1.62100e+03	2.19626e-02	4.30333e+02
1623	4.32219e+02	1.62300e+03	2.12151e-02	4.31000e+02
1625	4.32895e+02	1.62500e+03	2.05704e-02	4.31667e+02
1627	4.33556e+02	1.62700e+03	1.99416e-02	4.32333e+02
1629	4.34216e+02	1.62900e+03	1.93872e-02	4.33000e+02
1631	4.34874e+02	1.63100e+03	1.88449e-02	4.33667e+02
1633	4.35519e+02	1.63300e+03	1.83735e-02	4.34333e+02
1635	4.36167e+02	1.63500e+03	1.79242e-02	4.35000e+02
1637	4.36828e+02	1.63700e+03	1.75435e-02	4.35667e+02
1639	4.37494e+02	1.63900e+03	1.71623e-02	4.36333e+02
1641	4.38147e+02	1.64100e+03	1.68179e-02	4.37000e+02
1643	4.38792e+02	1.64300e+03	1.64731e-02	4.37667e+02
1645	4.39430e+02	1.64500e+03	1.61548e-02	4.38333e+02
1647	4.40080e+02	1.64700e+03	1.58564e-02	4.39000e+02
1649	4.40728e+02	1.64900e+03	1.56009e-02	4.39667e+02
1651	4.41387e+02	1.65100e+03	1.53538e-02	4.40333e+02
1653	4.42044e+02	1.65300e+03	1.51596e-02	4.41000e+02
1655	4.42684e+02	1.65500e+03	1.49703e-02	4.41667e+02
1657	4.43335e+02	1.65700e+03	1.48197e-02	4.42333e+02
1659	4.43971e+02	1.65900e+03	1.46642e-02	4.43000e+02
1661	4.44637e+02	1.66100e+03	1.45239e-02	4.43667e+02
1663	4.45295e+02	1.66300e+03	1.43882e-02	4.44333e+02
1665	4.45973e+02	1.66500e+03	1.42687e-02	4.45000e+02
1667	4.46639e+02	1.66700e+03	1.41525e-02	4.45667e+02
1669	4.47298e+02	1.66900e+03	1.40593e-02	4.46333e+02
1671	4.47957e+02	1.67100e+03	1.39794e-02	4.47000e+02
1673	4.48619e+02	1.67300e+03	1.39224e-02	4.47667e+02
1675	4.49290e+02	1.67500e+03	1.38586e-02	4.48333e+02
1677	4.49954e+02	1.67700e+03	1.37953e-02	4.49000e+02
1679	4.50626e+02	1.67900e+03	1.37345e-02	4.49667e+02
1681	4.51316e+02	1.68100e+03	1.36877e-02	4.50333e+02
1683	4.51993e+02	1.68300e+03	1.36614e-02	4.51000e+02
1685	4.52657e+02	1.68500e+03	1.36627e-02	4.51667e+02
1687	4.53303e+02	1.68700e+03	1.36514e-02	4.52333e+02
1689	4.53963e+02	1.68900e+03	1.36366e-02	4.53000e+02
1691	4.54626e+02	1.69100e+03	1.36191e-02	4.53667e+02
1693	4.55274e+02	1.69300e+03	1.35941e-02	4.54333e+02
1695	4.55936e+02	1.69500e+03	1.35727e-02	4.55000e+02
1697	4.56630e+02	1.69700e+03	1.35527e-02	4.55667e+02
1699	4.57293e+02	1.69900e+03	1.35313e-02	4.56333e+02
1701	4.57990e+02	1.70100e+03	1.35006e-02	4.57000e+02
1703	4.58691e+02	1.70300e+03	1.34628e-02	4.57667e+02
1705	4.59377e+02	1.70500e+03	1.34228e-02	4.58333e+02
1707	4.60037e+02	1.70700e+03	1.33959e-02	4.59000e+02
1709	4.60690e+02	1.70900e+03	1.33854e-02	4.59667e+02
1711	4.61369e+02	1.71100e+03	1.33682e-02	4.60333e+02
1713	4.62025e+02	1.71300e+03	1.33489e-02	4.61000e+02
1715	4.62697e+02	1.71500e+03	1.33180e-02	4.61667e+02
1717	4.63353e+02	1.71700e+03	1.32672e-02	4.62333e+02
1719	4.64012e+02	1.71900e+03	1.32123e-02	4.63000e+02
1721	4.64679e+02	1.72100e+03	1.31608e-02	4.63667e+02
1723	4.65350e+02	1.72300e+03	1.31195e-02	4.64333e+02
1725	4.66001e+02	1.72500e+03	1.30940e-02	4.65000e+02
1727	4.66656e+02	1.72700e+03	1.30654e-02	4.65667e+02
1729	4.67313e+02	1.72900e+03	1.30439e-02	4.66333e+02
1731	4.67955e+02	1.73100e+03	1.30242e-02	4.67000e+02
1733	4.68615e+02	1.73300e+03	1.30099e-02	4.67667e+02
1735	4.69272e+02	1.73500e+03	1.29961e-02	4.68333e+02
1737	4.69947e+02	1.73700e+03	1.29916e-02	4.69000e+02
1739	4.70595e+02	1.73900e+03	1.29873e-02	4.69667e+02
1741	4.71244e+02	1.74100e+03	1.29831e-02	4.70333e+02
1743	4.71892e+02	1.74300e+03	1.29710e-02	4.71000e+02
1745	4.72554e+02	1.74500e+03	1.29567e-02	4.71667e+02
1747	4.73217e+02	1.74700e+03	1.29462e-02	4.72333e+02
1749	4.73896e+02	1.74900e+03	1.29315e-02	4.73000e+02
1751	4.74553e+02	1.75100e+03	1.29060e-02	4.73667e+02
1753	4.75225e+02	1.75300e+03	1.28713e-02	4.74333e+02
1755	4.75868e+02	1.75500e+03	1.28464e-02	4.75000e+02
1757	4.76505e+02	1.75700e+03	1.28241e-02	4.75667e+02
1759	4.77160e+02	1.75900e+03	1.27932e-02	4.76333e+02
1761	4.77799e+02	1.76100e+03	1.27573e-02	4.77000e+02
1763	4.78442e+02	1.76300e+03	1.27208e-02	4.77667e+02
1765	4.79087e+02	1.76500e+03	1.26882e-02	4.78333e+02
1767	4.79753e+02	1.76700e+03	1.26692e-02	4.79000e+02
1769	4.80413e+02	1.76900e+03	1.26709e-02	4.79667e+02
1771	4.81098e+02	1.77100e+03	1.26725e-02	4.80333e+02
1773	4.81777e+02	1.77300e+03	1.26854e-02	4.81000e+02
1775	4.82457e+02	1.77500e+03	1.26929e-02	4.81667e+02
1777	4.83139e+02	1.77700e+03	1.26945e-02	4.82333e+02
1779	4.83807e+02	1.77900e+03	1.26926e-02	4.83000e+02
1781	4.84466e+02	1.78100e+03	1.26793e-02	4.83667e+02
1783	4.85130e+02	1.78300e+03	1.26653e-02	4.84333e+02
1785	4.85821e+02	1.78500e+03	1.26445e-02	4.85000e+02
1787	4.86477e+02	1.78700e+03	1.26237e-02	4.85667e+02
1789	4.87142e+02	1.78900e+03	1.25980e-02	4.86333e+02
1791	4.87845e+02	1.79100e+03	1.25714e-02	4.87000e+02
1793	4.88611e+02	1.79300e+03	1.25485e-02	4.87667e+02
1795	4.89294e+02	1.79500e+03	1.25353e-02	4.88333e+02
1797	4.89995e+02	1.79700e+03	1.25355e-02	4.89000e+02
1799	4.90658e+02	1.79900e+03	1.25349e-02	4.89667e+02
1801	4.91253e+02	1.80100e+03	1.25445e-02	4.90333e+02
1803	4.91872e+02	1.80300e+03	1.25538e-02	4.91000e+02
1805	4.92497e+02	1.80500e+03	1.25707e-02	4.91667e+02
1807	4.93125e+02	1.80700e+03	1.25846e-02	4.92333e+02
1809	4.93745e+02	1.80900e+03	1.25956e-02	4.93000e+02
1811	4.94307e+02	1.81100e+03	1.26024e-02	4.93667e+02
1813	4.94881e+02	1.81300e+03	1.26025e-02	4.94333e+02
1815	4.95430e+02	1.81500e+03	1.25999e-02	4.95000e+02
1817	4.96017e+02	1.81700e+03	1.25903e-02	4.95667e+02
1819	4.96625e+02	1.81900e+03	1.25776e-02	4.96333e+02
1821	4.97213e+02	1.82100e+03	1.25595e-02	4.97000e+02
1823	4.97819e+02	1.82300e+03	1.25481e-02	4.97667e+02
1825	4.98430e+02	1.82500e+03	1.25409e-02	4.98333e+02
1827	4.99055e+02	1.82700e+03	1.25235e-02	4.99000e+02
1829	4.99692e+02	1.82900e+03	1.24881e-02	4.99667e+02
1831	5.00319e+02	1.83100e+03	1.24444e-02	5.00333e+02
1833	5.00949e+02	1.83300e+03	1.23871e-02	5.01000e+02
1835	5.01585e+02	1.83500e+03	1.23425e-02	5.01667e+02
1837	5.02214e+02	1.83700e+03	1.23159e-02	5.02333e+02
1839	5.02854e+02	1.83900e+03	1.22913e-02	5.03000e+02
1841	5.03474e+02	1.84100e+03	1.22784e-02	5.03667e+02
1843	5.04114e+02	1.84300e+03	1.22626e-02	5.04333e+02
1845	5.04751e+02	1.84500e+03	1.22557e-02	5.05000e+02
1847	5.05382e+02	1.84700e+03	1.22558e-02	5.05667e+02
1849	5.06001e+02	1.84900e+03	1.22662e-02	5.06333e+02
1851	5.06644e+02	1.85100e+03	1.22675e-02	5.07000e+02
1853	5.07281e+02	1.85300e+03	1.22648e-02	5.07667e+02
1855	5.07924e+02	1.85500e+03	1.22634e-02	5.08333e+02
1857	5.08552e+02	1.85700e+03	1.22557e-02	5.09000e+02
1859	5.09184e+02	1.85900e+03	1.22360e-02	5.09667e+02
1861	5.09825e+02	1.86100e+03	1.21966e-02	5.10333e+02
1863	5.10453e+02	1.86300e+03	1.21639e-02	5.11000e+02
1865	5.11090e+02	1.86500e+03	1.21282e-02	5.11667e+02
1867	5.11726e+02	1.86700e+03	1.21059e-02	5.12333e+02
1869	5.12337e+02	1.86900e+03	1.21047e-02	5.13000e+02
1871	5.12978e+02	1.87100e+03	1.21028e-02	5.13667e+02
1873	5.13612e+02	1.87300e+03	1.21119e-02	5.14333e+02
1875	5.14261e+02	1.87500e+03	1.21184e-02	5.15000e+02
1877	5.14900e+02	1.87700e+03	1.21253e-02	5.15667e+02
1879	5.15554e+02	1.87900e+03	1.21298e-02	5.16333e+02
1881	5.16206e+02	1.88100e+03	1.21336e-02	5.17000e+02
1883	5.16838e+02	1.88300e+03	1.21386e-02	5.17667e+02
1885	5.17483e+02	1.88500e+03	1.21457e-02	5.18333e+02
1887	5.18125e+02	1.88700e+03	1.21545e-02	5.19000e+02
1889	5.18789e+02	1.88900e+03	1.21648e-02	5.19667e+02
1891	5.19437e+02	1.89100e+03	1.21772e-02	5.20333e+02
1893	5.20099e+02	1.89300e+03	1.21922e-02	5.21000e+02
1895	5.20747e+02	1.89500e+03	1.22045e-02	5.21667e+02
1897	5.21396e+02	1.89700e+03	1.22112e-02	5.22333e+02
1899	5.22042e+02	1.89900e+03	1.22163e-02	5.23000e+02
1901	5.22706e+02	1.90100e+03	1.22107e-02	5.23667e+02
1903	5.23353e+02	1.90300e+03	1.21912e-02	5.24333e+02
1905	5.24012e+02	1.90500e+03	1.21577e-02	5.25000e+02
1907	5.24666e+02	1.90700e+03	1.21384e-02	5.25667e+02
1909	5.25304e+02	1.90900e+03	1.21313e-02	5.26333e+02
1911	5.25968e+02	1.91100e+03	1.21286e-02	5.27000e+02
1913	5.26624e+02	1.91300e+03	1.21218e-02	5.27667e+02
1915	5.27277e+02	1.91500e+03	1.20962e-02	5.28333e+02
1917	5.27930e+02	1.91700e+03	1.20627e-02	5.29000e+02
1919	5.28577e+02	1.91900e+03	1.20480e-02	5.29667e+02
1921	5.29227e+02	1.92100e+03	1.20461e-02	5.30333e+02
1923	5.29892e+02	1.92300e+03	1.20375e-02	5.31000e+02
1925	5.30537e+02	1.92500e+03	1.20367e-02	5.31667e+02
1927	5.31189e+02	1.92700e+03	1.20420e-02	5.32333e+02
1929	5.31839e+02	1.92900e+03	1.20573e-02	5.33000e+02
1931	5.32511e+02	1.93100e+03	1.20684e-02	5.33667e+02
1933	5.33144e+02	1.93300e+03	1.20764e-02	5.34333e+02
1935	5.33805e+02	1.93500e+03	1.20796e-02	5.35000e+02
1937	5.34456e+02	1.93700e+03	1.20781e-02	5.35667e+02
1939	5.35113e+02	1.93900e+03	1.20789e-02	5.36333e+02
1941	5.35761e+02	1.94100e+03	1.20713e-02	5.37000e+02
1943	5.36423e+02	1.94300e+03	1.20553e-02	5.37667e+02
1945	5.37083e+02	1.94500e+03	1.20246e-02	5.38333e+02
1947	5.37735e+02	1.94700e+03	1.19976e-02	5.39000e+02
1949	5.38384e+02	1.94900e+03	1.19680e-02	5.39667e+02
1951	5.39039e+02	1.95100e+03	1.19527e-02	5.40333e+02
1953	5.39698e+02	1.95300e+03	1.19649e-02	5.41000e+02
1955	5.40349e+02	1.95500e+03	1.19852e-02	5.41667e+02
1957	5.40997e+02	1.95700e+03	1.20253e-02	5.42333e+02
1959	5.41654e+02	1.95900e+03	1.20510e-02	5.43000e+02
1961	5.42304e+02	1.96100e+03	1.20687e-02	5.43667e+02
1963	5.42958e+02	1.96300e+03	1.20846e-02	5.44333e+02
1965	5.43615e+02	1.96500e+03	1.20924e-02	5.45000e+02
1967	5.44254e+02	1.96700e+03	1.21024e-02	5.45667e+02
1969	5.44908e+02	1.96900e+03	1.21066e-02	5.46333e+02
1971	5.45559e+02	1.97100e+03	1.21084e-02	5.47000e+02
1973	5.46213e+02	1.97300e+03	1.21054e-02	5.47667e+02
1975	5.46870e+02	1.97500e+03	1.21029e-02	5.48333e+02
1977	5.47509e+02	1.97700e+03	1.20988e-02	5.49000e+02
1979	5.48157e+02	1.97900e+03	1.20955e-02	5.49667e+02
1981	5.48801e+02	1.98100e+03	1.20888e-02	5.50333e+02
1983	5.49456e+02	1.98300e+03	1.20783e-02	5.51000e+02
1985	5.50104e+02	1.98500e+03	1.20401e-02	5.51667e+02
1987	5.50768e+02	1.98700e+03	1.19893e-02	5.52333e+02
1989	5.51411e+02	1.98900e+03	1.19181e-02	5.53000e+02
1991	5.52068e+02	1.99100e+03	1.18646e-02	5.53667e+02
1993	5.52718e+02	1.99300e+03	1.18251e-02	5.54333e+02
1995	5.53381e+02	1.99500e+03	1.17946e-02	5.55000e+02
1997	5.54037e+02	1.99700e+03	1.17881e-02	5.55667e+02
1999	5.54692e+02	1.99900e+03	1.17824e-02	5.56333e+02
2001	5.55344e+02	2.00100e+03	1.17889e-02	5.57000e+02
2003	5.55993e+02	2.00300e+03	1.17981e-02	5.57667e+02
2005	5.56650e+02	2.00500e+03	1.18068e-02	5.58333e+02
2007	5.57306e+02	2.00700e+03	1.18154e-02	5.59000e+02
2009	5.57966e+02	2.00900e+03	1.18235e-02	5.59667e+02
2011	5.58622e+02	2.01100e+03	1.18283e-02	5.60333e+02
2013	5.59281e+02	2.01300e+03	1.18260e-02	5.61000e+02
2015	5.59934e+02	2.01500e+03	1.18276e-02	5.61667e+02
2017	5.60604e+02	2.01700e+03	1.18331e-02	5.62333e+02
2019	5.61256e+02	2.01900e+03	1.18385e-02	5.63000e+02
2021	5.61913e+02	2.02100e+03	1.18506e-02	5.63667e+02
2023	5.62575e+02	2.02300e+03	1.18632e-02	5.64333e+02
2025	5.63234e+02	2.02500e+03	1.18852e-02	5.65000e+02
2027	5.63894e+02	2.02700e+03	1.19122e-02	5.65667e+02
2029	5.64531e+02	2.02900e+03	1.19392e-02	5.66333e+02
2031	5.65196e+02	2.03100e+03	1.19522e-02	5.67000e+02
2033	5.65851e+02	2.03300e+03	1.19527e-02	5.67667e+02
2035	5.66501e+02	2.03500e+03	1.19624e-02	5.68333e+02
2037	5.67155e+02	2.03700e+03	1.19778e-02	5.69000e+02
2039	5.67829e+02	2.03900e+03	1.19970e-02	5.69667e+02
2041	5.68478e+02	2.04100e+03	1.20205e-02	5.70333e+02
2043	5.69130e+02	2.04300e+03	1.20298e-02	5.71000e+02
2045	5.69779e+02	2.04500e+03	1.20052e-02	5.71667e+02
2047	5.70440e+02	2.04700e+03	1.19680e-02	5.72333e+02
2049	5.71093e+02	2.04900e+03	1.19105e-02	5.73000e+02
2051	5.71757e+02	2.05100e+03	1.18841e-02	5.73667e+02
2053	5.72408e+02	2.05300e+03	1.18814e-02	5.74333e+02
2055	5.73062e+02	2.05500e+03	1.18716e-02	5.75000e+02
2057	5.73722e+02	2.05700e+03	1.18650e-02	5.75667e+02
2059	5.74380e+02	2.05900e+03	1.18539e-02	5.76333e+02
2061	5.75046e+02	2.06100e+03	1.18441e-02	5.77000e+02
2063	5.75704e+02	2.06300e+03	1.18359e-02	5.77667e+02
2065	5.76363e+02	2.06500e+03	1.18130e-02	5.78333e+02
2067	5.77012e+02	2.06700e+03	1.17774e-02	5.79000e+02
2069	5.77670e+02	2.06900e+03	1.17345e-02	5.79667e+02
2071	5.78328e+02	2.07100e+03	1.17235e-02	5.80333e+02
2073	5.78982e+02	2.07300e+03	1.17424e-02	5.81000e+02
2075	5.79650e+02	2.07500e+03	1.17536e-02	5.81667e+02
2077	5.80286e+02	2.07700e+03	1.17652e-02	5.82333e+02
2079	5.80960e+02	2.07900e+03	1.17588e-02	5.83000e+02
2081	5.81614e+02	2.08100e+03	1.17274e-02	5.83667e+02
2083	5.82277e+02	2.08300e+03	1.17047e-02	5.84333e+02
2085	5.82927e+02	2.08500e+03	1.16849e-02	5.85000e+02
2087	5.83580e+02	2.08700e+03	1.16768e-02	5.85667e+02
2089	5.84237e+02	2.08900e+03	1.16939e-02	5.86333e+02
2091	5.84888e+02	2.09100e+03	1.17102e-02	5.87000e+02
2093	5.85555e+02	2.09300e+03	1.17344e-02	5.87667e+02
2095	5.86220e+02	2.09500e+03	1.17456e-02	5.88333e+02
2097	5.86880e+02	2.09700e+03	1.17450e-02	5.89000e+02
2099	5.87540e+02	2.09900e+03	1.17461e-02	5.89667e+02
2101	5.88195e+02	2.10100e+03	1.17353e-02	5.90333e+02
2103	5.88860e+02	2.10300e+03	1.17141e-02	5.91000e+02
2105	5.89510e+02	2.10500e+03	1.16759e-02	5.91667e+02
2107	5.90157e+02	2.10700e+03	1.16380e-02	5.92333e+02
2109	5.90831e+02	2.10900e+03	1.16077e-02	5.93000e+02
2111	5.91494e+02	2.11100e+03	1.15936e-02	5.93667e+02
2113	5.92154e+02	2.11300e+03	1.16054e-02	5.94333e+02
2115	5.92828e+02	2.11500e+03	1.16106e-02	5.95000e+02
2117	5.93504e+02	2.11700e+03	1.16218e-02	5.95667e+02
2119	5.94174e+02	2.11900e+03	1.16362e-02	5.96333e+02
2121	5.94824e+02	2.12100e+03	1.16576e-02	5.97000e+02
2123	5.95515e+02	2.12300e+03	1.16833e-02	5.97667e+02
2125	5.96172e+02	2.12500e+03	1.17120e-02	5.98333e+02
2127	5.96846e+02	2.12700e+03	1.17288e-02	5.99000e+02
2129	5.97511e+02	2.12900e+03	1.17311e-02	5.99667e+02
2131	5.98186e+02	2.13100e+03	1.17384e-02	6.00333e+02
2133	5.98850e+02	2.13300e+03	1.17364e-02	6.01000e+02
2135	5.99536e+02	2.13500e+03	1.17331e-02	6.01667e+02
2137	6.00223e+02	2.13700e+03	1.17376e-02	6.02333e+02
2139	6.00879e+02	2.13900e+03	1.17429e-02	6.03000e+02
2141	6.01547e+02	2.14100e+03	1.17407e-02	6.03667e+02
2143	6.02222e+02	2.14300e+03	1.17215e-02	6.04333e+02
2145	6.02891e+02	2.14500e+03	1.16862e-02	6.05000e+02
2147	6.03551e+02	2.14700e+03	1.16686e-02	6.05667e+02
2149	6.04200e+02	2.14900e+03	1.16569e-02	6.06333e+02
2151	6.04866e+02	2.15100e+03	1.16366e-02	6.07000e+02
2153	6.05537e+02	2.15300e+03	1.16201e-02	6.07667e+02
2155	6.06201e+02	2.15500e+03	1.16131e-02	6.08333e+02
2157	6.06863e+02	2.15700e+03	1.16282e-02	6.09000e+02
2159	6.07550e+02	2.15900e+03	1.16539e-02	6.09667e+02
2161	6.08212e+02	2.16100e+03	1.17017e-02	6.10333e+02
2163	6.08875e+02	2.16300e+03	1.17406e-02	6.11000e+02
2165	6.09527e+02	2.16500e+03	1.17827e-02	6.11667e+02
2167	6.10183e+02	2.16700e+03	1.18261e-02	6.12333e+02
2169	6.10851e+02	2.16900e+03	1.18476e-02	6.13000e+02
2171	6.11506e+02	2.17100e+03	1.18458e-02	6.13667e+02
2173	6.12163e+02	2.17300e+03	1.18099e-02	6.14333e+02
2175	6.12860e+02	2.17500e+03	1.17838e-02	6.15000e+02
2177	6.13531e+02	2.17700e+03	1.17532e-02	6.15667e+02
2179	6.14226e+02	2.17900e+03	1.17272e-02	6.16333e+02
2181	6.14914e+02	2.18100e+03	1.17140e-02	6.17000e+02
2183	6.15672e+02	2.18300e+03	1.16965e-02	6.17667e+02
2185	6.16461e+02	2.18500e+03	1.16695e-02	6.18333e+02
2187	6.17240e+02	2.18700e+03	1.16273e-02	6.19000e+02
2189	6.18041e+02	2.18900e+03	1.15668e-02	6.19667e+02
2191	6.18725e+02	2.19100e+03	1.15308e-02	6.20333e+02
2193	6.19399e+02	2.19300e+03	1.15240e-02	6.21000e+02
2195	6.20037e+02	2.19500e+03	1.15344e-02	6.21667e+02
2197	6.20687e+02	2.19700e+03	1.15790e-02	6.22333e+02
2199	6.21298e+02	2.19900e+03	1.16161e-02	6.23000e+02
2201	6.21898e+02	2.20100e+03	1.16578e-02	6.23667e+02
2203	6.22515e+02	2.20300e+03	1.16913e-02	6.24333e+02
2205	6.23153e+02	2.20500e+03	1.17096e-02	6.25000e+02
2207	6.23795e+02	2.20700e+03	1.17201e-02	6.25667e+02
2209	6.24418e+02	2.20900e+03	1.17077e-02	6.26333e+02
2211	6.25049e+02	2.21100e+03	1.16963e-02	6.27000e+02
2213	6.25671e+02	2.21300e+03	1.16876e-02	6.27667e+02
2215	6.26319e+02	2.21500e+03	1.16807e-02	6.28333e+02
2217	6.26959e+02	2.21700e+03	1.16775e-02	6.29000e+02
2219	6.27610e+02	2.21900e+03	1.16681e-02	6.29667e+02
2221	6.28277e+02	2.22100e+03	1.16591e-02	6.30333e+02
2223	6.28950e+02	2.22300e+03	1.16601e-02	6.31000e+02
2225	6.29616e+02	2.22500e+03	1.16728e-02	6.31667e+02
2227	6.30271e+02	2.22700e+03	1.16761e-02	6.32333e+02
2229	6.30943e+02	2.22900e+03	1.16692e-02	6.33000e+02
2231	6.31586e+02	2.23100e+03	1.16616e-02	6.33667e+02
2233	6.32245e+02	2.23300e+03	1.16367e-02	6.34333e+02
2235	6.32900e+02	2.23500e+03	1.16101e-02	6.35000e+02
2237	6.33559e+02	2.23700e+03	1.15846e-02	6.35667e+02
2239	6.34211e+02	2.23900e+03	1.15794e-02	6.36333e+02
2241	6.34881e+02	2.24100e+03	1.15995e-02	6.37000e+02
2243	6.35537e+02	2.24300e+03	1.16242e-02	6.37667e+02
2245	6.36195e+02	2.24500e+03	1.16593e-02	6.38333e+02
2247	6.36840e+02	2.24700e+03	1.16728e-02	6.39000e+02
2249	6.37498e+02	2.24900e+03	1.16634e-02	6.39667e+02
2251	6.38165e+02	2.25100e+03	1.16496e-02	6.40333e+02
2253	6.38827e+02	2.25300e+03	1.16234e-02	6.41000e+02
2255	6.39473e+02	2.25500e+03	1.16175e-02	6.41667e+02
2257	6.40117e+02	2.25700e+03	1.16289e-02	6.42333e+02
2259	6.40788e+02	2.25900e+03	1.16296e-02	6.43000e+02
2261	6.41441e+02	2.26100e+03	1.16253e-02	6.43667e+02
2263	6.42099e+02	2.26300e+03	1.16208e-02	6.44333e+02
2265	6.42758e+02	2.26500e+03	1.16131e-02	6.45000e+02
2267	6.43427e+02	2.26700e+03	1.16152e-02	6.45667e+02
2269	6.44091e+02	2.26900e+03	1.16255e-02	6.46333e+02
2271	6.44765e+02	2.27100e+03	1.16173e-02	6.47000e+02
2273	6.45432e+02	2.27300e+03	1.15968e-02	6.47667e+02
2275	6.46107e+02	2.27500e+03	1.15732e-02	6.48333e+02
2277	6.46777e+02	2.27700e+03	1.15384e-02	6.49000e+02
2279	6.47447e+02	2.27900e+03	1.15111e-02	6.49667e+02
2281	6.48102e+02	2.28100e+03	1.15050e-02	6.50333e+02
2283	6.48779e+02	2.28300e+03	1.15147e-02	6.51000e+02
2285	6.49435e+02	2.28500e+03	1.15505e-02	6.51667e+02
2287	6.50106e+02	2.28700e+03	1.15668e-02	6.52333e+02
2289	6.50776e+02	2.28900e+03	1.15825e-02	6.53000e+02
2291	6.51445e+02	2.29100e+03	1.15971e-02	6.53667e+02
2293	6.52105e+02	2.29300e+03	1.15993e-02	6.54333e+02
2295	6.52775e+02	2.29500e+03	1.15914e-02	6.55000e+02
2297	6.53435e+02	2.29700e+03	1.15681e-02	6.55667e+02
2299	6.54108e+02	2.29900e+03	1.15482e-02	6.56333e+02
2301	6.54773e+02	2.30100e+03	1.15250e-02	6.57000e+02
2303	6.55444e+02	2.30300e+03	1.15019e-02	6.57667e+02
2305	6.56119e+02	2.30500e+03	1.14831e-02	6.58333e+02
2307	6.56764e+02	2.30700e+03	1.14766e-02	6.59000e+02
2309	6.57448e+02	2.30900e+03	1.15000e-02	6.59667e+02
2311	6.58105e+02	2.31100e+03	1.15310e-02	6.60333e+02
2313	6.58765e+02	2.31300e+03	1.15763e-02	6.61000e+02
2315	6.59430e+02	2.31500e+03	1.16014e-02	6.61667e+02
2317	6.60096e+02	2.31700e+03	1.16060e-02	6.62333e+02
2319	6.60758e+02	2.31900e+03	1.16077e-02	6.63000e+02
2321	6.61415e+02	2.32100e+03	1.15870e-02	6.63667e+02
2323	6.62066e+02	2.32300e+03	1.15645e-02	6.64333e+02
2325	6.62741e+02	2.32500e+03	1.15312e-02	6.65000e+02
2327	6.63399e+02	2.32700e+03	1.15057e-02	6.65667e+02
2329	6.64063e+02	2.32900e+03	1.14774e-02	6.66333e+02
2331	6.64730e+02	2.33100e+03	1.14456e-02	6.67000e+02
2333	6.65401e+02	2.33300e+03	1.14150e-02	6.67667e+02
2335	6.66056e+02	2.33500e+03	1.13910e-02	6.68333e+02
2337	6.66720e+02	2.33700e+03	1.13840e-02	6.69000e+02
2339	6.67397e+02	2.33900e+03	1.13757e-02	6.69667e+02
2341	6.68051e+02	2.34100e+03	1.13689e-02	6.70333e+02
2343	6.68711e+02	2.34300e+03	1.13509e-02	6.71000e+02
2345	6.69391e+02	2.34500e+03	1.13242e-02	6.71667e+02
2347	6.70053e+02	2.34700e+03	1.13152e-02	6.72333e+02
2349	6.70718e+02	2.34900e+03	1.13306e-02	6.73000e+02
2351	6.71383e+02	2.35100e+03	1.13550e-02	6.73667e+02
2353	6.72050e+02	2.35300e+03	1.13963e-02	6.74333e+02
2355	6.72709e+02	2.35500e+03	1.14305e-02	6.75000e+02
2357	6.73390e+02	2.35700e+03	1.14598e-02	6.75667e+02
2359	6.74042e+02	2.35900e+03	1.14808e-02	6.76333e+02
2361	6.74729e+02	2.36100e+03	1.14835e-02	6.77000e+02
2363	6.75386e+02	2.36300e+03	1.14830e-02	6.77667e+02
2365	6.76052e+02	2.36500e+03	1.14763e-02	6.78333e+02
2367	6.76725e+02	2.36700e+03	1.14784e-02	6.79000e+02
2369	6.77389e+02	2.36900e+03	1.14710e-02	6.79667e+02
2371	6.78066e+02	2.37100e+03	1.14572e-02	6.80333e+02
2373	6.78718e+02	2.37300e+03	1.14352e-02	6.81000e+02
2375	6.79388e+02	2.37500e+03	1.14191e-02	6.81667e+02
2377	6.80045e+02	2.37700e+03	1.14057e-02	6.82333e+02
2379	6.80707e+02	2.37900e+03	1.13822e-02	6.83000e+02
2381	6.81371e+02	2.38100e+03	1.13527e-02	6.83667e+02
2383	6.82040e+02	2.38300e+03	1.13383e-02	6.84333e+02
2385	6.82690e+02	2.38500e+03	1.13472e-02	6.85000e+02
2387	6.83351e+02	2.38700e+03	1.13592e-02	6.85667e+02
2389	6.84022e+02	2.38900e+03	1.13817e-02	6.86333e+02
2391	6.84671e+02	2.39100e+03	1.13842e-02	6.87000e+02
2393	6.85337e+02	2.39300e+03	1.13631e-02	6.87667e+02
2395	6.86002e+02	2.39500e+03	1.13363e-02	6.88333e+02
2397	6.86659e+02	2.39700e+03	1.12971e-02	6.89000e+02
2399	6.87324e+02	2.39900e+03	1.12741e-02	6.89667e+02
2401	6.87981e+02	2.40100e+03	1.12689e-02	6.90333e+02
2403	6.88645e+02	2.40300e+03	1.12609e-02	6.91000e+02
2405	6.89111e+02	2.40500e+03	1.12600e-02	6.91667e+02
2407	6.89434e+02	2.40700e+03	1.12630e-02	6.92333e+02
2409	6.89938e+02	2.40900e+03	1.12831e-02	6.93000e+02
2411	6.90412e+02	2.41100e+03	1.13092e-02	6.93667e+02
2413	6.90854e+02	2.41300e+03	1.13299e-02	6.94333e+02
2415	6.91269e+02	2.41500e+03	1.13178e-02	6.95000e+02
2417	6.91667e+02	2.41700e+03	1.12774e-02	6.95667e+02
2419	6.92032e+02	2.41900e+03	1.12548e-02	6.96333e+02
2421	6.92372e+02	2.42100e+03	1.12417e-02	6.97000e+02
2423	6.92689e+02	2.42300e+03	1.12312e-02	6.97667e+02
2425	6.92997e+02	2.42500e+03	1.12311e-02	6.98333e+02
2427	6.93279e+02	2.42700e+03	1.12311e-02	6.99000e+02
2429	6.93552e+02	2.42900e+03	1.12219e-02	6.99667e+02
2430	6.93675e+02	2.43000e+03	1.12145e-02	7.00000e+02