File: Experiments/TUBS/tga_nonisotherm/tga_dynamic_n2low30_dyn30_piece_3mg_r2.txt
Index	Ts	t	Weight	Tr
[#]	[°C]	[s]	[mg]	[°C]
681	1.30010e+02	6.81000e+02	3.02538	130.5
683	1.31004e+02	6.83000e+02	3.0253	131.5
685	1.32016e+02	6.85000e+02	3.02521	132.5
687	1.33040e+02	6.87000e+02	3.0251	133.5
689	1.34045e+02	6.89000e+02	3.025	134.5
691	1.35059e+02	6.91000e+02	3.02492	135.5
693	1.36048e+02	6.93000e+02	3.02489	136.5
695	1.37054e+02	6.95000e+02	3.02487	137.5
697	1.38062e+02	6.97000e+02	3.0249	138.5
699	1.39055e+02	6.99000e+02	3.02491	139.5
701	1.40078e+02	7.01000e+02	3.02492	140.5
703	1.41082e+02	7.03000e+02	3.02491	141.5
705	1.42076e+02	7.05000e+02	3.02489	142.5
707	1.43099e+02	7.07000e+02	3.02486	143.5
709	1.44096e+02	7.09000e+02	3.02481	144.5
711	1.45083e+02	7.11000e+02	3.02477	145.5
713	1.46089e+02	7.13000e+02	3.02471	146.5
715	1.47088e+02	7.15000e+02	3.02464	147.5
717	1.48103e+02	7.17000e+02	3.02457	148.5
719	1.49115e+02	7.19000e+02	3.0245	149.5
721	1.50119e+02	7.21000e+02	3.02443	150.5
723	1.51126e+02	7.23000e+02	3.02436	151.5
725	1.52113e+02	7.25000e+02	3.02428	152.5
727	1.53127e+02	7.27000e+02	3.02419	153.5
729	1.54130e+02	7.29000e+02	3.0241	154.5
731	1.55117e+02	7.31000e+02	3.02403	155.5
733	1.56144e+02	7.33000e+02	3.024	156.5
735	1.57147e+02	7.35000e+02	3.02397	157.5
737	1.58149e+02	7.37000e+02	3.02397	158.5
739	1.59165e+02	7.39000e+02	3.02396	159.5
741	1.60156e+02	7.41000e+02	3.02394	160.5
743	1.61172e+02	7.43000e+02	3.02389	161.5
745	1.62173e+02	7.45000e+02	3.02379	162.5
747	1.63190e+02	7.47000e+02	3.02368	163.5
749	1.64201e+02	7.49000e+02	3.02355	164.5
751	1.65204e+02	7.51000e+02	3.02344	165.5
753	1.66207e+02	7.53000e+02	3.02337	166.5
755	1.67207e+02	7.55000e+02	3.02332	167.5
757	1.68222e+02	7.57000e+02	3.02329	168.5
759	1.69243e+02	7.59000e+02	3.02324	169.5
761	1.70259e+02	7.61000e+02	3.02318	170.5
763	1.71255e+02	7.63000e+02	3.0231	171.5
765	1.72268e+02	7.65000e+02	3.02299	172.5
767	1.73270e+02	7.67000e+02	3.02286	173.5
769	1.74276e+02	7.69000e+02	3.02272	174.5
771	1.75294e+02	7.71000e+02	3.0226	175.5
773	1.76295e+02	7.73000e+02	3.02249	176.5
775	1.77308e+02	7.75000e+02	3.02238	177.5
777	1.78330e+02	7.77000e+02	3.0223	178.5
779	1.79337e+02	7.79000e+02	3.02221	179.5
781	1.80350e+02	7.81000e+02	3.02213	180.5
783	1.81349e+02	7.83000e+02	3.02203	181.5
785	1.82353e+02	7.85000e+02	3.02191	182.5
787	1.83373e+02	7.87000e+02	3.02177	183.5
789	1.84391e+02	7.89000e+02	3.02159	184.5
791	1.85383e+02	7.91000e+02	3.02139	185.5
793	1.86396e+02	7.93000e+02	3.02115	186.5
795	1.87404e+02	7.95000e+02	3.0209	187.5
797	1.88420e+02	7.97000e+02	3.0206	188.5
799	1.89426e+02	7.99000e+02	3.0203	189.5
801	1.90440e+02	8.01000e+02	3.01996	190.5
803	1.91448e+02	8.03000e+02	3.01961	191.5
805	1.92459e+02	8.05000e+02	3.01926	192.5
807	1.93473e+02	8.07000e+02	3.01889	193.5
809	1.94486e+02	8.09000e+02	3.0185	194.5
811	1.95504e+02	8.11000e+02	3.01809	195.5
813	1.96516e+02	8.13000e+02	3.01765	196.5
815	1.97538e+02	8.15000e+02	3.01718	197.5
817	1.98552e+02	8.17000e+02	3.01664	198.5
819	1.99572e+02	8.19000e+02	3.01609	199.5
821	2.00583e+02	8.21000e+02	3.01549	200.5
823	2.01591e+02	8.23000e+02	3.01489	201.5
825	2.02599e+02	8.25000e+02	3.01427	202.5
827	2.03627e+02	8.27000e+02	3.01363	203.5
829	2.04645e+02	8.29000e+02	3.01293	204.5
831	2.05703e+02	8.31000e+02	3.01224	205.5
833	2.06769e+02	8.33000e+02	3.01152	206.5
835	2.07796e+02	8.35000e+02	3.01081	207.5
837	2.08910e+02	8.37000e+02	3.01009	208.5
839	2.10015e+02	8.39000e+02	3.00935	209.5
841	2.11025e+02	8.41000e+02	3.00857	210.5
843	2.12039e+02	8.43000e+02	3.00777	211.5
845	2.13065e+02	8.45000e+02	3.0069	212.5
847	2.14087e+02	8.47000e+02	3.00602	213.5
849	2.15107e+02	8.49000e+02	3.00511	214.5
851	2.16131e+02	8.51000e+02	3.00422	215.5
853	2.17147e+02	8.53000e+02	3.00335	216.5
855	2.18184e+02	8.55000e+02	3.0025	217.5
857	2.19217e+02	8.57000e+02	3.00168	218.5
859	2.20248e+02	8.59000e+02	3.00085	219.5
861	2.21288e+02	8.61000e+02	3.00002	220.5
863	2.22339e+02	8.63000e+02	2.99919	221.5
865	2.23434e+02	8.65000e+02	2.99835	222.5
867	2.24498e+02	8.67000e+02	2.99751	223.5
869	2.25552e+02	8.69000e+02	2.99669	224.5
871	2.26582e+02	8.71000e+02	2.99587	225.5
873	2.27622e+02	8.73000e+02	2.99505	226.5
875	2.28662e+02	8.75000e+02	2.99421	227.5
877	2.29669e+02	8.77000e+02	2.99334	228.5
879	2.30744e+02	8.79000e+02	2.99246	229.5
881	2.31800e+02	8.81000e+02	2.99156	230.5
883	2.32807e+02	8.83000e+02	2.99066	231.5
885	2.33804e+02	8.85000e+02	2.98975	232.5
887	2.34812e+02	8.87000e+02	2.98884	233.5
889	2.35834e+02	8.89000e+02	2.98792	234.5
891	2.36836e+02	8.91000e+02	2.98699	235.5
893	2.37828e+02	8.93000e+02	2.98604	236.5
895	2.38850e+02	8.95000e+02	2.98509	237.5
897	2.39889e+02	8.97000e+02	2.98412	238.5
899	2.40929e+02	8.99000e+02	2.98315	239.5
901	2.41938e+02	9.01000e+02	2.98215	240.5
903	2.42957e+02	9.03000e+02	2.98114	241.5
905	2.43943e+02	9.05000e+02	2.98012	242.5
907	2.44969e+02	9.07000e+02	2.97911	243.5
909	2.45909e+02	9.09000e+02	2.9781	244.5
911	2.46948e+02	9.11000e+02	2.97708	245.5
913	2.47938e+02	9.13000e+02	2.97604	246.5
915	2.48927e+02	9.15000e+02	2.97499	247.5
917	2.49920e+02	9.17000e+02	2.97395	248.5
919	2.50931e+02	9.19000e+02	2.97292	249.5
921	2.51904e+02	9.21000e+02	2.97192	250.5
923	2.52903e+02	9.23000e+02	2.97091	251.5
925	2.53902e+02	9.25000e+02	2.9699	252.5
927	2.54917e+02	9.27000e+02	2.96889	253.5
929	2.55933e+02	9.29000e+02	2.96787	254.5
931	2.56924e+02	9.31000e+02	2.96686	255.5
933	2.57939e+02	9.33000e+02	2.96583	256.5
935	2.58954e+02	9.35000e+02	2.96479	257.5
937	2.60004e+02	9.37000e+02	2.96371	258.5
939	2.61054e+02	9.39000e+02	2.96263	259.5
941	2.62071e+02	9.41000e+02	2.96151	260.5
943	2.63069e+02	9.43000e+02	2.96039	261.5
945	2.64091e+02	9.45000e+02	2.95928	262.5
947	2.65128e+02	9.47000e+02	2.95818	263.5
949	2.66169e+02	9.49000e+02	2.95708	264.5
951	2.67193e+02	9.51000e+02	2.95598	265.5
953	2.68206e+02	9.53000e+02	2.95486	266.5
955	2.69250e+02	9.55000e+02	2.95374	267.5
957	2.70260e+02	9.57000e+02	2.95262	268.5
959	2.71312e+02	9.59000e+02	2.9515	269.5
961	2.72418e+02	9.61000e+02	2.9504	270.5
963	2.73428e+02	9.63000e+02	2.9493	271.5
965	2.74457e+02	9.65000e+02	2.94819	272.5
967	2.75481e+02	9.67000e+02	2.94706	273.5
969	2.76534e+02	9.69000e+02	2.94589	274.5
971	2.77559e+02	9.71000e+02	2.9447	275.5
973	2.78582e+02	9.73000e+02	2.9435	276.5
975	2.79628e+02	9.75000e+02	2.94231	277.5
977	2.80622e+02	9.77000e+02	2.94114	278.5
979	2.81668e+02	9.79000e+02	2.93996	279.5
981	2.82720e+02	9.81000e+02	2.93878	280.5
983	2.83790e+02	9.83000e+02	2.93757	281.5
985	2.84817e+02	9.85000e+02	2.93634	282.5
987	2.85835e+02	9.87000e+02	2.9351	283.5
989	2.86849e+02	9.89000e+02	2.93382	284.5
991	2.87885e+02	9.91000e+02	2.93253	285.5
993	2.89051e+02	9.93000e+02	2.93117	286.5
995	2.90064e+02	9.95000e+02	2.9298	287.5
997	2.91052e+02	9.97000e+02	2.92835	288.5
999	2.92073e+02	9.99000e+02	2.92689	289.5
1001	2.93149e+02	1.00100e+03	2.92535	290.5
1003	2.94272e+02	1.00300e+03	2.92379	291.5
1005	2.95269e+02	1.00500e+03	2.92216	292.5
1007	2.96278e+02	1.00700e+03	2.92054	293.5
1009	2.97333e+02	1.00900e+03	2.91889	294.5
1011	2.98356e+02	1.01100e+03	2.91725	295.5
1013	2.99431e+02	1.01300e+03	2.9156	296.5
1015	3.00395e+02	1.01500e+03	2.91389	297.5
1017	3.01328e+02	1.01700e+03	2.91205	298.5
1019	3.02305e+02	1.01900e+03	2.91015	299.5
1021	3.03216e+02	1.02100e+03	2.90807	300.5
1023	3.04148e+02	1.02300e+03	2.90598	301.5
1025	3.05109e+02	1.02500e+03	2.90377	302.5
1027	3.06081e+02	1.02700e+03	2.90155	303.5
1029	3.07091e+02	1.02900e+03	2.89922	304.5
1031	3.08105e+02	1.03100e+03	2.89683	305.5
1033	3.09098e+02	1.03300e+03	2.8943	306.5
1035	3.10065e+02	1.03500e+03	2.89174	307.5
1037	3.11030e+02	1.03700e+03	2.88907	308.5
1039	3.12043e+02	1.03900e+03	2.88638	309.5
1041	3.13038e+02	1.04100e+03	2.88359	310.5
1043	3.14065e+02	1.04300e+03	2.88077	311.5
1045	3.15080e+02	1.04500e+03	2.87783	312.5
1047	3.16072e+02	1.04700e+03	2.87486	313.5
1049	3.17059e+02	1.04900e+03	2.87178	314.5
1051	3.18059e+02	1.05100e+03	2.86868	315.5
1053	3.19037e+02	1.05300e+03	2.86551	316.5
1055	3.20035e+02	1.05500e+03	2.86234	317.5
1057	3.21034e+02	1.05700e+03	2.85911	318.5
1059	3.22051e+02	1.05900e+03	2.85587	319.5
1061	3.23037e+02	1.06100e+03	2.85258	320.5
1063	3.24067e+02	1.06300e+03	2.84928	321.5
1065	3.25116e+02	1.06500e+03	2.84594	322.5
1067	3.26126e+02	1.06700e+03	2.84261	323.5
1069	3.27131e+02	1.06900e+03	2.83923	324.5
1071	3.28136e+02	1.07100e+03	2.8358	325.5
1073	3.29139e+02	1.07300e+03	2.83227	326.5
1075	3.30198e+02	1.07500e+03	2.82873	327.5
1077	3.31198e+02	1.07700e+03	2.82508	328.5
1079	3.32216e+02	1.07900e+03	2.82137	329.5
1081	3.33239e+02	1.08100e+03	2.81751	330.5
1083	3.34263e+02	1.08300e+03	2.81356	331.5
1085	3.35279e+02	1.08500e+03	2.80935	332.5
1087	3.36313e+02	1.08700e+03	2.80503	333.5
1089	3.37413e+02	1.08900e+03	2.80037	334.5
1091	3.38422e+02	1.09100e+03	2.79563	335.5
1093	3.39461e+02	1.09300e+03	2.79058	336.5
1095	3.40472e+02	1.09500e+03	2.78549	337.5
1097	3.41546e+02	1.09700e+03	2.78011	338.5
1099	3.42594e+02	1.09900e+03	2.77458	339.5
1101	3.43582e+02	1.10100e+03	2.76857	340.5
1103	3.44585e+02	1.10300e+03	2.76236	341.5
1105	3.45596e+02	1.10500e+03	2.75546	342.5
1107	3.46630e+02	1.10700e+03	2.74833	343.5
1109	3.47695e+02	1.10900e+03	2.74041	344.5
1111	3.48800e+02	1.11100e+03	2.73229	345.5
1113	3.49831e+02	1.11300e+03	2.72332	346.5
1115	3.50830e+02	1.11500e+03	2.71408	347.5
1117	3.51836e+02	1.11700e+03	2.70384	348.5
1119	3.52821e+02	1.11900e+03	2.69331	349.5
1121	3.53846e+02	1.12100e+03	2.68158	350.5
1123	3.54817e+02	1.12300e+03	2.66945	351.5
1125	3.55846e+02	1.12500e+03	2.65593	352.5
1127	3.56888e+02	1.12700e+03	2.64199	353.5
1129	3.57908e+02	1.12900e+03	2.62635	354.5
1131	3.58864e+02	1.13100e+03	2.61006	355.5
1133	3.59944e+02	1.13300e+03	2.59159	356.5
1135	3.61031e+02	1.13500e+03	2.57249	357.5
1137	3.62028e+02	1.13700e+03	2.55104	358.5
1139	3.62964e+02	1.13900e+03	2.52907	359.5
1141	3.63928e+02	1.14100e+03	2.50487	360.5
1143	3.64882e+02	1.14300e+03	2.48022	361.5
1145	3.65852e+02	1.14500e+03	2.45345	362.5
1147	3.66833e+02	1.14700e+03	2.42612	363.5
1149	3.67803e+02	1.14900e+03	2.39642	364.5
1151	3.68777e+02	1.15100e+03	2.36594	365.5
1153	3.69750e+02	1.15300e+03	2.33277	366.5
1155	3.70817e+02	1.15500e+03	2.29905	367.5
1157	3.71856e+02	1.15700e+03	2.26275	368.5
1159	3.72819e+02	1.15900e+03	2.22583	369.5
1161	3.73815e+02	1.16100e+03	2.18627	370.5
1163	3.74858e+02	1.16300e+03	2.146	371.5
1165	3.75935e+02	1.16500e+03	2.10306	372.5
1167	3.76898e+02	1.16700e+03	2.05965	373.5
1169	3.77888e+02	1.16900e+03	2.014	374.5
1171	3.78904e+02	1.17100e+03	1.96804	375.5
1173	3.79812e+02	1.17300e+03	1.92023	376.5
1175	3.80807e+02	1.17500e+03	1.87204	377.5
1177	3.81763e+02	1.17700e+03	1.82218	378.5
1179	3.82739e+02	1.17900e+03	1.7721	379.5
1181	3.83737e+02	1.18100e+03	1.72075	380.5
1183	3.84743e+02	1.18300e+03	1.66938	381.5
1185	3.85703e+02	1.18500e+03	1.61731	382.5
1187	3.86641e+02	1.18700e+03	1.56529	383.5
1189	3.87612e+02	1.18900e+03	1.51299	384.5
1191	3.88621e+02	1.19100e+03	1.46076	385.5
1193	3.89604e+02	1.19300e+03	1.4084	386.5
1195	3.90649e+02	1.19500e+03	1.35602	387.5
1197	3.91703e+02	1.19700e+03	1.30362	388.5
1199	3.92641e+02	1.19900e+03	1.25134	389.5
1201	3.93652e+02	1.20100e+03	1.19916	390.5
1203	3.94640e+02	1.20300e+03	1.14696	391.5
1205	3.95659e+02	1.20500e+03	1.09483	392.5
1207	3.96639e+02	1.20700e+03	1.04279	393.5
1209	3.97647e+02	1.20900e+03	0.990809	394.5
1211	3.98640e+02	1.21100e+03	0.938605	395.5
1213	3.99639e+02	1.21300e+03	0.886068	396.5
1215	4.00651e+02	1.21500e+03	0.833432	397.5
1217	4.01662e+02	1.21700e+03	0.780712	398.5
1219	4.02650e+02	1.21900e+03	0.728502	399.5
1221	4.03694e+02	1.22100e+03	0.677397	400.5
1223	4.04710e+02	1.22300e+03	0.62712	401.5
1225	4.05732e+02	1.22500e+03	0.579156	402.5
1227	4.06839e+02	1.22700e+03	0.532194	403.5
1229	4.07892e+02	1.22900e+03	0.488502	404.5
1231	4.08910e+02	1.23100e+03	0.44592	405.5
1233	4.09911e+02	1.23300e+03	0.407289	406.5
1235	4.10985e+02	1.23500e+03	0.369771	407.5
1237	4.11999e+02	1.23700e+03	0.336491	408.5
1239	4.13053e+02	1.23900e+03	0.304175	409.5
1241	4.14057e+02	1.24100e+03	0.27597	410.5
1243	4.15078e+02	1.24300e+03	0.248586	411.5
1245	4.16100e+02	1.24500e+03	0.224946	412.5
1247	4.17154e+02	1.24700e+03	0.201986	413.5
1249	4.18181e+02	1.24900e+03	0.182358	414.5
1251	4.19211e+02	1.25100e+03	0.16335	415.5
1253	4.20214e+02	1.25300e+03	0.147289	416.5
1255	4.21176e+02	1.25500e+03	0.131733	417.5
1257	4.22230e+02	1.25700e+03	0.118743	418.5
1259	4.23296e+02	1.25900e+03	0.106203	419.5
1261	4.24318e+02	1.26100e+03	0.0958775	420.5
1263	4.25590e+02	1.26300e+03	0.0858931	421.5
1265	4.26737e+02	1.26500e+03	0.077748	422.5
1267	4.27665e+02	1.26700e+03	0.0698801	423.5
1269	4.28626e+02	1.26900e+03	0.0635094	424.5
1271	4.29610e+02	1.27100e+03	0.0573442	425.5
1273	4.30545e+02	1.27300e+03	0.0523691	426.5
1275	4.31519e+02	1.27500e+03	0.0475586	427.5
1277	4.32513e+02	1.27700e+03	0.0437021	428.5
1279	4.33502e+02	1.27900e+03	0.0399862	429.5
1281	4.34433e+02	1.28100e+03	0.037018	430.5
1283	4.35382e+02	1.28300e+03	0.0341168	431.5
1285	4.36397e+02	1.28500e+03	0.0317425	432.5
1287	4.37318e+02	1.28700e+03	0.0294236	433.5
1289	4.38214e+02	1.28900e+03	0.0275029	434.5
1291	4.39160e+02	1.29100e+03	0.0256568	435.5
1293	4.40063e+02	1.29300e+03	0.0241683	436.5
1295	4.41055e+02	1.29500e+03	0.0227327	437.5
1297	4.42216e+02	1.29700e+03	0.0215665	438.5
1299	4.43222e+02	1.29900e+03	0.0204136	439.5
1301	4.44158e+02	1.30100e+03	0.0194282	440.5
1303	4.45122e+02	1.30300e+03	0.0184595	441.5
1305	4.46041e+02	1.30500e+03	0.0176208	442.5
1307	4.46972e+02	1.30700e+03	0.0168045	443.5
1309	4.47936e+02	1.30900e+03	0.0160967	444.5
1311	4.48932e+02	1.31100e+03	0.0154017	445.5
1313	4.49915e+02	1.31300e+03	0.0147966	446.5
1315	4.50861e+02	1.31500e+03	0.0142056	447.5
1317	4.51834e+02	1.31700e+03	0.0137006	448.5
1319	4.52808e+02	1.31900e+03	0.0132173	449.5
1321	4.53783e+02	1.32100e+03	0.0128158	450.5
1323	4.54782e+02	1.32300e+03	0.0124329	451.5
1325	4.55769e+02	1.32500e+03	0.0121242	452.5
1327	4.56752e+02	1.32700e+03	0.0118243	453.5
1329	4.57737e+02	1.32900e+03	0.0115658	454.5
1331	4.58704e+02	1.33100e+03	0.0113109	455.5
1333	4.59688e+02	1.33300e+03	0.0111112	456.5
1335	4.60670e+02	1.33500e+03	0.0109515	457.5
1337	4.61662e+02	1.33700e+03	0.0108989	458.5
1339	4.62614e+02	1.33900e+03	0.0108511	459.5
1341	4.63577e+02	1.34100e+03	0.0108534	460.5
1343	4.64567e+02	1.34300e+03	0.0108291	461.5
1345	4.65580e+02	1.34500e+03	0.0107898	462.5
1347	4.66587e+02	1.34700e+03	0.0107475	463.5
1349	4.67558e+02	1.34900e+03	0.0106986	464.5
1351	4.68475e+02	1.35100e+03	0.0106547	465.5
1353	4.69519e+02	1.35300e+03	0.0106055	466.5
1355	4.70556e+02	1.35500e+03	0.0105486	467.5
1357	4.71502e+02	1.35700e+03	0.0104826	468.5
1359	4.72533e+02	1.35900e+03	0.0104191	469.5
1361	4.73617e+02	1.36100e+03	0.0103497	470.5
1363	4.74700e+02	1.36300e+03	0.0102814	471.5
1365	4.75610e+02	1.36500e+03	0.0102156	472.5
1367	4.76542e+02	1.36700e+03	0.0101571	473.5
1369	4.77473e+02	1.36900e+03	0.0101132	474.5
1371	4.78465e+02	1.37100e+03	0.0100764	475.5
1373	4.79449e+02	1.37300e+03	0.0100568	476.5
1375	4.80417e+02	1.37500e+03	0.0100418	477.5
1377	4.81443e+02	1.37700e+03	0.0100395	478.5
1379	4.82466e+02	1.37900e+03	0.0100338	479.5
1381	4.83503e+02	1.38100e+03	0.010025	480.5
1383	4.84498e+02	1.38300e+03	0.0100039	481.5
1385	4.85510e+02	1.38500e+03	0.0099635	482.5
1387	4.86484e+02	1.38700e+03	0.00991685	483.5
1389	4.87433e+02	1.38900e+03	0.00985431	484.5
1391	4.88423e+02	1.39100e+03	0.00980032	485.5
1393	4.89422e+02	1.39300e+03	0.00975445	486.5
1395	4.90392e+02	1.39500e+03	0.00971408	487.5
1397	4.91373e+02	1.39700e+03	0.00968909	488.5
1399	4.92343e+02	1.39900e+03	0.00966412	489.5
1401	4.93315e+02	1.40100e+03	0.00964531	490.5
1403	4.94262e+02	1.40300e+03	0.00962031	491.5
1405	4.95218e+02	1.40500e+03	0.00959271	492.5
1407	4.96181e+02	1.40700e+03	0.00956254	493.5
1409	4.97137e+02	1.40900e+03	0.00952866	494.5
1411	4.98105e+02	1.41100e+03	0.00949786	495.5
1413	4.99084e+02	1.41300e+03	0.00947276	496.5
1415	5.00055e+02	1.41500e+03	0.00945342	497.5
1417	5.01052e+02	1.41700e+03	0.0094426	498.5
1419	5.02064e+02	1.41900e+03	0.00942254	499.5
1421	5.03054e+02	1.42100e+03	0.00937928	500.5
1423	5.04001e+02	1.42300e+03	0.00932156	501.5
1425	5.04977e+02	1.42500e+03	0.00923493	502.5
1427	5.05973e+02	1.42700e+03	0.00916145	503.5
1429	5.06926e+02	1.42900e+03	0.00910213	504.5
1431	5.07874e+02	1.43100e+03	0.0090613	505.5
1433	5.08803e+02	1.43300e+03	0.00905718	506.5
1435	5.09771e+02	1.43500e+03	0.00905688	507.5
1437	5.10715e+02	1.43700e+03	0.0090683	508.5
1439	5.11677e+02	1.43900e+03	0.00906959	509.5
1441	5.12637e+02	1.44100e+03	0.00907019	510.5
1443	5.13635e+02	1.44300e+03	0.00908513	511.5
1445	5.14591e+02	1.44500e+03	0.00911113	512.5
1447	5.15560e+02	1.44700e+03	0.00912937	513.5
1449	5.16507e+02	1.44900e+03	0.00913843	514.5
1451	5.17466e+02	1.45100e+03	0.0091404	515.5
1453	5.18436e+02	1.45300e+03	0.00912107	516.5
1455	5.19383e+02	1.45500e+03	0.00909894	517.5
1457	5.20346e+02	1.45700e+03	0.00906103	518.5
1459	5.21309e+02	1.45900e+03	0.00902894	519.5
1461	5.22265e+02	1.46100e+03	0.00899837	520.5
1463	5.23246e+02	1.46300e+03	0.00896829	521.5
1465	5.24230e+02	1.46500e+03	0.00893135	522.5
1467	5.25164e+02	1.46700e+03	0.00889375	523.5
1469	5.26096e+02	1.46900e+03	0.00887029	524.5
1471	5.27057e+02	1.47100e+03	0.00887512	525.5
1473	5.28012e+02	1.47300e+03	0.00892322	526.5
1475	5.28992e+02	1.47500e+03	0.00896341	527.5
1477	5.29947e+02	1.47700e+03	0.00901901	528.5
1479	5.30921e+02	1.47900e+03	0.00906588	529.5
1481	5.31895e+02	1.48100e+03	0.00910266	530.5
1483	5.32858e+02	1.48300e+03	0.00912497	531.5
1485	5.33801e+02	1.48500e+03	0.00911237	532.5
1487	5.34767e+02	1.48700e+03	0.00908165	533.5
1489	5.35747e+02	1.48900e+03	0.0090087	534.5
1491	5.36726e+02	1.49100e+03	0.00894702	535.5
1493	5.37728e+02	1.49300e+03	0.00888789	536.5
1495	5.38720e+02	1.49500e+03	0.00883158	537.5
1497	5.39684e+02	1.49700e+03	0.00876411	538.5
1499	5.40640e+02	1.49900e+03	0.00867718	539.5
1501	5.41606e+02	1.50100e+03	0.00858646	540.5
1503	5.42572e+02	1.50300e+03	0.00854685	541.5
1505	5.43548e+02	1.50500e+03	0.00861312	542.5
1507	5.44530e+02	1.50700e+03	0.00871016	543.5
1509	5.45512e+02	1.50900e+03	0.00887654	544.5
1511	5.46470e+02	1.51100e+03	0.00899195	545.5
1513	5.47428e+02	1.51300e+03	0.00903292	546.5
1515	5.48382e+02	1.51500e+03	0.00904071	547.5
1517	5.49337e+02	1.51700e+03	0.00897733	548.5
1519	5.50305e+02	1.51900e+03	0.00894224	549.5
1521	5.51271e+02	1.52100e+03	0.00890941	550.5
1523	5.52245e+02	1.52300e+03	0.00887685	551.5
1525	5.53221e+02	1.52500e+03	0.00884884	552.5
1527	5.54160e+02	1.52700e+03	0.00881557	553.5
1529	5.55138e+02	1.52900e+03	0.00878119	554.5
1531	5.56113e+02	1.53100e+03	0.00874906	555.5
1533	5.57081e+02	1.53300e+03	0.00872821	556.5
1535	5.58024e+02	1.53500e+03	0.00871489	557.5
1537	5.58965e+02	1.53700e+03	0.00872791	558.5
1539	5.59930e+02	1.53900e+03	0.00875426	559.5
1541	5.60936e+02	1.54100e+03	0.00880913	560.5
1543	5.61922e+02	1.54300e+03	0.00885041	561.5
1545	5.62905e+02	1.54500e+03	0.00887072	562.5
1547	5.63900e+02	1.54700e+03	0.00885856	563.5
1549	5.64857e+02	1.54900e+03	0.00878962	564.5
1551	5.65857e+02	1.55100e+03	0.00872991	565.5
1553	5.66860e+02	1.55300e+03	0.0086664	566.5
1555	5.67801e+02	1.55500e+03	0.00862833	567.5
1557	5.68782e+02	1.55700e+03	0.00863308	568.5
1559	5.69726e+02	1.55900e+03	0.00864166	569.5
1561	5.70708e+02	1.56100e+03	0.00867809	570.5
1563	5.71664e+02	1.56300e+03	0.00870628	571.5
1565	5.72642e+02	1.56500e+03	0.00872521	572.5
1567	5.73622e+02	1.56700e+03	0.00873111	573.5
1569	5.74602e+02	1.56900e+03	0.00871026	574.5
1571	5.75564e+02	1.57100e+03	0.00869188	575.5
1573	5.76545e+02	1.57300e+03	0.00866941	576.5
1575	5.77506e+02	1.57500e+03	0.00866247	577.5
1577	5.78494e+02	1.57700e+03	0.00866228	578.5
1579	5.79484e+02	1.57900e+03	0.00864742	579.5
1581	5.80474e+02	1.58100e+03	0.00862149	580.5
1583	5.81459e+02	1.58300e+03	0.00860462	581.5
1585	5.82442e+02	1.58500e+03	0.00860098	582.5
1587	5.83429e+02	1.58700e+03	0.00860606	583.5
1589	5.84411e+02	1.58900e+03	0.00862478	584.5
1591	5.85420e+02	1.59100e+03	0.00862952	585.5
1593	5.86402e+02	1.59300e+03	0.00861816	586.5
1595	5.87394e+02	1.59500e+03	0.00859808	587.5
1597	5.88393e+02	1.59700e+03	0.00853863	588.5
1599	5.89394e+02	1.59900e+03	0.0084576	589.5
1601	5.90397e+02	1.60100e+03	0.00833094	590.5
1603	5.91392e+02	1.60300e+03	0.00822257	591.5
1605	5.92361e+02	1.60500e+03	0.00815453	592.5
1607	5.93342e+02	1.60700e+03	0.00813788	593.5
1609	5.94332e+02	1.60900e+03	0.0082361	594.5
1611	5.95317e+02	1.61100e+03	0.00833513	595.5
1613	5.96313e+02	1.61300e+03	0.00846982	596.5
1615	5.97315e+02	1.61500e+03	0.00855803	597.5
1617	5.98324e+02	1.61700e+03	0.00857496	598.5
1619	5.99336e+02	1.61900e+03	0.00857082	599.5
1621	6.00358e+02	1.62100e+03	0.00851037	600.5
1623	6.01385e+02	1.62300e+03	0.00846983	601.5
1625	6.02395e+02	1.62500e+03	0.00843325	602.5
1627	6.03401e+02	1.62700e+03	0.00840554	603.5
1629	6.04405e+02	1.62900e+03	0.00839097	604.5
1631	6.05392e+02	1.63100e+03	0.00836802	605.5
1633	6.06403e+02	1.63300e+03	0.00834854	606.5
1635	6.07404e+02	1.63500e+03	0.00833644	607.5
1637	6.08412e+02	1.63700e+03	0.00832968	608.5
1639	6.09412e+02	1.63900e+03	0.00831354	609.5
1641	6.10402e+02	1.64100e+03	0.00829114	610.5
1643	6.11399e+02	1.64300e+03	0.0082706	611.5
1645	6.12404e+02	1.64500e+03	0.0082561	612.5
1647	6.13393e+02	1.64700e+03	0.0082477	613.5
1649	6.14395e+02	1.64900e+03	0.00824893	614.5
1651	6.15389e+02	1.65100e+03	0.00824188	615.5
1653	6.16402e+02	1.65300e+03	0.00823547	616.5
1655	6.17385e+02	1.65500e+03	0.00824441	617.5
1657	6.18398e+02	1.65700e+03	0.00828667	618.5
1659	6.19402e+02	1.65900e+03	0.00833834	619.5
1661	6.20416e+02	1.66100e+03	0.00840406	620.5
1663	6.21428e+02	1.66300e+03	0.00843402	621.5
1665	6.22431e+02	1.66500e+03	0.00840574	622.5
1667	6.23465e+02	1.66700e+03	0.00836753	623.5
1669	6.24489e+02	1.66900e+03	0.00830614	624.5
1671	6.25505e+02	1.67100e+03	0.00827799	625.5
1673	6.26504e+02	1.67300e+03	0.00828877	626.5
1675	6.27519e+02	1.67500e+03	0.00829953	627.5
1677	6.28551e+02	1.67700e+03	0.00832729	628.5
1679	6.29600e+02	1.67900e+03	0.00834102	629.5
1681	6.30644e+02	1.68100e+03	0.00834915	630.5
1683	6.31671e+02	1.68300e+03	0.00836462	631.5
1685	6.32728e+02	1.68500e+03	0.00839743	632.5
1687	6.33780e+02	1.68700e+03	0.00843597	633.5
1689	6.34827e+02	1.68900e+03	0.00848477	634.5
1691	6.35840e+02	1.69100e+03	0.00851503	635.5
1693	6.36936e+02	1.69300e+03	0.0085162	636.5
1695	6.37995e+02	1.69500e+03	0.00850677	637.5
1697	6.38999e+02	1.69700e+03	0.00845709	638.5
1699	6.40010e+02	1.69900e+03	0.00839977	639.5
1701	6.41013e+02	1.70100e+03	0.00832155	640.5
1703	6.42047e+02	1.70300e+03	0.00826161	641.5
1705	6.43063e+02	1.70500e+03	0.00821988	642.5
1707	6.44132e+02	1.70700e+03	0.00818628	643.5
1709	6.45219e+02	1.70900e+03	0.00818232	644.5
1711	6.46261e+02	1.71100e+03	0.00817843	645.5
1713	6.47318e+02	1.71300e+03	0.0081842	646.5
1715	6.48443e+02	1.71500e+03	0.00818264	647.5
1717	6.49809e+02	1.71700e+03	0.00817026	648.5
1719	6.51148e+02	1.71900e+03	0.00815877	649.5
1721	6.52889e+02	1.72100e+03	0.00814382	650.5
1723	6.54196e+02	1.72300e+03	0.00813884	651.5
1725	6.55340e+02	1.72500e+03	0.00814295	652.5
1727	6.56269e+02	1.72700e+03	0.00814071	653.5
1729	6.56797e+02	1.72900e+03	0.00813967	654.5
1731	6.57670e+02	1.73100e+03	0.00813666	655.5
1733	6.58587e+02	1.73300e+03	0.00813234	656.5
1735	6.59551e+02	1.73500e+03	0.00813163	657.5
1737	6.60534e+02	1.73700e+03	0.00813219	658.5
1739	6.61488e+02	1.73900e+03	0.0081302	659.5
1741	6.62492e+02	1.74100e+03	0.00812938	660.5
1743	6.63475e+02	1.74300e+03	0.0081363	661.5
1745	6.64450e+02	1.74500e+03	0.00815953	662.5
1747	6.65433e+02	1.74700e+03	0.00818216	663.5
1749	6.66426e+02	1.74900e+03	0.00819679	664.5
1751	6.67397e+02	1.75100e+03	0.00819397	665.5
1753	6.68370e+02	1.75300e+03	0.0081645	666.5
1755	6.69355e+02	1.75500e+03	0.00814475	667.5
1757	6.70327e+02	1.75700e+03	0.00812333	668.5
1759	6.71309e+02	1.75900e+03	0.00810588	669.5
1761	6.72285e+02	1.76100e+03	0.00809681	670.5
1763	6.73276e+02	1.76300e+03	0.00808715	671.5
1765	6.74256e+02	1.76500e+03	0.00808782	672.5
1767	6.75215e+02	1.76700e+03	0.00808794	673.5
1769	6.76203e+02	1.76900e+03	0.00809068	674.5
1771	6.77183e+02	1.77100e+03	0.00809038	675.5
1773	6.78178e+02	1.77300e+03	0.00808903	676.5
1775	6.79142e+02	1.77500e+03	0.008086	677.5
1777	6.80123e+02	1.77700e+03	0.00807259	678.5
1779	6.81096e+02	1.77900e+03	0.00805467	679.5
1781	6.82082e+02	1.78100e+03	0.00802585	680.5
1783	6.83076e+02	1.78300e+03	0.00800003	681.5
1785	6.84056e+02	1.78500e+03	0.00796879	682.5
1787	6.85024e+02	1.78700e+03	0.00794158	683.5
1789	6.86007e+02	1.78900e+03	0.00791766	684.5
1791	6.86960e+02	1.79100e+03	0.00790673	685.5
1793	6.87922e+02	1.79300e+03	0.00792032	686.5
1795	6.88644e+02	1.79500e+03	0.00793561	687.5
1797	6.89157e+02	1.79700e+03	0.0079692	688.5
1799	6.89875e+02	1.79900e+03	0.00799588	689.5
1801	6.90582e+02	1.80100e+03	0.00802108	690.5
1803	6.91226e+02	1.80300e+03	0.00802547	691.5
1805	6.91849e+02	1.80500e+03	0.00801987	692.5
1807	6.92430e+02	1.80700e+03	0.00801099	693.5
1809	6.92985e+02	1.80900e+03	0.00800301	694.5
1811	6.93499e+02	1.81100e+03	0.00800937	695.5
1813	6.94006e+02	1.81300e+03	0.00802957	696.5
1815	6.94474e+02	1.81500e+03	0.00804944	697.5
1817	6.94914e+02	1.81700e+03	0.00806311	698.5
1819	6.95350e+02	1.81900e+03	0.00806036	699.5
1821	6.95782e+02	1.82100e+03	0.00802292	700.0
1823	6.96159e+02	1.82300e+03	0.0079866	700.0
1825	6.96523e+02	1.82500e+03	0.00793858	700.0
1827	6.96885e+02	1.82700e+03	0.0079049	700.0
1829	6.97259e+02	1.82900e+03	0.00788079	700.0
1831	6.97600e+02	1.83100e+03	0.00785427	700.0
1833	6.97923e+02	1.83300e+03	0.00782948	700.0
1835	6.98232e+02	1.83500e+03	0.00781142	700.0
1837	6.98505e+02	1.83700e+03	0.00780911	700.0
1839	6.98779e+02	1.83900e+03	0.00781325	700.0
1841	6.99062e+02	1.84100e+03	0.00784932	700.0
1843	6.99626e+02	1.84300e+03	0.00789446	700.0
1845	6.99273e+02	1.84500e+03	0.00795463	700.0
1847	6.99190e+02	1.84700e+03	0.00799738	700.0
1849	6.99201e+02	1.84900e+03	0.00801301	700.0
1851	6.99231e+02	1.85100e+03	0.00801767	700.0
1853	6.99305e+02	1.85300e+03	0.00798793	700.0
1855	6.99374e+02	1.85500e+03	0.00797057	700.0
1857	6.99461e+02	1.85700e+03	0.00795668	700.0
1859	6.99548e+02	1.85900e+03	0.00794109	700.0
1861	6.99600e+02	1.86100e+03	0.00793237	700.0
1863	6.99661e+02	1.86300e+03	0.00792035	700.0
1865	6.99747e+02	1.86500e+03	0.00789789	700.0
1867	6.99820e+02	1.86700e+03	0.00787766	700.0
1869	6.99874e+02	1.86900e+03	0.00787169	700.0
1871	6.99946e+02	1.87100e+03	0.007879	700.0
1873	7.00012e+02	1.87300e+03	0.00791026	700.0
1875	7.00068e+02	1.87500e+03	0.00793621	700.0
1877	7.00132e+02	1.87700e+03	0.0079621	700.0
1879	7.00171e+02	1.87900e+03	0.0079797	700.0
1881	7.00227e+02	1.88100e+03	0.00796896	700.0
1883	7.00278e+02	1.88300e+03	0.00795441	700.0
1885	7.00317e+02	1.88500e+03	0.00792565	700.0
1887	7.00361e+02	1.88700e+03	0.00790973	700.0
1889	7.00403e+02	1.88900e+03	0.00790122	700.0
1891	7.00448e+02	1.89100e+03	0.00788803	700.0
1893	7.00491e+02	1.89300e+03	0.00787028	700.0
1895	7.00527e+02	1.89500e+03	0.00785147	700.0
1897	7.00563e+02	1.89700e+03	0.00783212	700.0
1899	7.00597e+02	1.89900e+03	0.00781316	700.0
1901	7.00638e+02	1.90100e+03	0.00778445	700.0
1903	7.00675e+02	1.90300e+03	0.00775559	700.0
1905	7.00698e+02	1.90500e+03	0.00772674	700.0
1907	7.00737e+02	1.90700e+03	0.00772029	700.0
1909	7.00765e+02	1.90900e+03	0.00773785	700.0
1911	7.00803e+02	1.91100e+03	0.00774395	700.0
1913	7.00826e+02	1.91300e+03	0.00774695	700.0
1915	7.00859e+02	1.91500e+03	0.00774068	700.0
1917	7.00884e+02	1.91700e+03	0.0077259	700.0
1919	7.00902e+02	1.91900e+03	0.00772189	700.0
1921	7.00937e+02	1.92100e+03	0.00773169	700.0
1923	7.00955e+02	1.92300e+03	0.00774364	700.0
1925	7.00978e+02	1.92500e+03	0.00776971	700.0
1927	7.00985e+02	1.92700e+03	0.00780788	700.0
1929	7.01005e+02	1.92900e+03	0.0078579	700.0
1931	7.01024e+02	1.93100e+03	0.0079025	700.0
1933	7.01033e+02	1.93300e+03	0.0079418	700.0
1935	7.01046e+02	1.93500e+03	0.00797093	700.0
1937	7.01058e+02	1.93700e+03	0.00798066	700.0
1939	7.01079e+02	1.93900e+03	0.00798762	700.0
1941	7.01085e+02	1.94100e+03	0.00797405	700.0
1943	7.01095e+02	1.94300e+03	0.00795449	700.0
1945	7.01105e+02	1.94500e+03	0.00791525	700.0
1947	7.01127e+02	1.94700e+03	0.00788572	700.0
1949	7.01123e+02	1.94900e+03	0.00786783	700.0
1951	7.01143e+02	1.95100e+03	0.0078669	700.0
1953	7.01136e+02	1.95300e+03	0.00789156	700.0
1955	7.01162e+02	1.95500e+03	0.00790879	700.0
1957	7.01177e+02	1.95700e+03	0.0079282	700.0
1959	7.01175e+02	1.95900e+03	0.00793961	700.0
1961	7.01182e+02	1.96100e+03	0.00793677	700.0
1963	7.01194e+02	1.96300e+03	0.00793186	700.0
1965	7.01194e+02	1.96500e+03	0.00791692	700.0
1967	7.01203e+02	1.96700e+03	0.00790284	700.0
1969	7.01207e+02	1.96900e+03	0.00788339	700.0
1971	7.01216e+02	1.97100e+03	0.00786277	700.0
1973	7.01213e+02	1.97300e+03	0.00783708	700.0
1975	7.01227e+02	1.97500e+03	0.0078151	700.0
1977	7.01241e+02	1.97700e+03	0.00780927	700.0
1979	7.01236e+02	1.97900e+03	0.00780934	700.0
1981	7.01245e+02	1.98100e+03	0.00782833	700.0
1983	7.01241e+02	1.98300e+03	0.00784165	700.0
1985	7.01253e+02	1.98500e+03	0.00785274	700.0
1987	7.01258e+02	1.98700e+03	0.00785766	700.0
1989	7.01251e+02	1.98900e+03	0.00784491	700.0
1991	7.01247e+02	1.99100e+03	0.0078235	700.0
1993	7.01253e+02	1.99300e+03	0.00778081	700.0
1995	7.01239e+02	1.99500e+03	0.00774592	700.0
1997	7.01234e+02	1.99700e+03	0.00773266	700.0
1999	7.01245e+02	1.99900e+03	0.00773335	700.0
2001	7.01241e+02	2.00100e+03	0.00777103	700.0
2003	7.01240e+02	2.00300e+03	0.00780694	700.0
2005	7.01231e+02	2.00500e+03	0.00784419	700.0
2007	7.01239e+02	2.00700e+03	0.00786946	700.0
2009	7.01236e+02	2.00900e+03	0.00787465	700.0
2011	7.01240e+02	2.01100e+03	0.00787392	700.0
2013	7.01245e+02	2.01300e+03	0.00785388	700.0
2015	7.01222e+02	2.01500e+03	0.00783473	700.0
2017	7.01209e+02	2.01700e+03	0.00781026	700.0
2019	7.01190e+02	2.01900e+03	0.00779673	700.0
2021	7.01172e+02	2.02100e+03	0.00778459	700.0
2023	7.01168e+02	2.02300e+03	0.00777323	700.0
2025	7.01159e+02	2.02500e+03	0.00777101	700.0
2027	7.01154e+02	2.02700e+03	0.00777245	700.0
2029	7.01142e+02	2.02900e+03	0.00778101	700.0
2031	7.01142e+02	2.03100e+03	0.00778293	700.0
2033	7.01134e+02	2.03300e+03	0.00777245	700.0
2035	7.01132e+02	2.03500e+03	0.00775841	700.0
2037	7.01121e+02	2.03700e+03	0.00774382	700.0
2039	7.01118e+02	2.03900e+03	0.00774077	700.0
2041	7.01113e+02	2.04100e+03	0.00776506	700.0
2043	7.01104e+02	2.04300e+03	0.00779214	700.0
2045	7.01111e+02	2.04500e+03	0.00782493	700.0
2047	7.01104e+02	2.04700e+03	0.00784507	700.0
2049	7.01090e+02	2.04900e+03	0.00785625	700.0
2051	7.01090e+02	2.05100e+03	0.00788321	700.0
2053	7.01074e+02	2.05300e+03	0.00791835	700.0
2055	7.01080e+02	2.05500e+03	0.00794549	700.0
2057	7.01068e+02	2.05700e+03	0.00795732	700.0
2059	7.01071e+02	2.05900e+03	0.00795266	700.0
2061	7.01052e+02	2.06100e+03	0.00791607	700.0
2063	7.01053e+02	2.06300e+03	0.0078851	700.0
2065	7.01057e+02	2.06500e+03	0.00785173	700.0
2067	7.01045e+02	2.06700e+03	0.00782752	700.0
2069	7.01044e+02	2.06900e+03	0.00781561	700.0
2071	7.01038e+02	2.07100e+03	0.0078009	700.0
2073	7.01039e+02	2.07300e+03	0.00778232	700.0
2075	7.01028e+02	2.07500e+03	0.00775342	700.0
2077	7.01018e+02	2.07700e+03	0.00770492	700.0
2079	7.01021e+02	2.07900e+03	0.00765638	700.0
2081	7.01006e+02	2.08100e+03	0.0076073	700.0
2083	7.01011e+02	2.08300e+03	0.00757312	700.0
2085	7.01005e+02	2.08500e+03	0.00758148	700.0
2087	7.00999e+02	2.08700e+03	0.0076087	700.0
2089	7.01005e+02	2.08900e+03	0.00767491	700.0
2091	7.01002e+02	2.09100e+03	0.00772546	700.0
2093	7.00995e+02	2.09300e+03	0.00776367	700.0
2095	7.00994e+02	2.09500e+03	0.00778508	700.0
2097	7.00989e+02	2.09700e+03	0.00777213	700.0
2099	7.00991e+02	2.09900e+03	0.00775995	700.0
2101	7.00981e+02	2.10100e+03	0.00773702	700.0
2103	7.00983e+02	2.10300e+03	0.00773444	700.0
2105	7.00973e+02	2.10500e+03	0.00774538	700.0
2107	7.00976e+02	2.10700e+03	0.00774767	700.0
2109	7.00969e+02	2.10900e+03	0.0077382	700.0
2111	7.00954e+02	2.11100e+03	0.00771268	700.0
2113	7.00961e+02	2.11300e+03	0.007661	700.0
2115	7.00961e+02	2.11500e+03	0.00762653	700.0
2117	7.00946e+02	2.11700e+03	0.00759531	700.0
2119	7.00954e+02	2.11900e+03	0.00757054	700.0
2121	7.00952e+02	2.12100e+03	0.00756479	700.0
2123	7.00960e+02	2.12300e+03	0.00756447	700.0
2125	7.00949e+02	2.12500e+03	0.00758392	700.0
2127	7.00945e+02	2.12700e+03	0.00760272	700.0
2129	7.00952e+02	2.12900e+03	0.00764192	700.0
2131	7.00933e+02	2.13100e+03	0.00767658	700.0
2133	7.00934e+02	2.13300e+03	0.00771585	700.0
2135	7.00935e+02	2.13500e+03	0.00775006	700.0
2137	7.00933e+02	2.13700e+03	0.00776641	700.0
2139	7.00925e+02	2.13900e+03	0.0077747	700.0
2141	7.00929e+02	2.14100e+03	0.00776149	700.0
2143	7.00925e+02	2.14300e+03	0.00774825	700.0
2145	7.00924e+02	2.14500e+03	0.00772415	700.0
2147	7.00923e+02	2.14700e+03	0.00770635	700.0
2149	7.00912e+02	2.14900e+03	0.00770401	700.0
2151	7.00907e+02	2.15100e+03	0.00771471	700.0
2153	7.00903e+02	2.15300e+03	0.00774741	700.0
2155	7.00908e+02	2.15500e+03	0.00776952	700.0
2157	7.00898e+02	2.15700e+03	0.00777372	700.0
2159	7.00895e+02	2.15900e+03	0.00776338	700.0
2161	7.00893e+02	2.16100e+03	0.00773115	700.0
2163	7.00883e+02	2.16300e+03	0.00770871	700.0
2165	7.00885e+02	2.16500e+03	0.00768824	700.0
2167	7.00887e+02	2.16700e+03	0.00768106	700.0
2169	7.00877e+02	2.16900e+03	0.00768374	700.0
2171	7.00881e+02	2.17100e+03	0.00768286	700.0
2173	7.00871e+02	2.17300e+03	0.0076803	700.0
2175	7.00870e+02	2.17500e+03	0.00766886	700.0
2177	7.00867e+02	2.17700e+03	0.00764389	700.0
2179	7.00870e+02	2.17900e+03	0.00761923	700.0
2181	7.00865e+02	2.18100e+03	0.00758585	700.0
2183	7.00860e+02	2.18300e+03	0.00755685	700.0
2185	7.00860e+02	2.18500e+03	0.0075466	700.0
2187	7.00859e+02	2.18700e+03	0.0075463	700.0
2189	7.00866e+02	2.18900e+03	0.00757336	700.0
2191	7.00858e+02	2.19100e+03	0.00760411	700.0
2193	7.00855e+02	2.19300e+03	0.00763471	700.0
2195	7.00847e+02	2.19500e+03	0.00765075	700.0
2197	7.00852e+02	2.19700e+03	0.00765561	700.0
2199	7.00857e+02	2.19900e+03	0.00765736	700.0
2201	7.00858e+02	2.20100e+03	0.00764405	700.0
2203	7.00857e+02	2.20300e+03	0.00764179	700.0
2205	7.00846e+02	2.20500e+03	0.00763345	700.0
2207	7.00857e+02	2.20700e+03	0.00762028	700.0
2209	7.00847e+02	2.20900e+03	0.00760123	700.0
2211	7.00840e+02	2.21100e+03	0.00758376	700.0
2213	7.00846e+02	2.21300e+03	0.00757268	700.0
2215	7.00840e+02	2.21500e+03	0.00757012	700.0
2217	7.00843e+02	2.21700e+03	0.00758202	700.0
2219	7.00841e+02	2.21900e+03	0.00760163	700.0
2221	7.00844e+02	2.22100e+03	0.00762229	700.0
2223	7.00833e+02	2.22300e+03	0.00763066	700.0
2225	7.00827e+02	2.22500e+03	0.00761831	700.0
2227	7.00836e+02	2.22700e+03	0.0075982	700.0
2229	7.00839e+02	2.22900e+03	0.00756224	700.0
2231	7.00821e+02	2.23100e+03	0.0075373	700.0
2233	7.00835e+02	2.23300e+03	0.0075278	700.0
2235	7.00827e+02	2.23500e+03	0.00753417	700.0
2237	7.00823e+02	2.23700e+03	0.00755737	700.0
2239	7.00821e+02	2.23900e+03	0.00757407	700.0
2241	7.00827e+02	2.24100e+03	0.00759425	700.0
2243	7.00830e+02	2.24300e+03	0.00761609	700.0
2245	7.00818e+02	2.24500e+03	0.00764612	700.0
2247	7.00813e+02	2.24700e+03	0.00768308	700.0
2249	7.00818e+02	2.24900e+03	0.00773733	700.0
2251	7.00801e+02	2.25100e+03	0.00778028	700.0
2253	7.00813e+02	2.25300e+03	0.00780261	700.0
2255	7.00817e+02	2.25500e+03	0.00779744	700.0
2257	7.00807e+02	2.25700e+03	0.00772526	700.0
2259	7.00798e+02	2.25900e+03	0.00764798	700.0
2261	7.00802e+02	2.26100e+03	0.0075485	700.0
2263	7.00806e+02	2.26300e+03	0.00745312	700.0
2265	7.00804e+02	2.26500e+03	0.00734971	700.0
2267	7.00795e+02	2.26700e+03	0.00725946	700.0
2269	7.00798e+02	2.26900e+03	0.00724744	700.0
2271	7.00797e+02	2.27100e+03	0.00731257	700.0
2273	7.00792e+02	2.27300e+03	0.00752527	700.0
2275	7.00799e+02	2.27500e+03	0.00771222	700.0
2277	7.00792e+02	2.27700e+03	0.00789663	700.0
2279	7.00789e+02	2.27900e+03	0.00801737	700.0
2281	7.00782e+02	2.28100e+03	0.00803092	700.0
2283	7.00796e+02	2.28300e+03	0.00802987	700.0
2285	7.00787e+02	2.28500e+03	0.00795785	700.0
2287	7.00784e+02	2.28700e+03	0.00791472	700.0
2289	7.00780e+02	2.28900e+03	0.00786481	700.0
2291	7.00780e+02	2.29100e+03	0.007815	700.0
2293	7.00781e+02	2.29300e+03	0.00776467	700.0
2295	7.00778e+02	2.29500e+03	0.00771415	700.0
2297	7.00781e+02	2.29700e+03	0.00767052	700.0
2299	7.00783e+02	2.29900e+03	0.00763678	700.0
2301	7.00788e+02	2.30100e+03	0.00762261	700.0
2303	7.00790e+02	2.30300e+03	0.00760883	700.0
2305	7.00783e+02	2.30500e+03	0.00760594	700.0
2307	7.00781e+02	2.30700e+03	0.00760178	700.0
2309	7.00778e+02	2.30900e+03	0.00760135	700.0
2311	7.00780e+02	2.31100e+03	0.00760031	700.0
2313	7.00770e+02	2.31300e+03	0.00759918	700.0
2315	7.00784e+02	2.31500e+03	0.00759471	700.0
2317	7.00768e+02	2.31700e+03	0.00758234	700.0
2319	7.00777e+02	2.31900e+03	0.00756455	700.0
2321	7.00776e+02	2.32100e+03	0.00753385	700.0
2323	7.00783e+02	2.32300e+03	0.00750373	700.0
2325	7.00786e+02	2.32500e+03	0.00747597	700.0
2327	7.00784e+02	2.32700e+03	0.0074718	700.0
2329	7.00782e+02	2.32900e+03	0.00749603	700.0
2331	7.00777e+02	2.33100e+03	0.0075204	700.0
2333	7.00777e+02	2.33300e+03	0.00755587	700.0
2335	7.00781e+02	2.33500e+03	0.0075781	700.0
2337	7.00770e+02	2.33700e+03	0.00758621	700.0
2339	7.00784e+02	2.33900e+03	0.00759474	700.0
2341	7.00780e+02	2.34100e+03	0.0075964	700.0
2343	7.00777e+02	2.34300e+03	0.00759892	700.0
2345	7.00778e+02	2.34500e+03	0.00759772	700.0
2347	7.00782e+02	2.34700e+03	0.00759343	700.0
2349	7.00788e+02	2.34900e+03	0.00758501	700.0
2351	7.00782e+02	2.35100e+03	0.00758788	700.0
2353	7.00774e+02	2.35300e+03	0.0075908	700.0
2355	7.00785e+02	2.35500e+03	0.0075886	700.0
2357	7.00781e+02	2.35700e+03	0.00757937	700.0
2359	7.00787e+02	2.35900e+03	0.00757748	700.0
2361	7.00780e+02	2.36100e+03	0.00757893	700.0
2363	7.00778e+02	2.36300e+03	0.00758258	700.0
2365	7.00772e+02	2.36500e+03	0.00758328	700.0
2367	7.00779e+02	2.36700e+03	0.00756221	700.0
2369	7.00778e+02	2.36900e+03	0.00752545	700.0
2371	7.00777e+02	2.37100e+03	0.00750121	700.0
2373	7.00778e+02	2.37300e+03	0.00748868	700.0
2375	7.00783e+02	2.37500e+03	0.00747984	700.0
2377	7.00790e+02	2.37700e+03	0.00747448	700.0
2379	7.00782e+02	2.37900e+03	0.00745725	700.0
2381	7.00786e+02	2.38100e+03	0.00742514	700.0
2383	7.00782e+02	2.38300e+03	0.00739787	700.0
2385	7.00772e+02	2.38500e+03	0.00737777	700.0
2387	7.00783e+02	2.38700e+03	0.00736817	700.0
2389	7.00777e+02	2.38900e+03	0.00737668	700.0
2391	7.00782e+02	2.39100e+03	0.00738269	700.0
2393	7.00778e+02	2.39300e+03	0.00739663	700.0
2395	7.00779e+02	2.39500e+03	0.00741631	700.0
2397	7.00776e+02	2.39700e+03	0.00745545	700.0
2399	7.00781e+02	2.39900e+03	0.00748897	700.0
2401	7.00773e+02	2.40100e+03	0.00751737	700.0
2403	7.00783e+02	2.40300e+03	0.00752898	700.0
2405	7.00783e+02	2.40500e+03	0.00751706	700.0
2407	7.00775e+02	2.40700e+03	0.0075124	700.0
2409	7.00776e+02	2.40900e+03	0.00750683	700.0
2411	7.00779e+02	2.41100e+03	0.00750279	700.0
2413	7.00782e+02	2.41300e+03	0.00749591	700.0
2415	7.00772e+02	2.41500e+03	0.00748465	700.0
2417	7.00774e+02	2.41700e+03	0.00746602	700.0
2419	7.00774e+02	2.41900e+03	0.00744252	700.0
2421	7.00771e+02	2.42100e+03	0.0074155	700.0
2423	7.00781e+02	2.42300e+03	0.00738902	700.0
2425	7.00776e+02	2.42500e+03	0.00736336	700.0
2427	7.00783e+02	2.42700e+03	0.00733894	700.0
2429	7.00784e+02	2.42900e+03	0.00731709	700.0
2431	7.00776e+02	2.43100e+03	0.00729817	700.0
2433	7.00779e+02	2.43300e+03	0.00728966	700.0
2435	7.00777e+02	2.43500e+03	0.00728551	700.0
2437	7.00774e+02	2.43700e+03	0.00729128	700.0
2439	7.00765e+02	2.43900e+03	0.00729262	700.0
2441	7.00783e+02	2.44100e+03	0.00728617	700.0
2443	7.00767e+02	2.44300e+03	0.00727247	700.0
2445	7.00779e+02	2.44500e+03	0.00724834	700.0
2447	7.00772e+02	2.44700e+03	0.00723225	700.0
2449	7.00770e+02	2.44900e+03	0.00723112	700.0
2451	7.00770e+02	2.45100e+03	0.00723863	700.0
2453	7.00772e+02	2.45300e+03	0.00725949	700.0
2455	7.00782e+02	2.45500e+03	0.00727549	700.0
2457	7.00780e+02	2.45700e+03	0.00728584	700.0
2459	7.00782e+02	2.45900e+03	0.00728736	700.0
2461	7.00772e+02	2.46100e+03	0.00727293	700.0
2463	7.00778e+02	2.46300e+03	0.00725157	700.0
2465	7.00775e+02	2.46500e+03	0.00721487	700.0
2467	7.00781e+02	2.46700e+03	0.00718511	700.0
2469	7.00780e+02	2.46900e+03	0.00716588	700.0
2471	7.00781e+02	2.47100e+03	0.00715882	700.0
2473	7.00778e+02	2.47300e+03	0.0071765	700.0
2475	7.00790e+02	2.47500e+03	0.00719225	700.0
2477	7.00787e+02	2.47700e+03	0.00721061	700.0
2479	7.00775e+02	2.47900e+03	0.00721836	700.0
2481	7.00778e+02	2.48100e+03	0.00721313	700.0
2483	7.00786e+02	2.48300e+03	0.00721059	700.0
2485	7.00783e+02	2.48500e+03	0.00720601	700.0
2487	7.00783e+02	2.48700e+03	0.00720314	700.0
2489	7.00783e+02	2.48900e+03	0.00720186	700.0
2491	7.00781e+02	2.49100e+03	0.00720067	700.0
2493	7.00781e+02	2.49300e+03	0.00720035	700.0
2495	7.00774e+02	2.49500e+03	0.00719892	700.0
2497	7.00786e+02	2.49700e+03	0.00719271	700.0
2499	7.00786e+02	2.49900e+03	0.00718314	700.0
2501	7.00784e+02	2.50100e+03	0.00716913	700.0
2503	7.00782e+02	2.50300e+03	0.00716032	700.0
2505	7.00787e+02	2.50500e+03	0.0071637	700.0
2507	7.00788e+02	2.50700e+03	0.00717862	700.0
2509	7.00786e+02	2.50900e+03	0.00719503	700.0
2511	7.00785e+02	2.51100e+03	0.00719782	700.0
2513	7.00793e+02	2.51300e+03	0.00718672	700.0
2515	7.00791e+02	2.51500e+03	0.00718022	700.0
2517	7.00782e+02	2.51700e+03	0.00717753	700.0
2519	7.00797e+02	2.51900e+03	0.00718215	700.0
2521	7.00783e+02	2.52100e+03	0.0072031	700.0
2523	7.00785e+02	2.52300e+03	0.00723237	700.0
2525	7.00779e+02	2.52500e+03	0.00726795	700.0
2527	7.00788e+02	2.52700e+03	0.00729206	700.0
2529	7.00791e+02	2.52900e+03	0.00730024	700.0
2531	7.00794e+02	2.53100e+03	0.00729229	700.0
2533	7.00787e+02	2.53300e+03	0.00723126	700.0
2535	7.00792e+02	2.53500e+03	0.00715509	700.0
2537	7.00790e+02	2.53700e+03	0.00706006	700.0
2539	7.00793e+02	2.53900e+03	0.00702153	700.0
2541	7.00791e+02	2.54100e+03	0.00708895	700.0
2543	7.00786e+02	2.54300e+03	0.00717986	700.0
2545	7.00797e+02	2.54500e+03	0.00731579	700.0
2547	7.00788e+02	2.54700e+03	0.0073788	700.0
2549	7.00792e+02	2.54900e+03	0.0073301	700.0
2551	7.00796e+02	2.55100e+03	0.00725857	700.0
2553	7.00787e+02	2.55300e+03	0.00712697	700.0
2555	7.00790e+02	2.55500e+03	0.00705558	700.0
2557	7.00789e+02	2.55700e+03	0.00707372	700.0
2559	7.00788e+02	2.55900e+03	0.00712225	700.0
2561	7.00797e+02	2.56100e+03	0.00723537	700.0
2563	7.00785e+02	2.56300e+03	0.00730161	700.0
2565	7.00796e+02	2.56500e+03	0.00731922	700.0
2567	7.00787e+02	2.56700e+03	0.00732009	700.0
2569	7.00797e+02	2.56900e+03	0.00727258	700.0
2571	7.00792e+02	2.57100e+03	0.00723364	700.0
2573	7.00793e+02	2.57300e+03	0.00718494	700.0
2575	7.00792e+02	2.57500e+03	0.00714274	700.0
2577	7.00792e+02	2.57700e+03	0.00710615	700.0
2579	7.00791e+02	2.57900e+03	0.00707142	700.0
2581	7.00798e+02	2.58100e+03	0.00703283	700.0
2583	7.00795e+02	2.58300e+03	0.00699044	700.0
2585	7.00795e+02	2.58500e+03	0.00695577	700.0
2587	7.00799e+02	2.58700e+03	0.00693591	700.0
2589	7.00794e+02	2.58900e+03	0.00694236	700.0
2591	7.00797e+02	2.59100e+03	0.00694677	700.0
2593	7.00797e+02	2.59300e+03	0.00695562	700.0
2595	7.00805e+02	2.59500e+03	0.00695455	700.0
2597	7.00795e+02	2.59700e+03	0.0069412	700.0
2599	7.00799e+02	2.59900e+03	0.0069281	700.0
2601	7.00790e+02	2.60100e+03	0.00691096	700.0
2603	7.00795e+02	2.60300e+03	0.00690959	700.0
2605	7.00801e+02	2.60500e+03	0.00692015	700.0
2607	7.00808e+02	2.60700e+03	0.00693228	700.0
2609	7.00803e+02	2.60900e+03	0.00695761	700.0
2611	7.00797e+02	2.61100e+03	0.00698261	700.0
2613	7.00803e+02	2.61300e+03	0.00701476	700.0
2615	7.00812e+02	2.61500e+03	0.00704262	700.0
2617	7.00803e+02	2.61700e+03	0.00705254	700.0
2619	7.00805e+02	2.61900e+03	0.00704229	700.0
2621	7.00805e+02	2.62100e+03	0.00698967	700.0
2623	7.00804e+02	2.62300e+03	0.00693818	700.0
2625	7.00799e+02	2.62500e+03	0.00687435	700.0
2627	7.00805e+02	2.62700e+03	0.0068259	700.0
2629	7.00805e+02	2.62900e+03	0.00680387	700.0
2631	7.00802e+02	2.63100e+03	0.00679635	700.0
2633	7.00812e+02	2.63300e+03	0.00683627	700.0
2635	7.00805e+02	2.63500e+03	0.00689025	700.0
2637	7.00805e+02	2.63700e+03	0.00696526	700.0
2639	7.00818e+02	2.63900e+03	0.00701368	700.0
2641	7.00810e+02	2.64100e+03	0.00701253	700.0
2643	7.00818e+02	2.64300e+03	0.0069957	700.0
2645	7.00816e+02	2.64500e+03	0.00693371	700.0
2647	7.00814e+02	2.64700e+03	0.00689008	700.0
2649	7.00818e+02	2.64900e+03	0.00685502	700.0
2651	7.00822e+02	2.65100e+03	0.00682764	700.0
2653	7.00815e+02	2.65300e+03	0.00682754	700.0
2655	7.00820e+02	2.65500e+03	0.00684209	700.0
2657	7.00810e+02	2.65700e+03	0.00688014	700.0
2659	7.00821e+02	2.65900e+03	0.00691133	700.0
2661	7.00818e+02	2.66100e+03	0.00694285	700.0
2663	7.00819e+02	2.66300e+03	0.00696723	700.0
2665	7.00817e+02	2.66500e+03	0.00697962	700.0
2667	7.00820e+02	2.66700e+03	0.00699092	700.0
2669	7.00826e+02	2.66900e+03	0.00699288	700.0
2671	7.00821e+02	2.67100e+03	0.00698242	700.0
2673	7.00817e+02	2.67300e+03	0.00695637	700.0
2675	7.00814e+02	2.67500e+03	0.00693025	700.0
2677	7.00820e+02	2.67700e+03	0.00689777	700.0
2679	7.00821e+02	2.67900e+03	0.00687593	700.0
2681	7.00822e+02	2.68100e+03	0.00686904	700.0
2683	7.00825e+02	2.68300e+03	0.00686253	700.0
2685	7.00819e+02	2.68500e+03	0.00686094	700.0
2687	7.00818e+02	2.68700e+03	0.00685471	700.0
2689	7.00819e+02	2.68900e+03	0.00684705	700.0
2691	7.00826e+02	2.69100e+03	0.0068409	700.0
2693	7.00821e+02	2.69300e+03	0.00683236	700.0
2695	7.00826e+02	2.69500e+03	0.00682354	700.0
2697	7.00818e+02	2.69700e+03	0.00682769	700.0
2699	7.00827e+02	2.69900e+03	0.00684055	700.0
2701	7.00831e+02	2.70100e+03	0.00687694	700.0
2703	7.00836e+02	2.70300e+03	0.00690561	700.0
2705	7.00825e+02	2.70500e+03	0.0069262	700.0
2707	7.00832e+02	2.70700e+03	0.00693324	700.0
2709	7.00831e+02	2.70900e+03	0.00691365	700.0
2711	7.00828e+02	2.71100e+03	0.00687862	700.0
2713	7.00820e+02	2.71300e+03	0.00683318	700.0
2715	7.00824e+02	2.71500e+03	0.00679286	700.0
2717	7.00835e+02	2.71700e+03	0.00676273	700.0
2719	7.00833e+02	2.71900e+03	0.00674814	700.0
2720	7.00830e+02	2.72000e+03	0.0067483	700.0