File: Experiments/TUBS/tga_nonisotherm/tga_dynamic_n2high50_dyn30_piece_3mg_r3.txt
Index	Ts	t	Weight	Tr
[#]	[°C]	[s]	[mg]	[°C]
682	1.30269e+02	6.82000e+02	2.96349	131.0
684	1.31283e+02	6.84000e+02	2.96347	132.0
686	1.32271e+02	6.86000e+02	2.96345	133.0
688	1.33277e+02	6.88000e+02	2.96344	134.0
690	1.34269e+02	6.90000e+02	2.96343	135.0
692	1.35277e+02	6.92000e+02	2.9634	136.0
694	1.36268e+02	6.94000e+02	2.96334	137.0
696	1.37268e+02	6.96000e+02	2.96327	138.0
698	1.38267e+02	6.98000e+02	2.96319	139.0
700	1.39288e+02	7.00000e+02	2.96312	140.0
702	1.40289e+02	7.02000e+02	2.96305	141.0
704	1.41292e+02	7.04000e+02	2.963	142.0
706	1.42301e+02	7.06000e+02	2.96294	143.0
708	1.43303e+02	7.08000e+02	2.9629	144.0
710	1.44315e+02	7.10000e+02	2.96284	145.0
712	1.45327e+02	7.12000e+02	2.96278	146.0
714	1.46325e+02	7.14000e+02	2.9627	147.0
716	1.47331e+02	7.16000e+02	2.96263	148.0
718	1.48340e+02	7.18000e+02	2.96256	149.0
720	1.49337e+02	7.20000e+02	2.96251	150.0
722	1.50339e+02	7.22000e+02	2.96247	151.0
724	1.51354e+02	7.24000e+02	2.96243	152.0
726	1.52353e+02	7.26000e+02	2.96238	153.0
728	1.53363e+02	7.28000e+02	2.9623	154.0
730	1.54368e+02	7.30000e+02	2.96224	155.0
732	1.55377e+02	7.32000e+02	2.96219	156.0
734	1.56381e+02	7.34000e+02	2.96214	157.0
736	1.57396e+02	7.36000e+02	2.96207	158.0
738	1.58410e+02	7.38000e+02	2.96198	159.0
740	1.59422e+02	7.40000e+02	2.96187	160.0
742	1.60424e+02	7.42000e+02	2.96176	161.0
744	1.61426e+02	7.44000e+02	2.96164	162.0
746	1.62439e+02	7.46000e+02	2.96152	163.0
748	1.63431e+02	7.48000e+02	2.96142	164.0
750	1.64458e+02	7.50000e+02	2.96133	165.0
752	1.65458e+02	7.52000e+02	2.96124	166.0
754	1.66463e+02	7.54000e+02	2.96115	167.0
756	1.67476e+02	7.56000e+02	2.96105	168.0
758	1.68499e+02	7.58000e+02	2.96095	169.0
760	1.69505e+02	7.60000e+02	2.96085	170.0
762	1.70513e+02	7.62000e+02	2.96074	171.0
764	1.71529e+02	7.64000e+02	2.96064	172.0
766	1.72543e+02	7.66000e+02	2.96053	173.0
768	1.73556e+02	7.68000e+02	2.96043	174.0
770	1.74561e+02	7.70000e+02	2.96034	175.0
772	1.75563e+02	7.72000e+02	2.96025	176.0
774	1.76583e+02	7.74000e+02	2.96016	177.0
776	1.77594e+02	7.76000e+02	2.96004	178.0
778	1.78609e+02	7.78000e+02	2.9599	179.0
780	1.79621e+02	7.80000e+02	2.95972	180.0
782	1.80630e+02	7.82000e+02	2.95952	181.0
784	1.81643e+02	7.84000e+02	2.95932	182.0
786	1.82654e+02	7.86000e+02	2.95911	183.0
788	1.83664e+02	7.88000e+02	2.95891	184.0
790	1.84678e+02	7.90000e+02	2.95871	185.0
792	1.85692e+02	7.92000e+02	2.9585	186.0
794	1.86713e+02	7.94000e+02	2.95829	187.0
796	1.87720e+02	7.96000e+02	2.95806	188.0
798	1.88726e+02	7.98000e+02	2.9578	189.0
800	1.89735e+02	8.00000e+02	2.95748	190.0
802	1.90749e+02	8.02000e+02	2.95714	191.0
804	1.91767e+02	8.04000e+02	2.95675	192.0
806	1.92785e+02	8.06000e+02	2.95637	193.0
808	1.93789e+02	8.08000e+02	2.95598	194.0
810	1.94796e+02	8.10000e+02	2.95557	195.0
812	1.95818e+02	8.12000e+02	2.95512	196.0
814	1.96813e+02	8.14000e+02	2.95465	197.0
816	1.97819e+02	8.16000e+02	2.95414	198.0
818	1.98850e+02	8.18000e+02	2.95362	199.0
820	1.99853e+02	8.20000e+02	2.95309	200.0
822	2.00860e+02	8.22000e+02	2.95256	201.0
824	2.01876e+02	8.24000e+02	2.95205	202.0
826	2.02897e+02	8.26000e+02	2.95151	203.0
828	2.03900e+02	8.28000e+02	2.95094	204.0
830	2.04913e+02	8.30000e+02	2.95035	205.0
832	2.05924e+02	8.32000e+02	2.94971	206.0
834	2.06949e+02	8.34000e+02	2.94905	207.0
836	2.07965e+02	8.36000e+02	2.94837	208.0
838	2.08984e+02	8.38000e+02	2.9477	209.0
840	2.10002e+02	8.40000e+02	2.94703	210.0
842	2.11012e+02	8.42000e+02	2.94636	211.0
844	2.12038e+02	8.44000e+02	2.94567	212.0
846	2.13042e+02	8.46000e+02	2.94497	213.0
848	2.14073e+02	8.48000e+02	2.94423	214.0
850	2.15086e+02	8.50000e+02	2.94348	215.0
852	2.16106e+02	8.52000e+02	2.94272	216.0
854	2.17128e+02	8.54000e+02	2.94196	217.0
856	2.18154e+02	8.56000e+02	2.94121	218.0
858	2.19166e+02	8.58000e+02	2.94047	219.0
860	2.20185e+02	8.60000e+02	2.93972	220.0
862	2.21194e+02	8.62000e+02	2.93897	221.0
864	2.22225e+02	8.64000e+02	2.93821	222.0
866	2.23227e+02	8.66000e+02	2.93746	223.0
868	2.24259e+02	8.68000e+02	2.93672	224.0
870	2.25266e+02	8.70000e+02	2.93597	225.0
872	2.26286e+02	8.72000e+02	2.93522	226.0
874	2.27299e+02	8.74000e+02	2.93449	227.0
876	2.28310e+02	8.76000e+02	2.93377	228.0
878	2.29288e+02	8.78000e+02	2.93306	229.0
880	2.30285e+02	8.80000e+02	2.93233	230.0
882	2.31267e+02	8.82000e+02	2.93159	231.0
884	2.32280e+02	8.84000e+02	2.93082	232.0
886	2.33268e+02	8.86000e+02	2.93003	233.0
888	2.34282e+02	8.88000e+02	2.92923	234.0
890	2.35296e+02	8.90000e+02	2.92844	235.0
892	2.36304e+02	8.92000e+02	2.92763	236.0
894	2.37309e+02	8.94000e+02	2.92677	237.0
896	2.38327e+02	8.96000e+02	2.92585	238.0
898	2.39325e+02	8.98000e+02	2.9249	239.0
900	2.40339e+02	9.00000e+02	2.92393	240.0
902	2.41340e+02	9.02000e+02	2.92296	241.0
904	2.42367e+02	9.04000e+02	2.92202	242.0
906	2.43354e+02	9.06000e+02	2.92111	243.0
908	2.44383e+02	9.08000e+02	2.92023	244.0
910	2.45397e+02	9.10000e+02	2.91935	245.0
912	2.46472e+02	9.12000e+02	2.91845	246.0
914	2.47495e+02	9.14000e+02	2.91755	247.0
916	2.48520e+02	9.16000e+02	2.91663	248.0
918	2.49572e+02	9.18000e+02	2.91571	249.0
920	2.50608e+02	9.20000e+02	2.91476	250.0
922	2.51615e+02	9.22000e+02	2.91379	251.0
924	2.52609e+02	9.24000e+02	2.9128	252.0
926	2.53624e+02	9.26000e+02	2.91181	253.0
928	2.54651e+02	9.28000e+02	2.91082	254.0
930	2.55673e+02	9.30000e+02	2.90983	255.0
932	2.56692e+02	9.32000e+02	2.90883	256.0
934	2.57709e+02	9.34000e+02	2.90782	257.0
936	2.58727e+02	9.36000e+02	2.90679	258.0
938	2.59760e+02	9.38000e+02	2.90577	259.0
940	2.60795e+02	9.40000e+02	2.90477	260.0
942	2.61803e+02	9.42000e+02	2.90378	261.0
944	2.62833e+02	9.44000e+02	2.9028	262.0
946	2.63829e+02	9.46000e+02	2.90181	263.0
948	2.64815e+02	9.48000e+02	2.90081	264.0
950	2.65820e+02	9.50000e+02	2.89981	265.0
952	2.66827e+02	9.52000e+02	2.89877	266.0
954	2.67834e+02	9.54000e+02	2.89769	267.0
956	2.68823e+02	9.56000e+02	2.89656	268.0
958	2.69820e+02	9.58000e+02	2.89541	269.0
960	2.70817e+02	9.60000e+02	2.89424	270.0
962	2.71820e+02	9.62000e+02	2.89308	271.0
964	2.72828e+02	9.64000e+02	2.89192	272.0
966	2.73852e+02	9.66000e+02	2.89078	273.0
968	2.74865e+02	9.68000e+02	2.88964	274.0
970	2.75887e+02	9.70000e+02	2.8885	275.0
972	2.76879e+02	9.72000e+02	2.88736	276.0
974	2.77896e+02	9.74000e+02	2.88621	277.0
976	2.78942e+02	9.76000e+02	2.88504	278.0
978	2.79991e+02	9.78000e+02	2.88385	279.0
980	2.81011e+02	9.80000e+02	2.88263	280.0
982	2.82032e+02	9.82000e+02	2.8814	281.0
984	2.83031e+02	9.84000e+02	2.88009	282.0
986	2.84068e+02	9.86000e+02	2.87864	283.0
988	2.85097e+02	9.88000e+02	2.87701	284.0
990	2.86129e+02	9.90000e+02	2.87533	285.0
992	2.87179e+02	9.92000e+02	2.8736	286.0
994	2.88268e+02	9.94000e+02	2.8719	287.0
996	2.89290e+02	9.96000e+02	2.87024	288.0
998	2.90322e+02	9.98000e+02	2.86857	289.0
1000	2.91357e+02	1.00000e+03	2.8669	290.0
1002	2.92384e+02	1.00200e+03	2.86523	291.0
1004	2.93411e+02	1.00400e+03	2.86354	292.0
1006	2.94411e+02	1.00600e+03	2.86185	293.0
1008	2.95429e+02	1.00800e+03	2.86013	294.0
1010	2.96467e+02	1.01000e+03	2.85839	295.0
1012	2.97452e+02	1.01200e+03	2.85657	296.0
1014	2.98450e+02	1.01400e+03	2.8547	297.0
1016	2.99430e+02	1.01600e+03	2.85273	298.0
1018	3.00430e+02	1.01800e+03	2.85071	299.0
1020	3.01445e+02	1.02000e+03	2.8486	300.0
1022	3.02445e+02	1.02200e+03	2.84641	301.0
1024	3.03473e+02	1.02400e+03	2.84411	302.0
1026	3.04474e+02	1.02600e+03	2.84175	303.0
1028	3.05484e+02	1.02800e+03	2.8393	304.0
1030	3.06509e+02	1.03000e+03	2.83681	305.0
1032	3.07539e+02	1.03200e+03	2.83426	306.0
1034	3.08590e+02	1.03400e+03	2.83168	307.0
1036	3.09615e+02	1.03600e+03	2.82903	308.0
1038	3.10644e+02	1.03800e+03	2.82633	309.0
1040	3.11675e+02	1.04000e+03	2.82352	310.0
1042	3.12713e+02	1.04200e+03	2.82064	311.0
1044	3.13730e+02	1.04400e+03	2.81766	312.0
1046	3.14755e+02	1.04600e+03	2.81464	313.0
1048	3.15759e+02	1.04800e+03	2.81158	314.0
1050	3.16756e+02	1.05000e+03	2.80849	315.0
1052	3.17766e+02	1.05200e+03	2.80535	316.0
1054	3.18778e+02	1.05400e+03	2.80217	317.0
1056	3.19785e+02	1.05600e+03	2.79894	318.0
1058	3.20799e+02	1.05800e+03	2.79567	319.0
1060	3.21802e+02	1.06000e+03	2.79236	320.0
1062	3.22826e+02	1.06200e+03	2.78904	321.0
1064	3.23843e+02	1.06400e+03	2.78569	322.0
1066	3.24853e+02	1.06600e+03	2.7823	323.0
1068	3.25860e+02	1.06800e+03	2.77886	324.0
1070	3.26868e+02	1.07000e+03	2.7754	325.0
1072	3.27879e+02	1.07200e+03	2.77188	326.0
1074	3.28902e+02	1.07400e+03	2.76836	327.0
1076	3.29928e+02	1.07600e+03	2.7648	328.0
1078	3.30936e+02	1.07800e+03	2.76119	329.0
1080	3.31946e+02	1.08000e+03	2.75746	330.0
1082	3.32935e+02	1.08200e+03	2.7536	331.0
1084	3.33974e+02	1.08400e+03	2.7495	332.0
1086	3.35049e+02	1.08600e+03	2.74524	333.0
1088	3.36103e+02	1.08800e+03	2.74072	334.0
1090	3.37103e+02	1.09000e+03	2.73609	335.0
1092	3.38112e+02	1.09200e+03	2.73124	336.0
1094	3.39125e+02	1.09400e+03	2.72624	337.0
1096	3.40162e+02	1.09600e+03	2.721	338.0
1098	3.41242e+02	1.09800e+03	2.71558	339.0
1100	3.42327e+02	1.10000e+03	2.70983	340.0
1102	3.43418e+02	1.10200e+03	2.70384	341.0
1104	3.44474e+02	1.10400e+03	2.69743	342.0
1106	3.45488e+02	1.10600e+03	2.69073	343.0
1108	3.46491e+02	1.10800e+03	2.68352	344.0
1110	3.47471e+02	1.11000e+03	2.67597	345.0
1112	3.48414e+02	1.11200e+03	2.66784	346.0
1114	3.49374e+02	1.11400e+03	2.65934	347.0
1116	3.50346e+02	1.11600e+03	2.65019	348.0
1118	3.51294e+02	1.11800e+03	2.64057	349.0
1120	3.52235e+02	1.12000e+03	2.6301	350.0
1122	3.53191e+02	1.12200e+03	2.61898	351.0
1124	3.54142e+02	1.12400e+03	2.60672	352.0
1126	3.55113e+02	1.12600e+03	2.59373	353.0
1128	3.56069e+02	1.12800e+03	2.57952	354.0
1130	3.57053e+02	1.13000e+03	2.56462	355.0
1132	3.58049e+02	1.13200e+03	2.54855	356.0
1134	3.59039e+02	1.13400e+03	2.53178	357.0
1136	3.60023e+02	1.13600e+03	2.51366	358.0
1138	3.60996e+02	1.13800e+03	2.49444	359.0
1140	3.62018e+02	1.14000e+03	2.47335	360.0
1142	3.63000e+02	1.14200e+03	2.45114	361.0
1144	3.63959e+02	1.14400e+03	2.42709	362.0
1146	3.64911e+02	1.14600e+03	2.40203	363.0
1148	3.65878e+02	1.14800e+03	2.37528	364.0
1150	3.66857e+02	1.15000e+03	2.34754	365.0
1152	3.67834e+02	1.15200e+03	2.31809	366.0
1154	3.68862e+02	1.15400e+03	2.28759	367.0
1156	3.69846e+02	1.15600e+03	2.25523	368.0
1158	3.70929e+02	1.15800e+03	2.22172	369.0
1160	3.71971e+02	1.16000e+03	2.18627	370.0
1162	3.72943e+02	1.16200e+03	2.1497	371.0
1164	3.73901e+02	1.16400e+03	2.11125	372.0
1166	3.74878e+02	1.16600e+03	2.07177	373.0
1168	3.75827e+02	1.16800e+03	2.03056	374.0
1170	3.76814e+02	1.17000e+03	1.98833	375.0
1172	3.77833e+02	1.17200e+03	1.94437	376.0
1174	3.78848e+02	1.17400e+03	1.89944	377.0
1176	3.79858e+02	1.17600e+03	1.85292	378.0
1178	3.80853e+02	1.17800e+03	1.8056	379.0
1180	3.81841e+02	1.18000e+03	1.75707	380.0
1182	3.82824e+02	1.18200e+03	1.70803	381.0
1184	3.83806e+02	1.18400e+03	1.65822	382.0
1186	3.84807e+02	1.18600e+03	1.60815	383.0
1188	3.85815e+02	1.18800e+03	1.55768	384.0
1190	3.86796e+02	1.19000e+03	1.50703	385.0
1192	3.87777e+02	1.19200e+03	1.45611	386.0
1194	3.88727e+02	1.19400e+03	1.40506	387.0
1196	3.89682e+02	1.19600e+03	1.35377	388.0
1198	3.90633e+02	1.19800e+03	1.30242	389.0
1200	3.91580e+02	1.20000e+03	1.25102	390.0
1202	3.92512e+02	1.20200e+03	1.19977	391.0
1204	3.93454e+02	1.20400e+03	1.14872	392.0
1206	3.94435e+02	1.20600e+03	1.09763	393.0
1208	3.95414e+02	1.20800e+03	1.04644	394.0
1210	3.96383e+02	1.21000e+03	0.995216	395.0
1212	3.97398e+02	1.21200e+03	0.9441	396.0
1214	3.98415e+02	1.21400e+03	0.893355	397.0
1216	3.99472e+02	1.21600e+03	0.84329	398.0
1218	4.00517e+02	1.21800e+03	0.79385	399.0
1220	4.01564e+02	1.22000e+03	0.745469	400.0
1222	4.02616e+02	1.22200e+03	0.697723	401.0
1224	4.03714e+02	1.22400e+03	0.651006	402.0
1226	4.04787e+02	1.22600e+03	0.604914	403.0
1228	4.05816e+02	1.22800e+03	0.560083	404.0
1230	4.06844e+02	1.23000e+03	0.516418	405.0
1232	4.07923e+02	1.23200e+03	0.474835	406.0
1234	4.08934e+02	1.23400e+03	0.434694	407.0
1236	4.09990e+02	1.23600e+03	0.397083	408.0
1238	4.10976e+02	1.23800e+03	0.361101	409.0
1240	4.11938e+02	1.24000e+03	0.327898	410.0
1242	4.12937e+02	1.24200e+03	0.296384	411.0
1244	4.13996e+02	1.24400e+03	0.26775	412.0
1246	4.15023e+02	1.24600e+03	0.240826	413.0
1248	4.16107e+02	1.24800e+03	0.216766	414.0
1250	4.17173e+02	1.25000e+03	0.194298	415.0
1252	4.18238e+02	1.25200e+03	0.174476	416.0
1254	4.19259e+02	1.25400e+03	0.156077	417.0
1256	4.20307e+02	1.25600e+03	0.140019	418.0
1258	4.21311e+02	1.25800e+03	0.125184	419.0
1260	4.22367e+02	1.26000e+03	0.112352	420.0
1262	4.23413e+02	1.26200e+03	0.100547	421.0
1264	4.24447e+02	1.26400e+03	0.090413	422.0
1266	4.25498e+02	1.26600e+03	0.0811151	423.0
1268	4.26518e+02	1.26800e+03	0.0731705	424.0
1270	4.27590e+02	1.27000e+03	0.0658759	425.0
1272	4.28659e+02	1.27200e+03	0.0596323	426.0
1274	4.29736e+02	1.27400e+03	0.0538905	427.0
1276	4.30771e+02	1.27600e+03	0.0489604	428.0
1278	4.31804e+02	1.27800e+03	0.0444194	429.0
1280	4.32850e+02	1.28000e+03	0.0405173	430.0
1282	4.33952e+02	1.28200e+03	0.0369359	431.0
1284	4.35002e+02	1.28400e+03	0.0338548	432.0
1286	4.36089e+02	1.28600e+03	0.0309908	433.0
1288	4.37156e+02	1.28800e+03	0.0284789	434.0
1290	4.38208e+02	1.29000e+03	0.0261415	435.0
1292	4.39269e+02	1.29200e+03	0.0240818	436.0
1294	4.40233e+02	1.29400e+03	0.0221545	437.0
1296	4.41230e+02	1.29600e+03	0.0204477	438.0
1298	4.42200e+02	1.29800e+03	0.0188539	439.0
1300	4.43198e+02	1.30000e+03	0.0174439	440.0
1302	4.44206e+02	1.30200e+03	0.0161256	441.0
1304	4.45204e+02	1.30400e+03	0.0149647	442.0
1306	4.46202e+02	1.30600e+03	0.0138817	443.0
1308	4.47190e+02	1.30800e+03	0.0129201	444.0
1310	4.48162e+02	1.31000e+03	0.0120071	445.0
1312	4.49130e+02	1.31200e+03	0.0111862	446.0
1314	4.50134e+02	1.31400e+03	0.0104194	447.0
1316	4.51175e+02	1.31600e+03	0.00973538	448.0
1318	4.52161e+02	1.31800e+03	0.0090844	449.0
1320	4.53187e+02	1.32000e+03	0.00849725	450.0
1322	4.54186e+02	1.32200e+03	0.00796583	451.0
1324	4.55192e+02	1.32400e+03	0.00752393	452.0
1326	4.56205e+02	1.32600e+03	0.00713311	453.0
1328	4.57205e+02	1.32800e+03	0.00682461	454.0
1330	4.58254e+02	1.33000e+03	0.00656078	455.0
1332	4.59407e+02	1.33200e+03	0.00636257	456.0
1334	4.60494e+02	1.33400e+03	0.00619017	457.0
1336	4.61523e+02	1.33600e+03	0.00605709	458.0
1338	4.62470e+02	1.33800e+03	0.0059367	459.0
1340	4.63444e+02	1.34000e+03	0.00582499	460.0
1342	4.64423e+02	1.34200e+03	0.00569921	461.0
1344	4.65460e+02	1.34400e+03	0.00555771	462.0
1346	4.66437e+02	1.34600e+03	0.00542554	463.0
1348	4.67188e+02	1.34800e+03	0.00531535	464.0
1350	4.68108e+02	1.35000e+03	0.00522512	465.0
1352	4.69009e+02	1.35200e+03	0.00515859	466.0
1354	4.69956e+02	1.35400e+03	0.00508084	467.0
1356	4.70898e+02	1.35600e+03	0.00498023	468.0
1358	4.71857e+02	1.35800e+03	0.00486653	469.0
1360	4.72846e+02	1.36000e+03	0.00474966	470.0
1362	4.73831e+02	1.36200e+03	0.00466566	471.0
1364	4.74821e+02	1.36400e+03	0.00463504	472.0
1366	4.75777e+02	1.36600e+03	0.00463093	473.0
1368	4.76771e+02	1.36800e+03	0.00464979	474.0
1370	4.77761e+02	1.37000e+03	0.00465194	475.0
1372	4.78733e+02	1.37200e+03	0.00462108	476.0
1374	4.79687e+02	1.37400e+03	0.00457085	477.0
1376	4.80623e+02	1.37600e+03	0.00450066	478.0
1378	4.81586e+02	1.37800e+03	0.0044435	479.0
1380	4.82582e+02	1.38000e+03	0.00441219	480.0
1382	4.83544e+02	1.38200e+03	0.00439166	481.0
1384	4.84551e+02	1.38400e+03	0.00438007	482.0
1386	4.85540e+02	1.38600e+03	0.0043523	483.0
1388	4.86526e+02	1.38800e+03	0.00429643	484.0
1390	4.87494e+02	1.39000e+03	0.00422341	485.0
1392	4.88519e+02	1.39200e+03	0.00413448	486.0
1394	4.89336e+02	1.39400e+03	0.00405707	487.0
1396	4.90247e+02	1.39600e+03	0.00399864	488.0
1398	4.91264e+02	1.39800e+03	0.0039451	489.0
1400	4.92180e+02	1.40000e+03	0.00389671	490.0
1402	4.93112e+02	1.40200e+03	0.00384587	491.0
1404	4.93998e+02	1.40400e+03	0.00380043	492.0
1406	4.94877e+02	1.40600e+03	0.00376833	493.0
1408	4.95831e+02	1.40800e+03	0.00375512	494.0
1410	4.96749e+02	1.41000e+03	0.00374054	495.0
1412	4.97710e+02	1.41200e+03	0.00372433	496.0
1414	4.98659e+02	1.41400e+03	0.00371285	497.0
1416	4.99630e+02	1.41600e+03	0.00370837	498.0
1418	5.00602e+02	1.41800e+03	0.00371601	499.0
1420	5.01569e+02	1.42000e+03	0.00373623	500.0
1422	5.02612e+02	1.42200e+03	0.00374972	501.0
1424	5.03642e+02	1.42400e+03	0.00374874	502.0
1426	5.04583e+02	1.42600e+03	0.00373285	503.0
1428	5.05644e+02	1.42800e+03	0.00369511	504.0
1430	5.06478e+02	1.43000e+03	0.00364801	505.0
1432	5.07385e+02	1.43200e+03	0.00358684	506.0
1434	5.08336e+02	1.43400e+03	0.00351672	507.0
1436	5.09252e+02	1.43600e+03	0.0034379	508.0
1438	5.10150e+02	1.43800e+03	0.0033732	509.0
1440	5.11065e+02	1.44000e+03	0.0033399	510.0
1442	5.11992e+02	1.44200e+03	0.00332749	511.0
1444	5.12911e+02	1.44400e+03	0.00334196	512.0
1446	5.13840e+02	1.44600e+03	0.00334817	513.0
1448	5.14782e+02	1.44800e+03	0.00334002	514.0
1450	5.15720e+02	1.45000e+03	0.00331844	515.0
1452	5.16648e+02	1.45200e+03	0.00328473	516.0
1454	5.17581e+02	1.45400e+03	0.00326093	517.0
1456	5.18525e+02	1.45600e+03	0.00325839	518.0
1458	5.19469e+02	1.45800e+03	0.00326851	519.0
1460	5.20437e+02	1.46000e+03	0.00328646	520.0
1462	5.21395e+02	1.46200e+03	0.00329769	521.0
1464	5.22372e+02	1.46400e+03	0.00330498	522.0
1466	5.23356e+02	1.46600e+03	0.00331535	523.0
1468	5.24307e+02	1.46800e+03	0.0033167	524.0
1470	5.25294e+02	1.47000e+03	0.00330165	525.0
1472	5.26255e+02	1.47200e+03	0.0032693	526.0
1474	5.27219e+02	1.47400e+03	0.00324007	527.0
1476	5.28181e+02	1.47600e+03	0.00321529	528.0
1478	5.29145e+02	1.47800e+03	0.00318288	529.0
1480	5.30094e+02	1.48000e+03	0.00314043	530.0
1482	5.31051e+02	1.48200e+03	0.00309064	531.0
1484	5.32009e+02	1.48400e+03	0.00303471	532.0
1486	5.32960e+02	1.48600e+03	0.00298573	533.0
1488	5.33890e+02	1.48800e+03	0.00295358	534.0
1490	5.34813e+02	1.49000e+03	0.00293477	535.0
1492	5.35746e+02	1.49200e+03	0.00293104	536.0
1494	5.36745e+02	1.49400e+03	0.00292799	537.0
1496	5.37727e+02	1.49600e+03	0.00293127	538.0
1498	5.38668e+02	1.49800e+03	0.00294137	539.0
1500	5.39614e+02	1.50000e+03	0.00295484	540.0
1502	5.40592e+02	1.50200e+03	0.00296029	541.0
1504	5.41569e+02	1.50400e+03	0.00295531	542.0
1506	5.42539e+02	1.50600e+03	0.00294812	543.0
1508	5.43491e+02	1.50800e+03	0.00293554	544.0
1510	5.44446e+02	1.51000e+03	0.00291742	545.0
1512	5.45410e+02	1.51200e+03	0.00289087	546.0
1514	5.46374e+02	1.51400e+03	0.00286194	547.0
1516	5.47329e+02	1.51600e+03	0.00283698	548.0
1518	5.48292e+02	1.51800e+03	0.00281758	549.0
1520	5.49265e+02	1.52000e+03	0.00280197	550.0
1522	5.50224e+02	1.52200e+03	0.00277345	551.0
1524	5.51202e+02	1.52400e+03	0.00273001	552.0
1526	5.52156e+02	1.52600e+03	0.00268686	553.0
1528	5.53128e+02	1.52800e+03	0.00264439	554.0
1530	5.54096e+02	1.53000e+03	0.00261239	555.0
1532	5.55071e+02	1.53200e+03	0.00259518	556.0
1534	5.56062e+02	1.53400e+03	0.00258604	557.0
1536	5.57039e+02	1.53600e+03	0.0025782	558.0
1538	5.58029e+02	1.53800e+03	0.00256014	559.0
1540	5.59017e+02	1.54000e+03	0.00252544	560.0
1542	5.60005e+02	1.54200e+03	0.00248634	561.0
1544	5.60988e+02	1.54400e+03	0.00243739	562.0
1546	5.61983e+02	1.54600e+03	0.00238739	563.0
1548	5.62958e+02	1.54800e+03	0.0023543	564.0
1550	5.63936e+02	1.55000e+03	0.00234752	565.0
1552	5.64933e+02	1.55200e+03	0.00237203	566.0
1554	5.65919e+02	1.55400e+03	0.0023894	567.0
1556	5.66913e+02	1.55600e+03	0.00239934	568.0
1558	5.67913e+02	1.55800e+03	0.00241881	569.0
1560	5.68903e+02	1.56000e+03	0.00244546	570.0
1562	5.69885e+02	1.56200e+03	0.00246915	571.0
1564	5.70870e+02	1.56400e+03	0.00248248	572.0
1566	5.71860e+02	1.56600e+03	0.00248633	573.0
1568	5.72831e+02	1.56800e+03	0.00247638	574.0
1570	5.73831e+02	1.57000e+03	0.00246644	575.0
1572	5.74840e+02	1.57200e+03	0.00245537	576.0
1574	5.75830e+02	1.57400e+03	0.00244044	577.0
1576	5.76831e+02	1.57600e+03	0.00242761	578.0
1578	5.77821e+02	1.57800e+03	0.00242248	579.0
1580	5.78811e+02	1.58000e+03	0.00242841	580.0
1582	5.79811e+02	1.58200e+03	0.00244148	581.0
1584	5.80818e+02	1.58400e+03	0.00245969	582.0
1586	5.81823e+02	1.58600e+03	0.00247412	583.0
1588	5.82810e+02	1.58800e+03	0.00247702	584.0
1590	5.83823e+02	1.59000e+03	0.00246891	585.0
1592	5.84809e+02	1.59200e+03	0.00245079	586.0
1594	5.85797e+02	1.59400e+03	0.00243877	587.0
1596	5.86791e+02	1.59600e+03	0.00243906	588.0
1598	5.87785e+02	1.59800e+03	0.00243825	589.0
1600	5.88786e+02	1.60000e+03	0.00243286	590.0
1602	5.89774e+02	1.60200e+03	0.00241508	591.0
1604	5.90769e+02	1.60400e+03	0.00238332	592.0
1606	5.91754e+02	1.60600e+03	0.00235606	593.0
1608	5.92756e+02	1.60800e+03	0.00233453	594.0
1610	5.93758e+02	1.61000e+03	0.00232761	595.0
1612	5.94801e+02	1.61200e+03	0.00233819	596.0
1614	5.95838e+02	1.61400e+03	0.00235385	597.0
1616	5.96835e+02	1.61600e+03	0.00237451	598.0
1618	5.97873e+02	1.61800e+03	0.00238984	599.0
1620	5.98942e+02	1.62000e+03	0.00239475	600.0
1622	6.00089e+02	1.62200e+03	0.0023838	601.0
1624	6.00010e+02	1.62400e+03	0.00236126	602.0
1626	6.04437e+02	1.62600e+03	0.00235022	603.0
1628	6.05244e+02	1.62800e+03	0.0023496	604.0
1630	6.06109e+02	1.63000e+03	0.00234944	605.0
1632	6.07050e+02	1.63200e+03	0.00234134	606.0
1634	6.08001e+02	1.63400e+03	0.00232194	607.0
1636	6.08994e+02	1.63600e+03	0.00228687	608.0
1638	6.09893e+02	1.63800e+03	0.00225217	609.0
1640	6.10867e+02	1.64000e+03	0.00223289	610.0
1642	6.11856e+02	1.64200e+03	0.00223121	611.0
1644	6.12833e+02	1.64400e+03	0.0022508	612.0
1646	6.13816e+02	1.64600e+03	0.0022548	613.0
1648	6.14804e+02	1.64800e+03	0.002234	614.0
1650	6.15788e+02	1.65000e+03	0.00220256	615.0
1652	6.16775e+02	1.65200e+03	0.00215594	616.0
1654	6.17764e+02	1.65400e+03	0.00211673	617.0
1656	6.18755e+02	1.65600e+03	0.00209508	618.0
1658	6.19745e+02	1.65800e+03	0.00208612	619.0
1660	6.20732e+02	1.66000e+03	0.0020939	620.0
1662	6.21729e+02	1.66200e+03	0.0020948	621.0
1664	6.22716e+02	1.66400e+03	0.00208948	622.0
1666	6.23710e+02	1.66600e+03	0.00208123	623.0
1668	6.24690e+02	1.66800e+03	0.00206824	624.0
1670	6.25679e+02	1.67000e+03	0.00205201	625.0
1672	6.26665e+02	1.67200e+03	0.00203297	626.0
1674	6.27646e+02	1.67400e+03	0.00201274	627.0
1676	6.28636e+02	1.67600e+03	0.00199224	628.0
1678	6.29613e+02	1.67800e+03	0.00197424	629.0
1680	6.30585e+02	1.68000e+03	0.00196598	630.0
1682	6.31576e+02	1.68200e+03	0.00197084	631.0
1684	6.32555e+02	1.68400e+03	0.00199086	632.0
1686	6.33538e+02	1.68600e+03	0.00200708	633.0
1688	6.34529e+02	1.68800e+03	0.00201794	634.0
1690	6.35508e+02	1.69000e+03	0.00202892	635.0
1692	6.36493e+02	1.69200e+03	0.00203827	636.0
1694	6.37468e+02	1.69400e+03	0.00204745	637.0
1696	6.38450e+02	1.69600e+03	0.00204295	638.0
1698	6.39435e+02	1.69800e+03	0.00201385	639.0
1700	6.40416e+02	1.70000e+03	0.00195241	640.0
1702	6.41417e+02	1.70200e+03	0.0018876	641.0
1704	6.42411e+02	1.70400e+03	0.00181921	642.0
1706	6.43412e+02	1.70600e+03	0.00176041	643.0
1708	6.44409e+02	1.70800e+03	0.00171632	644.0
1710	6.45401e+02	1.71000e+03	0.00167688	645.0
1712	6.46384e+02	1.71200e+03	0.00164227	646.0
1714	6.47377e+02	1.71400e+03	0.00161507	647.0
1716	6.48374e+02	1.71600e+03	0.00160963	648.0
1718	6.49372e+02	1.71800e+03	0.00162172	649.0
1720	6.50362e+02	1.72000e+03	0.00165121	650.0
1722	6.51360e+02	1.72200e+03	0.00167089	651.0
1724	6.52354e+02	1.72400e+03	0.00167852	652.0
1726	6.53351e+02	1.72600e+03	0.00167828	653.0
1728	6.54331e+02	1.72800e+03	0.00166113	654.0
1730	6.55321e+02	1.73000e+03	0.00163041	655.0
1732	6.56301e+02	1.73200e+03	0.0015872	656.0
1734	6.57293e+02	1.73400e+03	0.001552	657.0
1736	6.58287e+02	1.73600e+03	0.00153275	658.0
1738	6.59290e+02	1.73800e+03	0.00152588	659.0
1740	6.60277e+02	1.74000e+03	0.00153375	660.0
1742	6.61273e+02	1.74200e+03	0.0015385	661.0
1744	6.62278e+02	1.74400e+03	0.00153107	662.0
1746	6.63281e+02	1.74600e+03	0.00151574	663.0
1748	6.64272e+02	1.74800e+03	0.00148928	664.0
1750	6.65249e+02	1.75000e+03	0.00146636	665.0
1752	6.66229e+02	1.75200e+03	0.00145126	666.0
1754	6.67229e+02	1.75400e+03	0.00145135	667.0
1756	6.68215e+02	1.75600e+03	0.00147148	668.0
1758	6.69214e+02	1.75800e+03	0.00148974	669.0
1760	6.70197e+02	1.76000e+03	0.0014986	670.0
1762	6.71193e+02	1.76200e+03	0.00148725	671.0
1764	6.72181e+02	1.76400e+03	0.0014558	672.0
1766	6.73161e+02	1.76600e+03	0.00143294	673.0
1768	6.74168e+02	1.76800e+03	0.00143092	674.0
1770	6.75150e+02	1.77000e+03	0.00144904	675.0
1772	6.76145e+02	1.77200e+03	0.00150562	676.0
1774	6.77130e+02	1.77400e+03	0.00158601	677.0
1776	6.78117e+02	1.77600e+03	0.00169857	678.0
1778	6.79090e+02	1.77800e+03	0.00180427	679.0
1780	6.80070e+02	1.78000e+03	0.00187704	680.0
1782	6.81043e+02	1.78200e+03	0.00190834	681.0
1784	6.82023e+02	1.78400e+03	0.00187781	682.0
1786	6.82984e+02	1.78600e+03	0.00182671	683.0
1788	6.83963e+02	1.78800e+03	0.00174551	684.0
1790	6.84952e+02	1.79000e+03	0.00166193	685.0
1792	6.85929e+02	1.79200e+03	0.00158139	686.0
1794	6.86961e+02	1.79400e+03	0.00152025	687.0
1796	6.87337e+02	1.79600e+03	0.00149486	688.0
1798	6.87977e+02	1.79800e+03	0.00149363	689.0
1800	6.88674e+02	1.80000e+03	0.00151771	690.0
1802	6.89304e+02	1.80200e+03	0.00151524	691.0
1804	6.89890e+02	1.80400e+03	0.001471	692.0
1806	6.90451e+02	1.80600e+03	0.00140945	693.0
1808	6.90986e+02	1.80800e+03	0.00133301	694.0
1810	6.91485e+02	1.81000e+03	0.00128219	695.0
1812	6.91954e+02	1.81200e+03	0.0012696	696.0
1814	6.92382e+02	1.81400e+03	0.00127678	697.0
1816	6.92803e+02	1.81600e+03	0.00130811	698.0
1818	6.93188e+02	1.81800e+03	0.00133644	699.0
1820	6.93568e+02	1.82000e+03	0.00135249	700.0
1822	6.93914e+02	1.82200e+03	0.00135938	700.0
1824	6.94245e+02	1.82400e+03	0.00136261	700.0
1826	6.94555e+02	1.82600e+03	0.00137027	700.0
1828	6.94850e+02	1.82800e+03	0.00138135	700.0
1830	6.95134e+02	1.83000e+03	0.00138727	700.0
1832	6.95384e+02	1.83200e+03	0.00139439	700.0
1834	6.95632e+02	1.83400e+03	0.0014062	700.0
1836	6.95861e+02	1.83600e+03	0.00142375	700.0
1838	6.96081e+02	1.83800e+03	0.00143689	700.0
1840	6.96300e+02	1.84000e+03	0.00144505	700.0
1842	6.96499e+02	1.84200e+03	0.00144963	700.0
1844	6.96683e+02	1.84400e+03	0.00145213	700.0
1846	6.96864e+02	1.84600e+03	0.00144831	700.0
1848	6.97024e+02	1.84800e+03	0.00143343	700.0
1850	6.97183e+02	1.85000e+03	0.00140872	700.0
1852	6.97339e+02	1.85200e+03	0.00137286	700.0
1854	6.97490e+02	1.85400e+03	0.00134455	700.0
1856	6.97635e+02	1.85600e+03	0.0013285	700.0
1858	6.97766e+02	1.85800e+03	0.00131614	700.0
1860	6.97903e+02	1.86000e+03	0.00130473	700.0
1862	6.98007e+02	1.86200e+03	0.00129957	700.0
1864	6.98127e+02	1.86400e+03	0.00130298	700.0
1866	6.98236e+02	1.86600e+03	0.00130415	700.0
1868	6.98334e+02	1.86800e+03	0.0012982	700.0
1870	6.98428e+02	1.87000e+03	0.001277	700.0
1872	6.98513e+02	1.87200e+03	0.00124487	700.0
1874	6.98596e+02	1.87400e+03	0.00122239	700.0
1876	6.98688e+02	1.87600e+03	0.00121372	700.0
1878	6.98763e+02	1.87800e+03	0.00120868	700.0
1880	6.98841e+02	1.88000e+03	0.00120878	700.0
1882	6.98915e+02	1.88200e+03	0.001209	700.0
1884	6.98989e+02	1.88400e+03	0.00120912	700.0
1886	6.99037e+02	1.88600e+03	0.00120667	700.0
1888	6.99098e+02	1.88800e+03	0.0011994	700.0
1890	6.99155e+02	1.89000e+03	0.0011923	700.0
1892	6.99215e+02	1.89200e+03	0.00119059	700.0
1894	6.99266e+02	1.89400e+03	0.00119943	700.0
1896	6.99327e+02	1.89600e+03	0.00121716	700.0
1898	6.99359e+02	1.89800e+03	0.00122177	700.0
1900	6.99399e+02	1.90000e+03	0.00121622	700.0
1902	6.99446e+02	1.90200e+03	0.00121193	700.0
1904	6.99478e+02	1.90400e+03	0.00120967	700.0
1906	6.99512e+02	1.90600e+03	0.00120853	700.0
1908	6.99544e+02	1.90800e+03	0.00121204	700.0
1910	6.99579e+02	1.91000e+03	0.00122411	700.0
1912	6.99614e+02	1.91200e+03	0.0012338	700.0
1914	6.99641e+02	1.91400e+03	0.0012288	700.0
1916	6.99665e+02	1.91600e+03	0.00120706	700.0
1918	6.99680e+02	1.91800e+03	0.00118923	700.0
1920	6.99694e+02	1.92000e+03	0.00117994	700.0
1922	6.99713e+02	1.92200e+03	0.00117906	700.0
1924	6.99732e+02	1.92400e+03	0.00118808	700.0
1926	6.99745e+02	1.92600e+03	0.00119585	700.0
1928	6.99763e+02	1.92800e+03	0.00120796	700.0
1930	6.99787e+02	1.93000e+03	0.00121716	700.0
1932	6.99798e+02	1.93200e+03	0.00121173	700.0
1934	6.99821e+02	1.93400e+03	0.00118687	700.0
1936	6.99837e+02	1.93600e+03	0.00113893	700.0
1938	6.99842e+02	1.93800e+03	0.00109615	700.0
1940	6.99867e+02	1.94000e+03	0.00106314	700.0
1942	6.99878e+02	1.94200e+03	0.00103854	700.0
1944	6.99898e+02	1.94400e+03	0.00102631	700.0
1946	6.99904e+02	1.94600e+03	0.00101921	700.0
1948	6.99919e+02	1.94800e+03	0.00102296	700.0
1950	6.99925e+02	1.95000e+03	0.00103664	700.0
1952	6.99941e+02	1.95200e+03	0.00106559	700.0
1954	6.99954e+02	1.95400e+03	0.00109918	700.0
1956	6.99981e+02	1.95600e+03	0.00113974	700.0
1958	6.99973e+02	1.95800e+03	0.00118726	700.0
1960	6.99994e+02	1.96000e+03	0.00123168	700.0
1962	6.99993e+02	1.96200e+03	0.00126087	700.0
1964	7.00017e+02	1.96400e+03	0.00127001	700.0
1966	7.00026e+02	1.96600e+03	0.00128739	700.0
1968	7.00029e+02	1.96800e+03	0.00131089	700.0
1970	7.00043e+02	1.97000e+03	0.00134112	700.0
1972	7.00059e+02	1.97200e+03	0.00138489	700.0
1974	7.00060e+02	1.97400e+03	0.00143685	700.0
1976	7.00072e+02	1.97600e+03	0.0014961	700.0
1978	7.00071e+02	1.97800e+03	0.00154375	700.0
1980	7.00070e+02	1.98000e+03	0.00156308	700.0
1982	7.00081e+02	1.98200e+03	0.00155266	700.0
1984	7.00094e+02	1.98400e+03	0.00150005	700.0
1986	7.00109e+02	1.98600e+03	0.00143929	700.0
1988	7.00115e+02	1.98800e+03	0.00137182	700.0
1990	7.00125e+02	1.99000e+03	0.00131337	700.0
1992	7.00112e+02	1.99200e+03	0.00126695	700.0
1994	7.00127e+02	1.99400e+03	0.0012201	700.0
1996	7.00138e+02	1.99600e+03	0.00116911	700.0
1998	7.00137e+02	1.99800e+03	0.00111297	700.0
2000	7.00148e+02	2.00000e+03	0.00105676	700.0
2002	7.00153e+02	2.00200e+03	0.0010148	700.0
2004	7.00167e+02	2.00400e+03	0.000995852	700.0
2006	7.00154e+02	2.00600e+03	0.000987758	700.0
2008	7.00161e+02	2.00800e+03	0.000993122	700.0
2010	7.00161e+02	2.01000e+03	0.000997159	700.0
2012	7.00167e+02	2.01200e+03	0.00100643	700.0
2014	7.00168e+02	2.01400e+03	0.00101207	700.0
2016	7.00171e+02	2.01600e+03	0.00100982	700.0
2018	7.00167e+02	2.01800e+03	0.00100043	700.0
2020	7.00174e+02	2.02000e+03	0.000984193	700.0
2022	7.00181e+02	2.02200e+03	0.000970472	700.0
2024	7.00182e+02	2.02400e+03	0.000955136	700.0
2026	7.00178e+02	2.02600e+03	0.000931141	700.0
2028	7.00177e+02	2.02800e+03	0.000896423	700.0
2030	7.00180e+02	2.03000e+03	0.000869608	700.0
2032	7.00177e+02	2.03200e+03	0.000863793	700.0
2034	7.00181e+02	2.03400e+03	0.000875263	700.0
2036	7.00186e+02	2.03600e+03	0.000904804	700.0
2038	7.00191e+02	2.03800e+03	0.000930978	700.0
2040	7.00194e+02	2.04000e+03	0.000954739	700.0
2042	7.00201e+02	2.04200e+03	0.00099082	700.0
2044	7.00189e+02	2.04400e+03	0.00103264	700.0
2046	7.00204e+02	2.04600e+03	0.00106714	700.0
2048	7.00194e+02	2.04800e+03	0.00109261	700.0
2050	7.00204e+02	2.05000e+03	0.00111037	700.0
2052	7.00203e+02	2.05200e+03	0.00110545	700.0
2054	7.00197e+02	2.05400e+03	0.00107775	700.0
2056	7.00188e+02	2.05600e+03	0.00102454	700.0
2058	7.00192e+02	2.05800e+03	0.000983898	700.0
2060	7.00188e+02	2.06000e+03	0.000972036	700.0
2062	7.00195e+02	2.06200e+03	0.000982364	700.0
2064	7.00197e+02	2.06400e+03	0.00101194	700.0
2066	7.00202e+02	2.06600e+03	0.00103352	700.0
2068	7.00187e+02	2.06800e+03	0.00104201	700.0
2070	7.00193e+02	2.07000e+03	0.00104309	700.0
2072	7.00192e+02	2.07200e+03	0.00103507	700.0
2074	7.00195e+02	2.07400e+03	0.0010221	700.0
2076	7.00191e+02	2.07600e+03	0.00100121	700.0
2078	7.00191e+02	2.07800e+03	0.000977043	700.0
2080	7.00197e+02	2.08000e+03	0.000948094	700.0
2082	7.00189e+02	2.08200e+03	0.000920426	700.0
2084	7.00197e+02	2.08400e+03	0.000899686	700.0
2086	7.00200e+02	2.08600e+03	0.000901101	700.0
2088	7.00197e+02	2.08800e+03	0.000935878	700.0
2090	7.00192e+02	2.09000e+03	0.000979901	700.0
2092	7.00191e+02	2.09200e+03	0.00103509	700.0
2094	7.00181e+02	2.09400e+03	0.00107942	700.0
2096	7.00198e+02	2.09600e+03	0.00110061	700.0
2098	7.00192e+02	2.09800e+03	0.00110146	700.0
2100	7.00185e+02	2.10000e+03	0.00107649	700.0
2102	7.00188e+02	2.10200e+03	0.00105523	700.0
2104	7.00185e+02	2.10400e+03	0.00103157	700.0
2106	7.00186e+02	2.10600e+03	0.00100692	700.0
2108	7.00184e+02	2.10800e+03	0.00098568	700.0
2110	7.00181e+02	2.11000e+03	0.000976156	700.0
2112	7.00185e+02	2.11200e+03	0.00098457	700.0
2114	7.00180e+02	2.11400e+03	0.000998507	700.0
2116	7.00177e+02	2.11600e+03	0.00101972	700.0
2118	7.00172e+02	2.11800e+03	0.00104677	700.0
2120	7.00173e+02	2.12000e+03	0.00107248	700.0
2122	7.00176e+02	2.12200e+03	0.00108909	700.0
2124	7.00168e+02	2.12400e+03	0.00109032	700.0
2126	7.00171e+02	2.12600e+03	0.00108234	700.0
2128	7.00159e+02	2.12800e+03	0.00106043	700.0
2130	7.00171e+02	2.13000e+03	0.00104452	700.0
2132	7.00158e+02	2.13200e+03	0.00103705	700.0
2134	7.00175e+02	2.13400e+03	0.00102728	700.0
2136	7.00165e+02	2.13600e+03	0.00100977	700.0
2138	7.00157e+02	2.13800e+03	0.000974556	700.0
2140	7.00160e+02	2.14000e+03	0.000912337	700.0
2142	7.00157e+02	2.14200e+03	0.000846263	700.0
2144	7.00154e+02	2.14400e+03	0.00079338	700.0
2146	7.00153e+02	2.14600e+03	0.000778074	700.0
2148	7.00159e+02	2.14800e+03	0.000805519	700.0
2150	7.00148e+02	2.15000e+03	0.000833012	700.0
2152	7.00151e+02	2.15200e+03	0.000854568	700.0
2154	7.00157e+02	2.15400e+03	0.000862381	700.0
2156	7.00152e+02	2.15600e+03	0.000848949	700.0
2158	7.00153e+02	2.15800e+03	0.000838087	700.0
2160	7.00143e+02	2.16000e+03	0.000830821	700.0
2162	7.00146e+02	2.16200e+03	0.000825156	700.0
2164	7.00141e+02	2.16400e+03	0.000823162	700.0
2166	7.00140e+02	2.16600e+03	0.000820292	700.0
2168	7.00132e+02	2.16800e+03	0.000816396	700.0
2170	7.00140e+02	2.17000e+03	0.000813476	700.0
2172	7.00136e+02	2.17200e+03	0.000811954	700.0
2174	7.00132e+02	2.17400e+03	0.000810888	700.0
2176	7.00127e+02	2.17600e+03	0.000810471	700.0
2178	7.00129e+02	2.17800e+03	0.000810188	700.0
2180	7.00119e+02	2.18000e+03	0.000814581	700.0
2182	7.00127e+02	2.18200e+03	0.000831358	700.0
2184	7.00136e+02	2.18400e+03	0.000861071	700.0
2186	7.00124e+02	2.18600e+03	0.00088903	700.0
2188	7.00126e+02	2.18800e+03	0.00089789	700.0
2190	7.00124e+02	2.19000e+03	0.000876554	700.0
2192	7.00115e+02	2.19200e+03	0.000830017	700.0
2194	7.00120e+02	2.19400e+03	0.000805492	700.0
2196	7.00114e+02	2.19600e+03	0.000801723	700.0
2198	7.00120e+02	2.19800e+03	0.000795422	700.0
2200	7.00112e+02	2.20000e+03	0.000784236	700.0
2202	7.00111e+02	2.20200e+03	0.000768627	700.0
2204	7.00115e+02	2.20400e+03	0.00074906	700.0
2206	7.00109e+02	2.20600e+03	0.000733429	700.0
2208	7.00111e+02	2.20800e+03	0.000725192	700.0
2210	7.00101e+02	2.21000e+03	0.00072735	700.0
2212	7.00106e+02	2.21200e+03	0.000750716	700.0
2214	7.00106e+02	2.21400e+03	0.000796827	700.0
2216	7.00108e+02	2.21600e+03	0.000873617	700.0
2218	7.00101e+02	2.21800e+03	0.000940386	700.0
2220	7.00102e+02	2.22000e+03	0.000983459	700.0
2222	7.00093e+02	2.22200e+03	0.000991425	700.0
2224	7.00100e+02	2.22400e+03	0.000945716	700.0
2226	7.00086e+02	2.22600e+03	0.000882413	700.0
2228	7.00092e+02	2.22800e+03	0.000798899	700.0
2230	7.00098e+02	2.23000e+03	0.000730704	700.0
2232	7.00102e+02	2.23200e+03	0.000689413	700.0
2234	7.00094e+02	2.23400e+03	0.000666094	700.0
2236	7.00096e+02	2.23600e+03	0.000674256	700.0
2238	7.00094e+02	2.23800e+03	0.000684496	700.0
2240	7.00099e+02	2.24000e+03	0.000697968	700.0
2242	7.00093e+02	2.24200e+03	0.000706686	700.0
2244	7.00092e+02	2.24400e+03	0.000703408	700.0
2246	7.00083e+02	2.24600e+03	0.000685287	700.0
2248	7.00089e+02	2.24800e+03	0.000656914	700.0
2250	7.00088e+02	2.25000e+03	0.000635063	700.0
2252	7.00081e+02	2.25200e+03	0.000623054	700.0
2254	7.00081e+02	2.25400e+03	0.000614979	700.0
2256	7.00079e+02	2.25600e+03	0.00061254	700.0
2258	7.00072e+02	2.25800e+03	0.000610679	700.0
2260	7.00078e+02	2.26000e+03	0.00060752	700.0
2262	7.00073e+02	2.26200e+03	0.000601266	700.0
2264	7.00083e+02	2.26400e+03	0.000595895	700.0
2266	7.00077e+02	2.26600e+03	0.000582815	700.0
2268	7.00076e+02	2.26800e+03	0.000559917	700.0
2270	7.00073e+02	2.27000e+03	0.000545391	700.0
2272	7.00079e+02	2.27200e+03	0.000541919	700.0
2274	7.00072e+02	2.27400e+03	0.000548452	700.0
2276	7.00065e+02	2.27600e+03	0.000576472	700.0
2278	7.00062e+02	2.27800e+03	0.000622155	700.0
2280	7.00070e+02	2.28000e+03	0.000684052	700.0
2282	7.00066e+02	2.28200e+03	0.000742138	700.0
2284	7.00064e+02	2.28400e+03	0.000787931	700.0
2286	7.00059e+02	2.28600e+03	0.000815111	700.0
2288	7.00061e+02	2.28800e+03	0.000808284	700.0
2290	7.00067e+02	2.29000e+03	0.000778958	700.0
2292	7.00054e+02	2.29200e+03	0.000722858	700.0
2294	7.00063e+02	2.29400e+03	0.000681295	700.0
2296	7.00062e+02	2.29600e+03	0.000662895	700.0
2298	7.00070e+02	2.29800e+03	0.000663589	700.0
2300	7.00062e+02	2.30000e+03	0.000683416	700.0
2302	7.00061e+02	2.30200e+03	0.000700062	700.0
2304	7.00055e+02	2.30400e+03	0.000714388	700.0
2306	7.00063e+02	2.30600e+03	0.000730676	700.0
2308	7.00067e+02	2.30800e+03	0.000747248	700.0
2310	7.00064e+02	2.31000e+03	0.000749004	700.0
2312	7.00062e+02	2.31200e+03	0.000738119	700.0
2314	7.00056e+02	2.31400e+03	0.000727761	700.0
2316	7.00053e+02	2.31600e+03	0.000718515	700.0
2318	7.00050e+02	2.31800e+03	0.000712503	700.0
2320	7.00055e+02	2.32000e+03	0.000714128	700.0
2322	7.00037e+02	2.32200e+03	0.000733574	700.0
2324	7.00055e+02	2.32400e+03	0.000770131	700.0
2326	7.00049e+02	2.32600e+03	0.000806714	700.0
2328	7.00055e+02	2.32800e+03	0.000840815	700.0
2330	7.00054e+02	2.33000e+03	0.000864328	700.0
2332	7.00052e+02	2.33200e+03	0.000867384	700.0
2334	7.00046e+02	2.33400e+03	0.000856455	700.0
2336	7.00047e+02	2.33600e+03	0.000826459	700.0
2338	7.00047e+02	2.33800e+03	0.000794234	700.0
2340	7.00048e+02	2.34000e+03	0.00075977	700.0
2342	7.00049e+02	2.34200e+03	0.000727439	700.0
2344	7.00031e+02	2.34400e+03	0.000698189	700.0
2346	7.00048e+02	2.34600e+03	0.000670865	700.0
2348	7.00043e+02	2.34800e+03	0.000648498	700.0
2350	7.00038e+02	2.35000e+03	0.000631476	700.0
2352	7.00036e+02	2.35200e+03	0.000622339	700.0
2354	7.00040e+02	2.35400e+03	0.000615305	700.0
2356	7.00040e+02	2.35600e+03	0.000609009	700.0
2358	7.00038e+02	2.35800e+03	0.000598646	700.0
2360	7.00040e+02	2.36000e+03	0.000581704	700.0
2362	7.00039e+02	2.36200e+03	0.000560017	700.0
2364	7.00040e+02	2.36400e+03	0.00052909	700.0
2366	7.00032e+02	2.36600e+03	0.000489909	700.0
2368	7.00035e+02	2.36800e+03	0.000438995	700.0
2370	7.00038e+02	2.37000e+03	0.000389098	700.0
2372	7.00043e+02	2.37200e+03	0.000353709	700.0
2374	7.00034e+02	2.37400e+03	0.00035301	700.0
2376	7.00031e+02	2.37600e+03	0.00039431	700.0
2378	7.00041e+02	2.37800e+03	0.000444654	700.0
2380	7.00037e+02	2.38000e+03	0.000508815	700.0
2382	7.00042e+02	2.38200e+03	0.000579945	700.0
2384	7.00034e+02	2.38400e+03	0.000645161	700.0
2386	7.00038e+02	2.38600e+03	0.000690097	700.0
2388	7.00030e+02	2.38800e+03	0.000703488	700.0
2390	7.00035e+02	2.39000e+03	0.000701015	700.0
2392	7.00035e+02	2.39200e+03	0.000675297	700.0
2394	7.00030e+02	2.39400e+03	0.000656319	700.0
2396	7.00020e+02	2.39600e+03	0.000646087	700.0
2398	7.00030e+02	2.39800e+03	0.000644001	700.0
2400	7.00026e+02	2.40000e+03	0.000652629	700.0
2402	7.00024e+02	2.40200e+03	0.000658297	700.0
2404	7.00032e+02	2.40400e+03	0.000656833	700.0
2406	7.00024e+02	2.40600e+03	0.00064747	700.0
2408	7.00026e+02	2.40800e+03	0.000626719	700.0
2410	7.00023e+02	2.41000e+03	0.000603627	700.0
2412	7.00026e+02	2.41200e+03	0.000579739	700.0
2414	7.00028e+02	2.41400e+03	0.000562984	700.0
2416	7.00012e+02	2.41600e+03	0.000559023	700.0
2418	7.00020e+02	2.41800e+03	0.000563113	700.0
2420	7.00016e+02	2.42000e+03	0.000576573	700.0
2422	7.00017e+02	2.42200e+03	0.000587992	700.0
2424	7.00015e+02	2.42400e+03	0.000593658	700.0
2426	7.00013e+02	2.42600e+03	0.000589812	700.0
2428	7.00009e+02	2.42800e+03	0.000569087	700.0
2430	7.00011e+02	2.43000e+03	0.000537325	700.0
2432	7.00014e+02	2.43200e+03	0.000491519	700.0
2434	7.00018e+02	2.43400e+03	0.000449176	700.0
2436	7.00011e+02	2.43600e+03	0.000418439	700.0
2438	7.00017e+02	2.43800e+03	0.000405195	700.0
2440	7.00021e+02	2.44000e+03	0.000426623	700.0
2442	7.00009e+02	2.44200e+03	0.000460424	700.0
2444	7.00012e+02	2.44400e+03	0.000500903	700.0
2446	7.00005e+02	2.44600e+03	0.000524239	700.0
2448	7.00005e+02	2.44800e+03	0.00052468	700.0
2450	7.00002e+02	2.45000e+03	0.000522881	700.0
2452	7.00005e+02	2.45200e+03	0.000518287	700.0
2454	7.00006e+02	2.45400e+03	0.000514735	700.0
2456	7.00008e+02	2.45600e+03	0.000512722	700.0
2458	7.00000e+02	2.45800e+03	0.000511297	700.0
2460	7.00004e+02	2.46000e+03	0.000510721	700.0
2462	7.00003e+02	2.46200e+03	0.000511106	700.0
2464	7.00012e+02	2.46400e+03	0.00052186	700.0
2466	7.00012e+02	2.46600e+03	0.000539047	700.0
2468	7.00014e+02	2.46800e+03	0.000568996	700.0
2470	7.00006e+02	2.47000e+03	0.000594455	700.0
2472	7.00005e+02	2.47200e+03	0.000608221	700.0
2474	7.00000e+02	2.47400e+03	0.000597105	700.0
2476	7.00005e+02	2.47600e+03	0.000556665	700.0
2478	7.00001e+02	2.47800e+03	0.000516899	700.0
2480	7.00012e+02	2.48000e+03	0.000483331	700.0
2482	7.00013e+02	2.48200e+03	0.000463428	700.0
2484	7.00013e+02	2.48400e+03	0.000460572	700.0
2486	7.00010e+02	2.48600e+03	0.000457221	700.0
2488	7.00007e+02	2.48800e+03	0.0004517	700.0
2490	7.00004e+02	2.49000e+03	0.000443187	700.0
2492	7.00007e+02	2.49200e+03	0.000432009	700.0
2494	7.00006e+02	2.49400e+03	0.00042367	700.0
2496	7.00007e+02	2.49600e+03	0.000428744	700.0
2498	7.00012e+02	2.49800e+03	0.000446064	700.0
2500	7.00009e+02	2.50000e+03	0.000470599	700.0
2502	6.99992e+02	2.50200e+03	0.000482516	700.0
2504	7.00016e+02	2.50400e+03	0.000475368	700.0
2506	7.00003e+02	2.50600e+03	0.000462775	700.0
2508	7.00010e+02	2.50800e+03	0.000444811	700.0
2510	7.00011e+02	2.51000e+03	0.000432215	700.0
2512	7.00011e+02	2.51200e+03	0.000441691	700.0
2514	7.00014e+02	2.51400e+03	0.000465373	700.0
2516	7.00009e+02	2.51600e+03	0.000496443	700.0
2518	7.00006e+02	2.51800e+03	0.000505139	700.0
2520	7.00015e+02	2.52000e+03	0.000487984	700.0
2522	7.00009e+02	2.52200e+03	0.000470061	700.0
2524	7.00005e+02	2.52400e+03	0.00046536	700.0
2526	7.00012e+02	2.52600e+03	0.000473861	700.0
2528	7.00011e+02	2.52800e+03	0.000509363	700.0
2530	7.00022e+02	2.53000e+03	0.000544209	700.0
2532	7.00008e+02	2.53200e+03	0.000573268	700.0
2534	6.99988e+02	2.53400e+03	0.000587533	700.0
2536	7.00000e+02	2.53600e+03	0.000579682	700.0
2538	6.99999e+02	2.53800e+03	0.000566419	700.0
2540	6.99998e+02	2.54000e+03	0.000547782	700.0
2542	7.00000e+02	2.54200e+03	0.000532802	700.0
2544	6.99998e+02	2.54400e+03	0.000523427	700.0
2546	7.00007e+02	2.54600e+03	0.000515923	700.0
2548	7.00003e+02	2.54800e+03	0.000509083	700.0
2550	7.00009e+02	2.55000e+03	0.000501578	700.0
2552	7.00010e+02	2.55200e+03	0.000497547	700.0
2554	7.00015e+02	2.55400e+03	0.000503873	700.0
2556	7.00010e+02	2.55600e+03	0.00052744	700.0
2558	7.00010e+02	2.55800e+03	0.000556046	700.0
2560	7.00014e+02	2.56000e+03	0.000586567	700.0
2562	7.00004e+02	2.56200e+03	0.000609908	700.0
2564	7.00011e+02	2.56400e+03	0.000629493	700.0
2566	7.00001e+02	2.56600e+03	0.000639441	700.0
2568	7.00007e+02	2.56800e+03	0.000629714	700.0
2570	7.00008e+02	2.57000e+03	0.000600861	700.0
2572	7.00003e+02	2.57200e+03	0.000549225	700.0
2574	7.00009e+02	2.57400e+03	0.000501982	700.0
2576	7.00003e+02	2.57600e+03	0.000456989	700.0
2578	7.00011e+02	2.57800e+03	0.000402984	700.0
2580	7.00007e+02	2.58000e+03	0.000349762	700.0
2582	7.00012e+02	2.58200e+03	0.000311368	700.0
2584	7.00018e+02	2.58400e+03	0.000299521	700.0
2586	7.00003e+02	2.58600e+03	0.000304763	700.0
2588	7.00012e+02	2.58800e+03	0.000322566	700.0
2590	7.00007e+02	2.59000e+03	0.000336126	700.0
2592	7.00016e+02	2.59200e+03	0.000341666	700.0
2594	7.00005e+02	2.59400e+03	0.000344121	700.0
2596	7.00015e+02	2.59600e+03	0.000350607	700.0
2598	7.00003e+02	2.59800e+03	0.000365935	700.0
2600	7.00015e+02	2.60000e+03	0.000387738	700.0
2602	7.00015e+02	2.60200e+03	0.000412478	700.0
2604	7.00001e+02	2.60400e+03	0.000429886	700.0
2606	7.00001e+02	2.60600e+03	0.000437188	700.0
2608	7.00011e+02	2.60800e+03	0.000431915	700.0
2610	7.00018e+02	2.61000e+03	0.000426146	700.0
2612	7.00011e+02	2.61200e+03	0.000421158	700.0
2614	7.00010e+02	2.61400e+03	0.000421907	700.0
2616	7.00011e+02	2.61600e+03	0.000431969	700.0
2618	7.00003e+02	2.61800e+03	0.000444601	700.0
2620	7.00012e+02	2.62000e+03	0.000456392	700.0
2622	7.00003e+02	2.62200e+03	0.000459821	700.0
2624	7.00012e+02	2.62400e+03	0.000449867	700.0
2626	7.00003e+02	2.62600e+03	0.00043172	700.0
2628	7.00009e+02	2.62800e+03	0.000400418	700.0
2630	7.00002e+02	2.63000e+03	0.000366592	700.0
2632	7.00013e+02	2.63200e+03	0.000333979	700.0
2634	7.00002e+02	2.63400e+03	0.000311504	700.0
2636	7.00015e+02	2.63600e+03	0.000304419	700.0
2638	7.00004e+02	2.63800e+03	0.000305941	700.0
2640	7.00005e+02	2.64000e+03	0.000323529	700.0
2642	7.00007e+02	2.64200e+03	0.00035047	700.0
2644	7.00008e+02	2.64400e+03	0.00038825	700.0
2646	7.00004e+02	2.64600e+03	0.000420416	700.0
2648	6.99997e+02	2.64800e+03	0.000438543	700.0
2650	7.00002e+02	2.65000e+03	0.000440427	700.0
2652	7.00004e+02	2.65200e+03	0.000413484	700.0
2654	7.00014e+02	2.65400e+03	0.000370767	700.0
2656	7.00005e+02	2.65600e+03	0.000321924	700.0
2658	7.00002e+02	2.65800e+03	0.000291051	700.0
2660	6.99997e+02	2.66000e+03	0.000293996	700.0
2662	6.99999e+02	2.66200e+03	0.000310883	700.0
2664	6.99996e+02	2.66400e+03	0.000344277	700.0
2666	7.00001e+02	2.66600e+03	0.000375965	700.0
2668	6.99998e+02	2.66800e+03	0.000405774	700.0
2670	7.00008e+02	2.67000e+03	0.000435561	700.0
2672	6.99992e+02	2.67200e+03	0.000461443	700.0
2674	7.00002e+02	2.67400e+03	0.000476454	700.0
2676	6.99998e+02	2.67600e+03	0.00047139	700.0
2678	7.00008e+02	2.67800e+03	0.000453668	700.0
2680	6.99999e+02	2.68000e+03	0.000419854	700.0
2682	6.99999e+02	2.68200e+03	0.000387144	700.0
2684	7.00001e+02	2.68400e+03	0.000358696	700.0
2686	7.00001e+02	2.68600e+03	0.00033708	700.0
2688	6.99989e+02	2.68800e+03	0.000325538	700.0
2690	6.99992e+02	2.69000e+03	0.000317368	700.0
2692	6.99994e+02	2.69200e+03	0.000314031	700.0
2694	7.00004e+02	2.69400e+03	0.00031199	700.0
2696	7.00003e+02	2.69600e+03	0.000313824	700.0
2698	7.00003e+02	2.69800e+03	0.000321113	700.0
2700	7.00002e+02	2.70000e+03	0.000345591	700.0
2702	6.99998e+02	2.70200e+03	0.000384732	700.0
2704	6.99998e+02	2.70400e+03	0.00043345	700.0
2706	6.99996e+02	2.70600e+03	0.000469486	700.0
2708	6.99999e+02	2.70800e+03	0.000482162	700.0
2710	7.00000e+02	2.71000e+03	0.000470478	700.0
2712	6.99999e+02	2.71200e+03	0.000443495	700.0
2714	7.00003e+02	2.71400e+03	0.000405917	700.0
2716	7.00005e+02	2.71600e+03	0.00036452	700.0
2718	7.00004e+02	2.71800e+03	0.000334266	700.0
2720	6.99992e+02	2.72000e+03	0.00032006	700.0