File: Experiments/TUBS/tga_nonisotherm/tga_dynamic_n2high60_dyn30_powder_3mg_r1.txt
Index	Ts	t	Weight	Tr
[#]	[°C]	[s]	[mg]	[°C]
681	1.30250e+02	6.81000e+02	2.99978	130.5
683	1.31270e+02	6.83000e+02	2.99966	131.5
685	1.32285e+02	6.85000e+02	2.99951	132.5
687	1.33304e+02	6.87000e+02	2.99938	133.5
689	1.34314e+02	6.89000e+02	2.99928	134.5
691	1.35314e+02	6.91000e+02	2.99918	135.5
693	1.36337e+02	6.93000e+02	2.9991	136.5
695	1.37348e+02	6.95000e+02	2.99905	137.5
697	1.38353e+02	6.97000e+02	2.99903	138.5
699	1.39368e+02	6.99000e+02	2.99896	139.5
701	1.40394e+02	7.01000e+02	2.99882	140.5
703	1.41417e+02	7.03000e+02	2.99867	141.5
705	1.42428e+02	7.05000e+02	2.99845	142.5
707	1.43438e+02	7.07000e+02	2.99823	143.5
709	1.44456e+02	7.09000e+02	2.99801	144.5
711	1.45477e+02	7.11000e+02	2.99779	145.5
713	1.46473e+02	7.13000e+02	2.99757	146.5
715	1.47476e+02	7.15000e+02	2.99732	147.5
717	1.48512e+02	7.17000e+02	2.99704	148.5
719	1.49527e+02	7.19000e+02	2.99676	149.5
721	1.50534e+02	7.21000e+02	2.99645	150.5
723	1.51545e+02	7.23000e+02	2.9961	151.5
725	1.52577e+02	7.25000e+02	2.99568	152.5
727	1.53598e+02	7.27000e+02	2.99524	153.5
729	1.54614e+02	7.29000e+02	2.99473	154.5
731	1.55613e+02	7.31000e+02	2.99423	155.5
733	1.56630e+02	7.33000e+02	2.99371	156.5
735	1.57643e+02	7.35000e+02	2.99319	157.5
737	1.58665e+02	7.37000e+02	2.99267	158.5
739	1.59674e+02	7.39000e+02	2.99217	159.5
741	1.60691e+02	7.41000e+02	2.99167	160.5
743	1.61707e+02	7.43000e+02	2.99118	161.5
745	1.62721e+02	7.45000e+02	2.99067	162.5
747	1.63746e+02	7.47000e+02	2.99013	163.5
749	1.64772e+02	7.49000e+02	2.98953	164.5
751	1.65778e+02	7.51000e+02	2.98891	165.5
753	1.66793e+02	7.53000e+02	2.98823	166.5
755	1.67822e+02	7.55000e+02	2.98754	167.5
757	1.68831e+02	7.57000e+02	2.98676	168.5
759	1.69853e+02	7.59000e+02	2.98594	169.5
761	1.70866e+02	7.61000e+02	2.98501	170.5
763	1.71894e+02	7.63000e+02	2.98409	171.5
765	1.72903e+02	7.65000e+02	2.98311	172.5
767	1.73906e+02	7.67000e+02	2.98211	173.5
769	1.74936e+02	7.69000e+02	2.98103	174.5
771	1.75957e+02	7.71000e+02	2.97991	175.5
773	1.76982e+02	7.73000e+02	2.97862	176.5
775	1.78007e+02	7.75000e+02	2.97726	177.5
777	1.79021e+02	7.77000e+02	2.97567	178.5
779	1.80037e+02	7.79000e+02	2.97402	179.5
781	1.81050e+02	7.81000e+02	2.97211	180.5
783	1.82088e+02	7.83000e+02	2.97012	181.5
785	1.83100e+02	7.85000e+02	2.96788	182.5
787	1.84118e+02	7.87000e+02	2.96562	183.5
789	1.85144e+02	7.89000e+02	2.96314	184.5
791	1.86165e+02	7.91000e+02	2.96062	185.5
793	1.87186e+02	7.93000e+02	2.95789	186.5
795	1.88216e+02	7.95000e+02	2.95514	187.5
797	1.89235e+02	7.97000e+02	2.95221	188.5
799	1.90256e+02	7.99000e+02	2.94921	189.5
801	1.91278e+02	8.01000e+02	2.946	190.5
803	1.92297e+02	8.03000e+02	2.94278	191.5
805	1.93336e+02	8.05000e+02	2.9394	192.5
807	1.94365e+02	8.07000e+02	2.93602	193.5
809	1.95381e+02	8.09000e+02	2.9326	194.5
811	1.96407e+02	8.11000e+02	2.92921	195.5
813	1.97436e+02	8.13000e+02	2.92583	196.5
815	1.98462e+02	8.15000e+02	2.92246	197.5
817	1.99491e+02	8.17000e+02	2.91913	198.5
819	2.00518e+02	8.19000e+02	2.91586	199.5
821	2.01548e+02	8.21000e+02	2.91273	200.5
823	2.02564e+02	8.23000e+02	2.90968	201.5
825	2.03604e+02	8.25000e+02	2.90682	202.5
827	2.04636e+02	8.27000e+02	2.90401	203.5
829	2.05669e+02	8.29000e+02	2.90141	204.5
831	2.06682e+02	8.31000e+02	2.89888	205.5
833	2.07734e+02	8.33000e+02	2.89662	206.5
835	2.08763e+02	8.35000e+02	2.89444	207.5
837	2.09783e+02	8.37000e+02	2.89255	208.5
839	2.10816e+02	8.39000e+02	2.89073	209.5
841	2.11852e+02	8.41000e+02	2.8892	210.5
843	2.12862e+02	8.43000e+02	2.88772	211.5
845	2.13895e+02	8.45000e+02	2.8865	212.5
847	2.14905e+02	8.47000e+02	2.8853	213.5
849	2.15949e+02	8.49000e+02	2.88429	214.5
851	2.16971e+02	8.51000e+02	2.88329	215.5
853	2.17988e+02	8.53000e+02	2.88242	216.5
855	2.18988e+02	8.55000e+02	2.88157	217.5
857	2.20031e+02	8.57000e+02	2.88081	218.5
859	2.21035e+02	8.59000e+02	2.88003	219.5
861	2.22062e+02	8.61000e+02	2.87929	220.5
863	2.23077e+02	8.63000e+02	2.87856	221.5
865	2.24092e+02	8.65000e+02	2.87784	222.5
867	2.25123e+02	8.67000e+02	2.87711	223.5
869	2.26150e+02	8.69000e+02	2.87639	224.5
871	2.27167e+02	8.71000e+02	2.87566	225.5
873	2.28187e+02	8.73000e+02	2.87491	226.5
875	2.29219e+02	8.75000e+02	2.87415	227.5
877	2.30236e+02	8.77000e+02	2.87339	228.5
879	2.31255e+02	8.79000e+02	2.87264	229.5
881	2.32294e+02	8.81000e+02	2.87189	230.5
883	2.33312e+02	8.83000e+02	2.87111	231.5
885	2.34344e+02	8.85000e+02	2.87031	232.5
887	2.35370e+02	8.87000e+02	2.86952	233.5
889	2.36386e+02	8.89000e+02	2.86875	234.5
891	2.37404e+02	8.91000e+02	2.868	235.5
893	2.38443e+02	8.93000e+02	2.86728	236.5
895	2.39470e+02	8.95000e+02	2.86658	237.5
897	2.40492e+02	8.97000e+02	2.8659	238.5
899	2.41516e+02	8.99000e+02	2.8652	239.5
901	2.42522e+02	9.01000e+02	2.86448	240.5
903	2.43545e+02	9.03000e+02	2.86379	241.5
905	2.44556e+02	9.05000e+02	2.86313	242.5
907	2.45576e+02	9.07000e+02	2.86249	243.5
909	2.46598e+02	9.09000e+02	2.86191	244.5
911	2.47625e+02	9.11000e+02	2.86131	245.5
913	2.48641e+02	9.13000e+02	2.86074	246.5
915	2.49673e+02	9.15000e+02	2.86016	247.5
917	2.50701e+02	9.17000e+02	2.85961	248.5
919	2.51723e+02	9.19000e+02	2.85907	249.5
921	2.52748e+02	9.21000e+02	2.85859	250.5
923	2.53791e+02	9.23000e+02	2.85813	251.5
925	2.54808e+02	9.25000e+02	2.85768	252.5
927	2.55822e+02	9.27000e+02	2.8572	253.5
929	2.56857e+02	9.29000e+02	2.8567	254.5
931	2.57879e+02	9.31000e+02	2.85621	255.5
933	2.58899e+02	9.33000e+02	2.85572	256.5
935	2.59912e+02	9.35000e+02	2.85523	257.5
937	2.60923e+02	9.37000e+02	2.85475	258.5
939	2.61949e+02	9.39000e+02	2.85427	259.5
941	2.62951e+02	9.41000e+02	2.85376	260.5
943	2.63986e+02	9.43000e+02	2.85323	261.5
945	2.65004e+02	9.45000e+02	2.85269	262.5
947	2.66013e+02	9.47000e+02	2.85218	263.5
949	2.67042e+02	9.49000e+02	2.85167	264.5
951	2.68048e+02	9.51000e+02	2.85115	265.5
953	2.69048e+02	9.53000e+02	2.85063	266.5
955	2.70052e+02	9.55000e+02	2.85013	267.5
957	2.71070e+02	9.57000e+02	2.84965	268.5
959	2.72087e+02	9.59000e+02	2.84916	269.5
961	2.73095e+02	9.61000e+02	2.84868	270.5
963	2.74120e+02	9.63000e+02	2.84817	271.5
965	2.75120e+02	9.65000e+02	2.8476	272.5
967	2.76148e+02	9.67000e+02	2.847	273.5
969	2.77173e+02	9.69000e+02	2.84633	274.5
971	2.78213e+02	9.71000e+02	2.84567	275.5
973	2.79251e+02	9.73000e+02	2.84496	276.5
975	2.80262e+02	9.75000e+02	2.84421	277.5
977	2.81266e+02	9.77000e+02	2.84338	278.5
979	2.82271e+02	9.79000e+02	2.84253	279.5
981	2.83287e+02	9.81000e+02	2.8416	280.5
983	2.84285e+02	9.83000e+02	2.84065	281.5
985	2.85306e+02	9.85000e+02	2.83958	282.5
987	2.86308e+02	9.87000e+02	2.83848	283.5
989	2.87316e+02	9.89000e+02	2.83723	284.5
991	2.88326e+02	9.91000e+02	2.83595	285.5
993	2.89336e+02	9.93000e+02	2.83455	286.5
995	2.90302e+02	9.95000e+02	2.83313	287.5
997	2.91305e+02	9.97000e+02	2.8316	288.5
999	2.92294e+02	9.99000e+02	2.83003	289.5
1001	2.93306e+02	1.00100e+03	2.82831	290.5
1003	2.94299e+02	1.00300e+03	2.82651	291.5
1005	2.95274e+02	1.00500e+03	2.8245	292.5
1007	2.96257e+02	1.00700e+03	2.82243	293.5
1009	2.97227e+02	1.00900e+03	2.82012	294.5
1011	2.98183e+02	1.01100e+03	2.81775	295.5
1013	2.99129e+02	1.01300e+03	2.81517	296.5
1015	3.00072e+02	1.01500e+03	2.81253	297.5
1017	3.01008e+02	1.01700e+03	2.80967	298.5
1019	3.01944e+02	1.01900e+03	2.80674	299.5
1021	3.02854e+02	1.02100e+03	2.8036	300.5
1023	3.03788e+02	1.02300e+03	2.80041	301.5
1025	3.04711e+02	1.02500e+03	2.79701	302.5
1027	3.05637e+02	1.02700e+03	2.79352	303.5
1029	3.06559e+02	1.02900e+03	2.78978	304.5
1031	3.07468e+02	1.03100e+03	2.78601	305.5
1033	3.08360e+02	1.03300e+03	2.78203	306.5
1035	3.09253e+02	1.03500e+03	2.77803	307.5
1037	3.10181e+02	1.03700e+03	2.77387	308.5
1039	3.11110e+02	1.03900e+03	2.76967	309.5
1041	3.12018e+02	1.04100e+03	2.76524	310.5
1043	3.12925e+02	1.04300e+03	2.76072	311.5
1045	3.13853e+02	1.04500e+03	2.75595	312.5
1047	3.14808e+02	1.04700e+03	2.75119	313.5
1049	3.15788e+02	1.04900e+03	2.74626	314.5
1051	3.16759e+02	1.05100e+03	2.74135	315.5
1053	3.17761e+02	1.05300e+03	2.73642	316.5
1055	3.18749e+02	1.05500e+03	2.73154	317.5
1057	3.19740e+02	1.05700e+03	2.72674	318.5
1059	3.20738e+02	1.05900e+03	2.72193	319.5
1061	3.21743e+02	1.06100e+03	2.71716	320.5
1063	3.22743e+02	1.06300e+03	2.71238	321.5
1065	3.23735e+02	1.06500e+03	2.70758	322.5
1067	3.24750e+02	1.06700e+03	2.70274	323.5
1069	3.25749e+02	1.06900e+03	2.69779	324.5
1071	3.26747e+02	1.07100e+03	2.69279	325.5
1073	3.27767e+02	1.07300e+03	2.6876	326.5
1075	3.28767e+02	1.07500e+03	2.68233	327.5
1077	3.29765e+02	1.07700e+03	2.67676	328.5
1079	3.30782e+02	1.07900e+03	2.67104	329.5
1081	3.31787e+02	1.08100e+03	2.66487	330.5
1083	3.32792e+02	1.08300e+03	2.65853	331.5
1085	3.33797e+02	1.08500e+03	2.65161	332.5
1087	3.34808e+02	1.08700e+03	2.64448	333.5
1089	3.35813e+02	1.08900e+03	2.63663	334.5
1091	3.36828e+02	1.09100e+03	2.62856	335.5
1093	3.37881e+02	1.09300e+03	2.61966	336.5
1095	3.39055e+02	1.09500e+03	2.6105	337.5
1097	3.40067e+02	1.09700e+03	2.60044	338.5
1099	3.41080e+02	1.09900e+03	2.59015	339.5
1101	3.42123e+02	1.10100e+03	2.57889	340.5
1103	3.43122e+02	1.10300e+03	2.56731	341.5
1105	3.44145e+02	1.10500e+03	2.55459	342.5
1107	3.45110e+02	1.10700e+03	2.54153	343.5
1109	3.46109e+02	1.10900e+03	2.52716	344.5
1111	3.47100e+02	1.11100e+03	2.51239	345.5
1113	3.48085e+02	1.11300e+03	2.49616	346.5
1115	3.49066e+02	1.11500e+03	2.47956	347.5
1117	3.50063e+02	1.11700e+03	2.46144	348.5
1119	3.51047e+02	1.11900e+03	2.44294	349.5
1121	3.52062e+02	1.12100e+03	2.42285	350.5
1123	3.53081e+02	1.12300e+03	2.40235	351.5
1125	3.54099e+02	1.12500e+03	2.38013	352.5
1127	3.55099e+02	1.12700e+03	2.35745	353.5
1129	3.56111e+02	1.12900e+03	2.33295	354.5
1131	3.57096e+02	1.13100e+03	2.30804	355.5
1133	3.58110e+02	1.13300e+03	2.28133	356.5
1135	3.59128e+02	1.13500e+03	2.25422	357.5
1137	3.60150e+02	1.13700e+03	2.22533	358.5
1139	3.61141e+02	1.13900e+03	2.196	359.5
1141	3.62128e+02	1.14100e+03	2.1649	360.5
1143	3.63146e+02	1.14300e+03	2.13342	361.5
1145	3.64140e+02	1.14500e+03	2.10025	362.5
1147	3.65092e+02	1.14700e+03	2.06676	363.5
1149	3.66145e+02	1.14900e+03	2.03172	364.5
1151	3.67139e+02	1.15100e+03	1.99636	365.5
1153	3.68189e+02	1.15300e+03	1.95952	366.5
1155	3.69199e+02	1.15500e+03	1.92231	367.5
1157	3.70242e+02	1.15700e+03	1.88363	368.5
1159	3.71231e+02	1.15900e+03	1.8446	369.5
1161	3.72244e+02	1.16100e+03	1.80412	370.5
1163	3.73235e+02	1.16300e+03	1.76332	371.5
1165	3.74233e+02	1.16500e+03	1.72116	372.5
1167	3.75206e+02	1.16700e+03	1.67876	373.5
1169	3.76197e+02	1.16900e+03	1.63521	374.5
1171	3.77176e+02	1.17100e+03	1.59154	375.5
1173	3.78157e+02	1.17300e+03	1.54703	376.5
1175	3.79143e+02	1.17500e+03	1.5024	377.5
1177	3.80140e+02	1.17700e+03	1.45684	378.5
1179	3.81143e+02	1.17900e+03	1.41084	379.5
1181	3.82142e+02	1.18100e+03	1.36364	380.5
1183	3.83140e+02	1.18300e+03	1.31635	381.5
1185	3.84141e+02	1.18500e+03	1.26829	382.5
1187	3.85149e+02	1.18700e+03	1.22038	383.5
1189	3.86140e+02	1.18900e+03	1.17235	384.5
1191	3.87137e+02	1.19100e+03	1.12444	385.5
1193	3.88129e+02	1.19300e+03	1.07674	386.5
1195	3.89131e+02	1.19500e+03	1.0292	387.5
1197	3.90124e+02	1.19700e+03	0.982168	388.5
1199	3.91122e+02	1.19900e+03	0.935397	389.5
1201	3.92125e+02	1.20100e+03	0.889439	390.5
1203	3.93142e+02	1.20300e+03	0.843803	391.5
1205	3.94132e+02	1.20500e+03	0.799308	392.5
1207	3.95141e+02	1.20700e+03	0.755225	393.5
1209	3.96149e+02	1.20900e+03	0.712656	394.5
1211	3.97144e+02	1.21100e+03	0.670615	395.5
1213	3.98146e+02	1.21300e+03	0.630452	396.5
1215	3.99151e+02	1.21500e+03	0.590868	397.5
1217	4.00159e+02	1.21700e+03	0.553412	398.5
1219	4.01170e+02	1.21900e+03	0.516545	399.5
1221	4.02199e+02	1.22100e+03	0.481983	400.5
1223	4.03203e+02	1.22300e+03	0.448038	401.5
1225	4.04244e+02	1.22500e+03	0.416493	402.5
1227	4.05265e+02	1.22700e+03	0.385536	403.5
1229	4.06288e+02	1.22900e+03	0.357068	404.5
1231	4.07329e+02	1.23100e+03	0.329242	405.5
1233	4.08341e+02	1.23300e+03	0.303948	406.5
1235	4.09368e+02	1.23500e+03	0.279179	407.5
1237	4.10386e+02	1.23700e+03	0.256811	408.5
1239	4.11408e+02	1.23900e+03	0.234961	409.5
1241	4.12429e+02	1.24100e+03	0.215397	410.5
1243	4.13436e+02	1.24300e+03	0.196301	411.5
1245	4.14455e+02	1.24500e+03	0.17934	412.5
1247	4.15469e+02	1.24700e+03	0.162797	413.5
1249	4.16484e+02	1.24900e+03	0.148194	414.5
1251	4.17475e+02	1.25100e+03	0.133963	415.5
1253	4.18494e+02	1.25300e+03	0.121531	416.5
1255	4.19481e+02	1.25500e+03	0.109485	417.5
1257	4.20484e+02	1.25700e+03	0.0991255	418.5
1259	4.21475e+02	1.25900e+03	0.0890685	419.5
1261	4.22503e+02	1.26100e+03	0.0804931	420.5
1263	4.23519e+02	1.26300e+03	0.0721739	421.5
1265	4.24562e+02	1.26500e+03	0.0651454	422.5
1267	4.25576e+02	1.26700e+03	0.0583535	423.5
1269	4.26584e+02	1.26900e+03	0.0526938	424.5
1271	4.27572e+02	1.27100e+03	0.0472199	425.5
1273	4.28576e+02	1.27300e+03	0.0427203	426.5
1275	4.29588e+02	1.27500e+03	0.0383897	427.5
1277	4.30575e+02	1.27700e+03	0.0348911	428.5
1279	4.31583e+02	1.27900e+03	0.0315185	429.5
1281	4.32588e+02	1.28100e+03	0.0288284	430.5
1283	4.33591e+02	1.28300e+03	0.0262208	431.5
1285	4.34590e+02	1.28500e+03	0.0241154	432.5
1287	4.35590e+02	1.28700e+03	0.0220512	433.5
1289	4.36573e+02	1.28900e+03	0.0203542	434.5
1291	4.37566e+02	1.29100e+03	0.0187191	435.5
1293	4.38555e+02	1.29300e+03	0.0173845	436.5
1295	4.39563e+02	1.29500e+03	0.0160861	437.5
1297	4.40541e+02	1.29700e+03	0.0150513	438.5
1299	4.41525e+02	1.29900e+03	0.0140871	439.5
1301	4.42528e+02	1.30100e+03	0.0133699	440.5
1303	4.43504e+02	1.30300e+03	0.0126629	441.5
1305	4.44505e+02	1.30500e+03	0.012099	442.5
1307	4.45490e+02	1.30700e+03	0.0115263	443.5
1309	4.46465e+02	1.30900e+03	0.011015	444.5
1311	4.47462e+02	1.31100e+03	0.0105104	445.5
1313	4.48432e+02	1.31300e+03	0.0100771	446.5
1315	4.49431e+02	1.31500e+03	0.00967265	447.5
1317	4.50417e+02	1.31700e+03	0.00935382	448.5
1319	4.51411e+02	1.31900e+03	0.00904471	449.5
1321	4.52384e+02	1.32100e+03	0.00880889	450.5
1323	4.53371e+02	1.32300e+03	0.00858442	451.5
1325	4.54335e+02	1.32500e+03	0.0084067	452.5
1327	4.55315e+02	1.32700e+03	0.00822041	453.5
1329	4.56302e+02	1.32900e+03	0.00806625	454.5
1331	4.57270e+02	1.33100e+03	0.00793614	455.5
1333	4.58257e+02	1.33300e+03	0.00784161	456.5
1335	4.59242e+02	1.33500e+03	0.00773817	457.5
1337	4.60210e+02	1.33700e+03	0.00764149	458.5
1339	4.61205e+02	1.33900e+03	0.00754386	459.5
1341	4.62170e+02	1.34100e+03	0.00744922	460.5
1343	4.63164e+02	1.34300e+03	0.00736133	461.5
1345	4.64127e+02	1.34500e+03	0.00728633	462.5
1347	4.65085e+02	1.34700e+03	0.00720971	463.5
1349	4.66054e+02	1.34900e+03	0.00714482	464.5
1351	4.67032e+02	1.35100e+03	0.0070883	465.5
1353	4.68009e+02	1.35300e+03	0.00706292	466.5
1355	4.68986e+02	1.35500e+03	0.00705822	467.5
1357	4.69949e+02	1.35700e+03	0.00710226	468.5
1359	4.70918e+02	1.35900e+03	0.00713768	469.5
1361	4.71877e+02	1.36100e+03	0.00716123	470.5
1363	4.72852e+02	1.36300e+03	0.00714714	471.5
1365	4.73821e+02	1.36500e+03	0.00707162	472.5
1367	4.74807e+02	1.36700e+03	0.00700688	473.5
1369	4.75779e+02	1.36900e+03	0.00692295	474.5
1371	4.76748e+02	1.37100e+03	0.00684961	475.5
1373	4.77716e+02	1.37300e+03	0.00679227	476.5
1375	4.78687e+02	1.37500e+03	0.00674608	477.5
1377	4.79655e+02	1.37700e+03	0.0067118	478.5
1379	4.80625e+02	1.37900e+03	0.00666197	479.5
1381	4.81601e+02	1.38100e+03	0.00660593	480.5
1383	4.82576e+02	1.38300e+03	0.00655498	481.5
1385	4.83540e+02	1.38500e+03	0.00650126	482.5
1387	4.84518e+02	1.38700e+03	0.00645457	483.5
1389	4.85486e+02	1.38900e+03	0.00643145	484.5
1391	4.86449e+02	1.39100e+03	0.0064222	485.5
1393	4.87399e+02	1.39300e+03	0.00642161	486.5
1395	4.88376e+02	1.39500e+03	0.00639068	487.5
1397	4.89328e+02	1.39700e+03	0.00633518	488.5
1399	4.90290e+02	1.39900e+03	0.00629168	489.5
1401	4.91256e+02	1.40100e+03	0.00624529	490.5
1403	4.92216e+02	1.40300e+03	0.00619836	491.5
1405	4.93189e+02	1.40500e+03	0.00616392	492.5
1407	4.94167e+02	1.40700e+03	0.00614518	493.5
1409	4.95131e+02	1.40900e+03	0.0061435	494.5
1411	4.96111e+02	1.41100e+03	0.00612983	495.5
1413	4.97096e+02	1.41300e+03	0.00610314	496.5
1415	4.98088e+02	1.41500e+03	0.00606416	497.5
1417	4.99088e+02	1.41700e+03	0.00600437	498.5
1419	5.00055e+02	1.41900e+03	0.00595266	499.5
1421	5.01046e+02	1.42100e+03	0.0059101	500.5
1423	5.02024e+02	1.42300e+03	0.00588055	501.5
1425	5.03005e+02	1.42500e+03	0.00586946	502.5
1427	5.03997e+02	1.42700e+03	0.00584475	503.5
1429	5.04997e+02	1.42900e+03	0.00580543	504.5
1431	5.05958e+02	1.43100e+03	0.00576071	505.5
1433	5.06931e+02	1.43300e+03	0.00570751	506.5
1435	5.07927e+02	1.43500e+03	0.00566374	507.5
1437	5.08900e+02	1.43700e+03	0.00561734	508.5
1439	5.09870e+02	1.43900e+03	0.00556313	509.5
1441	5.10849e+02	1.44100e+03	0.00551256	510.5
1443	5.11853e+02	1.44300e+03	0.00548417	511.5
1445	5.12854e+02	1.44500e+03	0.00548312	512.5
1447	5.13834e+02	1.44700e+03	0.00547489	513.5
1449	5.14829e+02	1.44900e+03	0.00547937	514.5
1451	5.15822e+02	1.45100e+03	0.00548847	515.5
1453	5.16813e+02	1.45300e+03	0.00550185	516.5
1455	5.17816e+02	1.45500e+03	0.00551293	517.5
1457	5.18803e+02	1.45700e+03	0.00552146	518.5
1459	5.19775e+02	1.45900e+03	0.00552646	519.5
1461	5.20771e+02	1.46100e+03	0.00550132	520.5
1463	5.21756e+02	1.46300e+03	0.00545733	521.5
1465	5.22775e+02	1.46500e+03	0.00539814	522.5
1467	5.23755e+02	1.46700e+03	0.0053709	523.5
1469	5.24738e+02	1.46900e+03	0.00537227	524.5
1471	5.25702e+02	1.47100e+03	0.00537023	525.5
1473	5.26688e+02	1.47300e+03	0.00537925	526.5
1475	5.27671e+02	1.47500e+03	0.00538498	527.5
1477	5.28669e+02	1.47700e+03	0.00537537	528.5
1479	5.29664e+02	1.47900e+03	0.00535267	529.5
1481	5.30651e+02	1.48100e+03	0.00531867	530.5
1483	5.31650e+02	1.48300e+03	0.005302	531.5
1485	5.32640e+02	1.48500e+03	0.00529713	532.5
1487	5.33631e+02	1.48700e+03	0.00528863	533.5
1489	5.34663e+02	1.48900e+03	0.00528904	534.5
1491	5.35657e+02	1.49100e+03	0.00529051	535.5
1493	5.36667e+02	1.49300e+03	0.0052849	536.5
1495	5.37679e+02	1.49500e+03	0.00526315	537.5
1497	5.38666e+02	1.49700e+03	0.00522411	538.5
1499	5.39664e+02	1.49900e+03	0.00520007	539.5
1501	5.40658e+02	1.50100e+03	0.00519449	540.5
1503	5.42061e+02	1.50300e+03	0.00519655	541.5
1505	5.43099e+02	1.50500e+03	0.00521289	542.5
1507	5.44118e+02	1.50700e+03	0.00521243	543.5
1509	5.45122e+02	1.50900e+03	0.00518419	544.5
1511	5.46129e+02	1.51100e+03	0.00513954	545.5
1513	5.47127e+02	1.51300e+03	0.00506171	546.5
1515	5.48106e+02	1.51500e+03	0.00499752	547.5
1517	5.49070e+02	1.51700e+03	0.00495927	548.5
1519	5.50046e+02	1.51900e+03	0.00494968	549.5
1521	5.51036e+02	1.52100e+03	0.00498614	550.5
1523	5.52030e+02	1.52300e+03	0.00500434	551.5
1525	5.53031e+02	1.52500e+03	0.0050318	552.5
1527	5.54012e+02	1.52700e+03	0.00506496	553.5
1529	5.55018e+02	1.52900e+03	0.00508931	554.5
1531	5.55996e+02	1.53100e+03	0.00509479	555.5
1533	5.56997e+02	1.53300e+03	0.00507395	556.5
1535	5.57998e+02	1.53500e+03	0.00505465	557.5
1537	5.59021e+02	1.53700e+03	0.0050241	558.5
1539	5.60040e+02	1.53900e+03	0.00500911	559.5
1541	5.61025e+02	1.54100e+03	0.0050193	560.5
1543	5.62088e+02	1.54300e+03	0.00502664	561.5
1545	5.63100e+02	1.54500e+03	0.00501801	562.5
1547	5.64071e+02	1.54700e+03	0.00498597	563.5
1549	5.65047e+02	1.54900e+03	0.00493746	564.5
1551	5.66006e+02	1.55100e+03	0.00492568	565.5
1553	5.66976e+02	1.55300e+03	0.00494177	566.5
1555	5.67952e+02	1.55500e+03	0.00494679	567.5
1557	5.68948e+02	1.55700e+03	0.00496396	568.5
1559	5.69908e+02	1.55900e+03	0.00498973	569.5
1561	5.70897e+02	1.56100e+03	0.00500954	570.5
1563	5.71894e+02	1.56300e+03	0.00500688	571.5
1565	5.72888e+02	1.56500e+03	0.00498626	572.5
1567	5.73880e+02	1.56700e+03	0.00497609	573.5
1569	5.74874e+02	1.56900e+03	0.00497024	574.5
1571	5.75870e+02	1.57100e+03	0.00496379	575.5
1573	5.76874e+02	1.57300e+03	0.00497143	576.5
1575	5.77874e+02	1.57500e+03	0.00498526	577.5
1577	5.78867e+02	1.57700e+03	0.00499929	578.5
1579	5.79888e+02	1.57900e+03	0.004993	579.5
1581	5.80894e+02	1.58100e+03	0.00497348	580.5
1583	5.81909e+02	1.58300e+03	0.00496491	581.5
1585	5.82909e+02	1.58500e+03	0.00495503	582.5
1587	5.83888e+02	1.58700e+03	0.00493824	583.5
1589	5.84930e+02	1.58900e+03	0.00491947	584.5
1591	5.86014e+02	1.59100e+03	0.0049047	585.5
1593	5.87135e+02	1.59300e+03	0.00489692	586.5
1595	5.88326e+02	1.59500e+03	0.00489288	587.5
1597	5.89494e+02	1.59700e+03	0.00490514	588.5
1599	5.90653e+02	1.59900e+03	0.00492399	589.5
1601	5.91686e+02	1.60100e+03	0.00496581	590.5
1603	5.92217e+02	1.60300e+03	0.00500963	591.5
1605	5.93061e+02	1.60500e+03	0.00504619	592.5
1607	5.93788e+02	1.60700e+03	0.00505797	593.5
1609	5.94710e+02	1.60900e+03	0.00503109	594.5
1611	5.95598e+02	1.61100e+03	0.00500727	595.5
1613	5.96528e+02	1.61300e+03	0.00496854	596.5
1615	5.97462e+02	1.61500e+03	0.00494939	597.5
1617	5.98408e+02	1.61700e+03	0.00497355	598.5
1619	5.99359e+02	1.61900e+03	0.00502327	599.5
1621	6.00311e+02	1.62100e+03	0.00510542	600.5
1623	6.01291e+02	1.62300e+03	0.00514827	601.5
1625	6.02273e+02	1.62500e+03	0.00514554	602.5
1627	6.03236e+02	1.62700e+03	0.00512783	603.5
1629	6.04219e+02	1.62900e+03	0.00505405	604.5
1631	6.05230e+02	1.63100e+03	0.00498584	605.5
1633	6.06196e+02	1.63300e+03	0.00492536	606.5
1635	6.07161e+02	1.63500e+03	0.00489697	607.5
1637	6.08123e+02	1.63700e+03	0.00489398	608.5
1639	6.09105e+02	1.63900e+03	0.00485976	609.5
1641	6.10149e+02	1.64100e+03	0.00482302	610.5
1643	6.11220e+02	1.64300e+03	0.00481084	611.5
1645	6.12253e+02	1.64500e+03	0.00482031	612.5
1647	6.13285e+02	1.64700e+03	0.00482336	613.5
1649	6.14284e+02	1.64900e+03	0.00483454	614.5
1651	6.15388e+02	1.65100e+03	0.00484522	615.5
1653	6.16437e+02	1.65300e+03	0.00484819	616.5
1655	6.17466e+02	1.65500e+03	0.00484456	617.5
1657	6.18443e+02	1.65700e+03	0.00483526	618.5
1659	6.19476e+02	1.65900e+03	0.00482636	619.5
1661	6.20565e+02	1.66100e+03	0.00480858	620.5
1663	6.21628e+02	1.66300e+03	0.00478345	621.5
1665	6.22560e+02	1.66500e+03	0.00475539	622.5
1667	6.23524e+02	1.66700e+03	0.00474394	623.5
1669	6.24508e+02	1.66900e+03	0.00475331	624.5
1671	6.25489e+02	1.67100e+03	0.00476295	625.5
1673	6.26483e+02	1.67300e+03	0.00477924	626.5
1675	6.27478e+02	1.67500e+03	0.00478464	627.5
1677	6.28517e+02	1.67700e+03	0.00476881	628.5
1679	6.29524e+02	1.67900e+03	0.00474578	629.5
1681	6.30452e+02	1.68100e+03	0.00470275	630.5
1683	6.31400e+02	1.68300e+03	0.0046655	631.5
1685	6.32373e+02	1.68500e+03	0.00464056	632.5
1687	6.33354e+02	1.68700e+03	0.00463413	633.5
1689	6.34346e+02	1.68900e+03	0.00465425	634.5
1691	6.35327e+02	1.69100e+03	0.00467398	635.5
1693	6.36319e+02	1.69300e+03	0.0047086	636.5
1695	6.37300e+02	1.69500e+03	0.00474353	637.5
1697	6.38292e+02	1.69700e+03	0.00477074	638.5
1699	6.39302e+02	1.69900e+03	0.00479446	639.5
1701	6.40287e+02	1.70100e+03	0.00482568	640.5
1703	6.41280e+02	1.70300e+03	0.00487376	641.5
1705	6.42260e+02	1.70500e+03	0.00492678	642.5
1707	6.43278e+02	1.70700e+03	0.00495226	643.5
1709	6.44249e+02	1.70900e+03	0.00495194	644.5
1711	6.45256e+02	1.71100e+03	0.00496328	645.5
1713	6.46231e+02	1.71300e+03	0.00496678	646.5
1715	6.47229e+02	1.71500e+03	0.00496615	647.5
1717	6.48213e+02	1.71700e+03	0.00496775	648.5
1719	6.49206e+02	1.71900e+03	0.00497489	649.5
1721	6.50211e+02	1.72100e+03	0.00496513	650.5
1723	6.51253e+02	1.72300e+03	0.00493073	651.5
1725	6.52253e+02	1.72500e+03	0.00486784	652.5
1727	6.53240e+02	1.72700e+03	0.00481093	653.5
1729	6.54226e+02	1.72900e+03	0.00474228	654.5
1731	6.55233e+02	1.73100e+03	0.00467682	655.5
1733	6.56242e+02	1.73300e+03	0.00463848	656.5
1735	6.57269e+02	1.73500e+03	0.00462662	657.5
1737	6.58276e+02	1.73700e+03	0.0046556	658.5
1739	6.59291e+02	1.73900e+03	0.00466969	659.5
1741	6.60280e+02	1.74100e+03	0.00469706	660.5
1743	6.61282e+02	1.74300e+03	0.00473059	661.5
1745	6.62294e+02	1.74500e+03	0.00477067	662.5
1747	6.63346e+02	1.74700e+03	0.00480065	663.5
1749	6.64359e+02	1.74900e+03	0.00482104	664.5
1751	6.65390e+02	1.75100e+03	0.00484187	665.5
1753	6.66419e+02	1.75300e+03	0.00485493	666.5
1755	6.67426e+02	1.75500e+03	0.00487084	667.5
1757	6.68429e+02	1.75700e+03	0.0048785	668.5
1759	6.69455e+02	1.75900e+03	0.00488374	669.5
1761	6.70500e+02	1.76100e+03	0.00488623	670.5
1763	6.71504e+02	1.76300e+03	0.00489596	671.5
1765	6.72579e+02	1.76500e+03	0.00491151	672.5
1767	6.73634e+02	1.76700e+03	0.00492486	673.5
1769	6.74690e+02	1.76900e+03	0.0049251	674.5
1771	6.75745e+02	1.77100e+03	0.00490308	675.5
1773	6.76791e+02	1.77300e+03	0.00484791	676.5
1775	6.77802e+02	1.77500e+03	0.00480583	677.5
1777	6.78818e+02	1.77700e+03	0.00476959	678.5
1779	6.79838e+02	1.77900e+03	0.00474611	679.5
1781	6.80866e+02	1.78100e+03	0.00473079	680.5
1783	6.81913e+02	1.78300e+03	0.00470672	681.5
1785	6.82949e+02	1.78500e+03	0.00468728	682.5
1787	6.83965e+02	1.78700e+03	0.00468227	683.5
1789	6.84988e+02	1.78900e+03	0.00468532	684.5
1791	6.86018e+02	1.79100e+03	0.0046709	685.5
1793	6.86978e+02	1.79300e+03	0.00467261	686.5
1795	6.87683e+02	1.79500e+03	0.00470406	687.5
1797	6.88163e+02	1.79700e+03	0.00477875	688.5
1799	6.88897e+02	1.79900e+03	0.00483031	689.5
1801	6.89598e+02	1.80100e+03	0.00485835	690.5
1803	6.90252e+02	1.80300e+03	0.00484704	691.5
1805	6.90876e+02	1.80500e+03	0.00478176	692.5
1807	6.91479e+02	1.80700e+03	0.00471995	693.5
1809	6.92059e+02	1.80900e+03	0.00466432	694.5
1811	6.92568e+02	1.81100e+03	0.00463894	695.5
1813	6.93043e+02	1.81300e+03	0.00463942	696.5
1815	6.93492e+02	1.81500e+03	0.00461248	697.5
1817	6.93942e+02	1.81700e+03	0.00455191	698.5
1819	6.94363e+02	1.81900e+03	0.00449062	699.5
1821	6.94768e+02	1.82100e+03	0.00442336	700.0
1823	6.95106e+02	1.82300e+03	0.00438121	700.0
1825	6.95436e+02	1.82500e+03	0.00438055	700.0
1827	6.95756e+02	1.82700e+03	0.00438539	700.0
1829	6.96075e+02	1.82900e+03	0.00439634	700.0
1831	6.96375e+02	1.83100e+03	0.00439486	700.0
1833	6.96659e+02	1.83300e+03	0.00439208	700.0
1835	6.96935e+02	1.83500e+03	0.00439922	700.0
1837	6.97174e+02	1.83700e+03	0.00441124	700.0
1839	6.97389e+02	1.83900e+03	0.00442214	700.0
1841	6.97599e+02	1.84100e+03	0.00444965	700.0
1843	6.97762e+02	1.84300e+03	0.00449296	700.0
1845	6.97919e+02	1.84500e+03	0.00454861	700.0
1847	6.98078e+02	1.84700e+03	0.00458932	700.0
1849	6.98224e+02	1.84900e+03	0.0046049	700.0
1851	6.98357e+02	1.85100e+03	0.00461308	700.0
1853	6.98481e+02	1.85300e+03	0.0045966	700.0
1855	6.98587e+02	1.85500e+03	0.00457353	700.0
1857	6.98698e+02	1.85700e+03	0.00452556	700.0
1859	6.98803e+02	1.85900e+03	0.00448259	700.0
1861	6.98924e+02	1.86100e+03	0.0044348	700.0
1863	6.99024e+02	1.86300e+03	0.00439146	700.0
1865	6.99067e+02	1.86500e+03	0.00435298	700.0
1867	6.99134e+02	1.86700e+03	0.00431138	700.0
1869	6.99222e+02	1.86900e+03	0.00427204	700.0
1871	6.99302e+02	1.87100e+03	0.00424532	700.0
1873	6.99382e+02	1.87300e+03	0.00423757	700.0
1875	6.99449e+02	1.87500e+03	0.0042186	700.0
1877	6.99520e+02	1.87700e+03	0.00420863	700.0
1879	6.99570e+02	1.87900e+03	0.0042239	700.0
1881	6.99636e+02	1.88100e+03	0.00428082	700.0
1883	6.99698e+02	1.88300e+03	0.00435538	700.0
1885	6.99755e+02	1.88500e+03	0.00446696	700.0
1887	6.99812e+02	1.88700e+03	0.00454744	700.0
1889	6.99867e+02	1.88900e+03	0.00456413	700.0
1891	6.99915e+02	1.89100e+03	0.00455111	700.0
1893	6.99953e+02	1.89300e+03	0.00446934	700.0
1895	6.99994e+02	1.89500e+03	0.00441052	700.0
1897	7.00043e+02	1.89700e+03	0.00434233	700.0
1899	7.00097e+02	1.89900e+03	0.00427316	700.0
1901	7.00122e+02	1.90100e+03	0.00421532	700.0
1903	7.00165e+02	1.90300e+03	0.00417366	700.0
1905	7.00196e+02	1.90500e+03	0.00416779	700.0
1907	7.00237e+02	1.90700e+03	0.0041704	700.0
1909	7.00268e+02	1.90900e+03	0.00420657	700.0
1911	7.00296e+02	1.91100e+03	0.00424834	700.0
1913	7.00302e+02	1.91300e+03	0.00429133	700.0
1915	7.00344e+02	1.91500e+03	0.0043069	700.0
1917	7.00362e+02	1.91700e+03	0.00427592	700.0
1919	7.00394e+02	1.91900e+03	0.00424213	700.0
1921	7.00418e+02	1.92100e+03	0.00419015	700.0
1923	7.00430e+02	1.92300e+03	0.00416521	700.0
1925	7.00459e+02	1.92500e+03	0.00417628	700.0
1927	7.00475e+02	1.92700e+03	0.00419158	700.0
1929	7.00495e+02	1.92900e+03	0.00423011	700.0
1931	7.00515e+02	1.93100e+03	0.00426347	700.0
1933	7.00537e+02	1.93300e+03	0.00430036	700.0
1935	7.00552e+02	1.93500e+03	0.00434452	700.0
1937	7.00554e+02	1.93700e+03	0.00438357	700.0
1939	7.00562e+02	1.93900e+03	0.0044091	700.0
1941	7.00577e+02	1.94100e+03	0.00440633	700.0
1943	7.00590e+02	1.94300e+03	0.00439827	700.0
1945	7.00609e+02	1.94500e+03	0.00437929	700.0
1947	7.00619e+02	1.94700e+03	0.00436703	700.0
1949	7.00631e+02	1.94900e+03	0.00434094	700.0
1951	7.00645e+02	1.95100e+03	0.00429503	700.0
1953	7.00652e+02	1.95300e+03	0.00421088	700.0
1955	7.00667e+02	1.95500e+03	0.00413236	700.0
1957	7.00693e+02	1.95700e+03	0.00405485	700.0
1959	7.00700e+02	1.95900e+03	0.00400196	700.0
1961	7.00712e+02	1.96100e+03	0.00402325	700.0
1963	7.00716e+02	1.96300e+03	0.00407847	700.0
1965	7.00734e+02	1.96500e+03	0.00417915	700.0
1967	7.00742e+02	1.96700e+03	0.00423022	700.0
1969	7.00748e+02	1.96900e+03	0.00423528	700.0
1971	7.00767e+02	1.97100e+03	0.00423292	700.0
1973	7.00778e+02	1.97300e+03	0.00419798	700.0
1975	7.00788e+02	1.97500e+03	0.00417353	700.0
1977	7.00792e+02	1.97700e+03	0.00415924	700.0
1979	7.00815e+02	1.97900e+03	0.00414318	700.0
1981	7.00811e+02	1.98100e+03	0.00411889	700.0
1983	7.00837e+02	1.98300e+03	0.00408257	700.0
1985	7.00841e+02	1.98500e+03	0.00404725	700.0
1987	7.00849e+02	1.98700e+03	0.0040403	700.0
1989	7.00849e+02	1.98900e+03	0.00406466	700.0
1991	7.00859e+02	1.99100e+03	0.00408064	700.0
1993	7.00874e+02	1.99300e+03	0.00409438	700.0
1995	7.00881e+02	1.99500e+03	0.00410651	700.0
1997	7.00882e+02	1.99700e+03	0.0041054	700.0
1999	7.00896e+02	1.99900e+03	0.00410458	700.0
2001	7.00885e+02	2.00100e+03	0.00410372	700.0
2003	7.00901e+02	2.00300e+03	0.00410463	700.0
2005	7.00900e+02	2.00500e+03	0.00410418	700.0
2007	7.00902e+02	2.00700e+03	0.0040993	700.0
2009	7.00905e+02	2.00900e+03	0.00408516	700.0
2011	7.00914e+02	2.01100e+03	0.00407029	700.0
2013	7.00908e+02	2.01300e+03	0.00405696	700.0
2015	7.00914e+02	2.01500e+03	0.00405608	700.0
2017	7.00933e+02	2.01700e+03	0.0040825	700.0
2019	7.00917e+02	2.01900e+03	0.00411919	700.0
2021	7.00918e+02	2.02100e+03	0.00418816	700.0
2023	7.00934e+02	2.02300e+03	0.00424102	700.0
2025	7.00926e+02	2.02500e+03	0.00427192	700.0
2027	7.00924e+02	2.02700e+03	0.00427755	700.0
2029	7.00927e+02	2.02900e+03	0.00425511	700.0
2031	7.00934e+02	2.03100e+03	0.0042476	700.0
2033	7.00941e+02	2.03300e+03	0.00424475	700.0
2035	7.00939e+02	2.03500e+03	0.00423673	700.0
2037	7.00940e+02	2.03700e+03	0.0042349	700.0
2039	7.00939e+02	2.03900e+03	0.00422942	700.0
2041	7.00947e+02	2.04100e+03	0.00420545	700.0
2043	7.00938e+02	2.04300e+03	0.00417372	700.0
2045	7.00937e+02	2.04500e+03	0.00412971	700.0
2047	7.00956e+02	2.04700e+03	0.00409968	700.0
2049	7.00945e+02	2.04900e+03	0.00407786	700.0
2051	7.00957e+02	2.05100e+03	0.00406136	700.0
2053	7.00959e+02	2.05300e+03	0.00405667	700.0
2055	7.00956e+02	2.05500e+03	0.00406812	700.0
2057	7.00962e+02	2.05700e+03	0.00409539	700.0
2059	7.00961e+02	2.05900e+03	0.00411111	700.0
2061	7.00969e+02	2.06100e+03	0.00413131	700.0
2063	7.00971e+02	2.06300e+03	0.00415844	700.0
2065	7.00971e+02	2.06500e+03	0.00418677	700.0
2067	7.00975e+02	2.06700e+03	0.00420676	700.0
2069	7.00987e+02	2.06900e+03	0.00421865	700.0
2071	7.00975e+02	2.07100e+03	0.00424302	700.0
2073	7.00982e+02	2.07300e+03	0.0042688	700.0
2075	7.00987e+02	2.07500e+03	0.00429138	700.0
2077	7.00994e+02	2.07700e+03	0.00430429	700.0
2079	7.00987e+02	2.07900e+03	0.00430111	700.0
2081	7.00993e+02	2.08100e+03	0.00426319	700.0
2083	7.00990e+02	2.08300e+03	0.0042207	700.0
2085	7.00999e+02	2.08500e+03	0.00415967	700.0
2087	7.00992e+02	2.08700e+03	0.00411565	700.0
2089	7.00997e+02	2.08900e+03	0.00410322	700.0
2091	7.00994e+02	2.09100e+03	0.0040979	700.0
2093	7.00993e+02	2.09300e+03	0.004117	700.0
2095	7.00991e+02	2.09500e+03	0.00412048	700.0
2097	7.00988e+02	2.09700e+03	0.00411171	700.0
2099	7.00983e+02	2.09900e+03	0.00410048	700.0
2101	7.00993e+02	2.10100e+03	0.00407995	700.0
2103	7.00992e+02	2.10300e+03	0.0040648	700.0
2105	7.00988e+02	2.10500e+03	0.0040695	700.0
2107	7.00982e+02	2.10700e+03	0.00408211	700.0
2109	7.00984e+02	2.10900e+03	0.00411519	700.0
2111	7.00987e+02	2.11100e+03	0.00413917	700.0
2113	7.00981e+02	2.11300e+03	0.00415743	700.0
2115	7.00996e+02	2.11500e+03	0.00416836	700.0
2117	7.00989e+02	2.11700e+03	0.00415902	700.0
2119	7.00994e+02	2.11900e+03	0.00415307	700.0
2121	7.00992e+02	2.12100e+03	0.00413611	700.0
2123	7.00992e+02	2.12300e+03	0.00412041	700.0
2125	7.00991e+02	2.12500e+03	0.00410155	700.0
2127	7.01003e+02	2.12700e+03	0.0040762	700.0
2129	7.00994e+02	2.12900e+03	0.00404553	700.0
2131	7.01000e+02	2.13100e+03	0.00402764	700.0
2133	7.00992e+02	2.13300e+03	0.00399885	700.0
2135	7.00990e+02	2.13500e+03	0.00395638	700.0
2137	7.00998e+02	2.13700e+03	0.00391871	700.0
2139	7.00994e+02	2.13900e+03	0.0039032	700.0
2141	7.00986e+02	2.14100e+03	0.00391201	700.0
2143	7.00983e+02	2.14300e+03	0.00391317	700.0
2145	7.00982e+02	2.14500e+03	0.00391804	700.0
2147	7.00982e+02	2.14700e+03	0.003929	700.0
2149	7.00968e+02	2.14900e+03	0.00393904	700.0
2151	7.00983e+02	2.15100e+03	0.00394921	700.0
2153	7.00971e+02	2.15300e+03	0.00396376	700.0
2155	7.00962e+02	2.15500e+03	0.0039789	700.0
2157	7.00964e+02	2.15700e+03	0.00399863	700.0
2159	7.00963e+02	2.15900e+03	0.00402178	700.0
2161	7.00962e+02	2.16100e+03	0.00405476	700.0
2163	7.00960e+02	2.16300e+03	0.00408762	700.0
2165	7.00956e+02	2.16500e+03	0.0041185	700.0
2167	7.00955e+02	2.16700e+03	0.00413865	700.0
2169	7.00960e+02	2.16900e+03	0.00413853	700.0
2171	7.00949e+02	2.17100e+03	0.00414491	700.0
2173	7.00946e+02	2.17300e+03	0.00414679	700.0
2175	7.00946e+02	2.17500e+03	0.00414804	700.0
2177	7.00945e+02	2.17700e+03	0.00415426	700.0
2179	7.00946e+02	2.17900e+03	0.00415328	700.0
2181	7.00938e+02	2.18100e+03	0.00414095	700.0
2183	7.00934e+02	2.18300e+03	0.00410838	700.0
2185	7.00932e+02	2.18500e+03	0.00404904	700.0
2187	7.00934e+02	2.18700e+03	0.00399747	700.0
2189	7.00921e+02	2.18900e+03	0.00395341	700.0
2191	7.00921e+02	2.19100e+03	0.00393107	700.0
2193	7.00920e+02	2.19300e+03	0.00394528	700.0
2195	7.00909e+02	2.19500e+03	0.0039665	700.0
2197	7.00902e+02	2.19700e+03	0.0040076	700.0
2199	7.00907e+02	2.19900e+03	0.00403196	700.0
2201	7.00896e+02	2.20100e+03	0.00402693	700.0
2203	7.00893e+02	2.20300e+03	0.00400997	700.0
2205	7.00888e+02	2.20500e+03	0.00397644	700.0
2207	7.00889e+02	2.20700e+03	0.00397605	700.0
2209	7.00889e+02	2.20900e+03	0.00400429	700.0
2211	7.00888e+02	2.21100e+03	0.00402847	700.0
2213	7.00882e+02	2.21300e+03	0.0040697	700.0
2215	7.00878e+02	2.21500e+03	0.00409996	700.0
2217	7.00876e+02	2.21700e+03	0.00411232	700.0
2219	7.00861e+02	2.21900e+03	0.00410861	700.0
2221	7.00872e+02	2.22100e+03	0.00408967	700.0
2223	7.00858e+02	2.22300e+03	0.00409175	700.0
2225	7.00851e+02	2.22500e+03	0.00410613	700.0
2227	7.00845e+02	2.22700e+03	0.00411445	700.0
2229	7.00854e+02	2.22900e+03	0.004118	700.0
2231	7.00847e+02	2.23100e+03	0.00411413	700.0
2233	7.00844e+02	2.23300e+03	0.00409152	700.0
2235	7.00837e+02	2.23500e+03	0.00406328	700.0
2237	7.00842e+02	2.23700e+03	0.00402515	700.0
2239	7.00841e+02	2.23900e+03	0.00399588	700.0
2241	7.00832e+02	2.24100e+03	0.00396414	700.0
2243	7.00831e+02	2.24300e+03	0.00392886	700.0
2245	7.00826e+02	2.24500e+03	0.00389383	700.0
2247	7.00824e+02	2.24700e+03	0.00386548	700.0
2249	7.00821e+02	2.24900e+03	0.00385005	700.0
2251	7.00816e+02	2.25100e+03	0.00382758	700.0
2253	7.00808e+02	2.25300e+03	0.00381345	700.0
2255	7.00810e+02	2.25500e+03	0.00381351	700.0
2257	7.00802e+02	2.25700e+03	0.00382547	700.0
2259	7.00800e+02	2.25900e+03	0.00383492	700.0
2261	7.00784e+02	2.26100e+03	0.00384512	700.0
2263	7.00780e+02	2.26300e+03	0.00385072	700.0
2265	7.00765e+02	2.26500e+03	0.0038633	700.0
2267	7.00763e+02	2.26700e+03	0.00388068	700.0
2269	7.00761e+02	2.26900e+03	0.00390621	700.0
2271	7.00755e+02	2.27100e+03	0.00391989	700.0
2273	7.00753e+02	2.27300e+03	0.00392125	700.0
2275	7.00748e+02	2.27500e+03	0.00392457	700.0
2277	7.00740e+02	2.27700e+03	0.00392187	700.0
2279	7.00742e+02	2.27900e+03	0.00391668	700.0
2281	7.00728e+02	2.28100e+03	0.00391905	700.0
2283	7.00730e+02	2.28300e+03	0.00392442	700.0
2285	7.00730e+02	2.28500e+03	0.00393431	700.0
2287	7.00721e+02	2.28700e+03	0.00393592	700.0
2289	7.00724e+02	2.28900e+03	0.00392589	700.0
2291	7.00714e+02	2.29100e+03	0.00391404	700.0
2293	7.00710e+02	2.29300e+03	0.00389267	700.0
2295	7.00712e+02	2.29500e+03	0.00387284	700.0
2297	7.00713e+02	2.29700e+03	0.00385392	700.0
2299	7.00712e+02	2.29900e+03	0.00383989	700.0
2301	7.00703e+02	2.30100e+03	0.0038341	700.0
2303	7.00704e+02	2.30300e+03	0.00382846	700.0
2305	7.00707e+02	2.30500e+03	0.00383857	700.0
2307	7.00698e+02	2.30700e+03	0.00385824	700.0
2309	7.00696e+02	2.30900e+03	0.00389067	700.0
2311	7.00691e+02	2.31100e+03	0.00391603	700.0
2313	7.00699e+02	2.31300e+03	0.00394102	700.0
2315	7.00691e+02	2.31500e+03	0.00396989	700.0
2317	7.00691e+02	2.31700e+03	0.00398266	700.0
2319	7.00680e+02	2.31900e+03	0.00398351	700.0
2321	7.00681e+02	2.32100e+03	0.00395994	700.0
2323	7.00670e+02	2.32300e+03	0.00393748	700.0
2325	7.00671e+02	2.32500e+03	0.00390342	700.0
2327	7.00657e+02	2.32700e+03	0.00386057	700.0
2329	7.00673e+02	2.32900e+03	0.00381446	700.0
2331	7.00668e+02	2.33100e+03	0.00377669	700.0
2333	7.00661e+02	2.33300e+03	0.00376784	700.0
2335	7.00656e+02	2.33500e+03	0.00376992	700.0
2337	7.00650e+02	2.33700e+03	0.00379178	700.0
2339	7.00641e+02	2.33900e+03	0.00380025	700.0
2341	7.00652e+02	2.34100e+03	0.00381999	700.0
2343	7.00644e+02	2.34300e+03	0.00385055	700.0
2345	7.00639e+02	2.34500e+03	0.00389547	700.0
2347	7.00644e+02	2.34700e+03	0.00392782	700.0
2349	7.00627e+02	2.34900e+03	0.00395207	700.0
2351	7.00629e+02	2.35100e+03	0.00397677	700.0
2353	7.00635e+02	2.35300e+03	0.00399138	700.0
2355	7.00631e+02	2.35500e+03	0.0039966	700.0
2357	7.00627e+02	2.35700e+03	0.00398856	700.0
2359	7.00609e+02	2.35900e+03	0.00398582	700.0
2361	7.00611e+02	2.36100e+03	0.0039746	700.0
2363	7.00614e+02	2.36300e+03	0.00395973	700.0
2365	7.00611e+02	2.36500e+03	0.00393636	700.0
2367	7.00607e+02	2.36700e+03	0.00390723	700.0
2369	7.00612e+02	2.36900e+03	0.00386542	700.0
2371	7.00604e+02	2.37100e+03	0.0038363	700.0
2373	7.00601e+02	2.37300e+03	0.00382884	700.0
2375	7.00596e+02	2.37500e+03	0.00385113	700.0
2377	7.00600e+02	2.37700e+03	0.0039057	700.0
2379	7.00597e+02	2.37900e+03	0.00393677	700.0
2381	7.00597e+02	2.38100e+03	0.00393904	700.0
2383	7.00590e+02	2.38300e+03	0.00392914	700.0
2385	7.00593e+02	2.38500e+03	0.00389718	700.0
2387	7.00590e+02	2.38700e+03	0.00387183	700.0
2389	7.00592e+02	2.38900e+03	0.00383844	700.0
2391	7.00589e+02	2.39100e+03	0.00380445	700.0
2393	7.00583e+02	2.39300e+03	0.0037846	700.0
2395	7.00586e+02	2.39500e+03	0.00378228	700.0
2397	7.00576e+02	2.39700e+03	0.00380841	700.0
2399	7.00587e+02	2.39900e+03	0.00383057	700.0
2401	7.00580e+02	2.40100e+03	0.00386251	700.0
2403	7.00582e+02	2.40300e+03	0.00387837	700.0
2405	7.00583e+02	2.40500e+03	0.00387117	700.0
2407	7.00585e+02	2.40700e+03	0.00384963	700.0
2409	7.00576e+02	2.40900e+03	0.00381283	700.0
2411	7.00578e+02	2.41100e+03	0.00379849	700.0
2413	7.00575e+02	2.41300e+03	0.00381887	700.0
2415	7.00574e+02	2.41500e+03	0.00384282	700.0
2417	7.00554e+02	2.41700e+03	0.00389382	700.0
2419	7.00572e+02	2.41900e+03	0.00394439	700.0
2421	7.00556e+02	2.42100e+03	0.00398976	700.0
2423	7.00560e+02	2.42300e+03	0.0040076	700.0
2425	7.00562e+02	2.42500e+03	0.00398638	700.0
2427	7.00553e+02	2.42700e+03	0.0039659	700.0
2429	7.00557e+02	2.42900e+03	0.00394666	700.0
2431	7.00549e+02	2.43100e+03	0.00395624	700.0
2433	7.00553e+02	2.43300e+03	0.00400736	700.0
2435	7.00553e+02	2.43500e+03	0.00405174	700.0
2437	7.00557e+02	2.43700e+03	0.00409495	700.0
2439	7.00551e+02	2.43900e+03	0.00410774	700.0
2441	7.00551e+02	2.44100e+03	0.00406387	700.0
2443	7.00552e+02	2.44300e+03	0.0040161	700.0
2445	7.00547e+02	2.44500e+03	0.00395588	700.0
2447	7.00548e+02	2.44700e+03	0.00393077	700.0
2449	7.00545e+02	2.44900e+03	0.00395853	700.0
2451	7.00547e+02	2.45100e+03	0.00398941	700.0
2453	7.00551e+02	2.45300e+03	0.00404189	700.0
2455	7.00553e+02	2.45500e+03	0.00407571	700.0
2457	7.00542e+02	2.45700e+03	0.00408833	700.0
2459	7.00540e+02	2.45900e+03	0.0040971	700.0
2461	7.00542e+02	2.46100e+03	0.00409118	700.0
2463	7.00547e+02	2.46300e+03	0.00409015	700.0
2465	7.00548e+02	2.46500e+03	0.00410124	700.0
2467	7.00533e+02	2.46700e+03	0.00412203	700.0
2469	7.00538e+02	2.46900e+03	0.00414977	700.0
2471	7.00539e+02	2.47100e+03	0.00416101	700.0
2473	7.00528e+02	2.47300e+03	0.00415692	700.0
2475	7.00543e+02	2.47500e+03	0.00415181	700.0
2477	7.00536e+02	2.47700e+03	0.00413973	700.0
2479	7.00531e+02	2.47900e+03	0.00413266	700.0
2481	7.00543e+02	2.48100e+03	0.00412955	700.0
2483	7.00525e+02	2.48300e+03	0.00412664	700.0
2485	7.00532e+02	2.48500e+03	0.00412664	700.0
2487	7.00530e+02	2.48700e+03	0.00412874	700.0
2489	7.00534e+02	2.48900e+03	0.00413756	700.0
2491	7.00521e+02	2.49100e+03	0.00414704	700.0
2493	7.00523e+02	2.49300e+03	0.00415742	700.0
2495	7.00521e+02	2.49500e+03	0.00416126	700.0
2497	7.00521e+02	2.49700e+03	0.00415573	700.0
2499	7.00520e+02	2.49900e+03	0.00415905	700.0
2501	7.00527e+02	2.50100e+03	0.00416616	700.0
2503	7.00515e+02	2.50300e+03	0.00416336	700.0
2505	7.00520e+02	2.50500e+03	0.00413403	700.0
2507	7.00513e+02	2.50700e+03	0.00408973	700.0
2509	7.00520e+02	2.50900e+03	0.00401401	700.0
2511	7.00510e+02	2.51100e+03	0.00395431	700.0
2513	7.00518e+02	2.51300e+03	0.00390503	700.0
2515	7.00508e+02	2.51500e+03	0.00387382	700.0
2517	7.00517e+02	2.51700e+03	0.00388125	700.0
2519	7.00505e+02	2.51900e+03	0.0039035	700.0
2521	7.00509e+02	2.52100e+03	0.00396015	700.0
2523	7.00510e+02	2.52300e+03	0.00399904	700.0
2525	7.00503e+02	2.52500e+03	0.00402326	700.0
2527	7.00505e+02	2.52700e+03	0.00404686	700.0
2529	7.00505e+02	2.52900e+03	0.0040308	700.0
2531	7.00496e+02	2.53100e+03	0.00400475	700.0
2533	7.00500e+02	2.53300e+03	0.00395888	700.0
2535	7.00492e+02	2.53500e+03	0.00393121	700.0
2537	7.00490e+02	2.53700e+03	0.0039075	700.0
2539	7.00484e+02	2.53900e+03	0.00388253	700.0
2541	7.00494e+02	2.54100e+03	0.00386992	700.0
2543	7.00481e+02	2.54300e+03	0.0038753	700.0
2545	7.00482e+02	2.54500e+03	0.00390417	700.0
2547	7.00487e+02	2.54700e+03	0.00393354	700.0
2549	7.00482e+02	2.54900e+03	0.00397167	700.0
2551	7.00478e+02	2.55100e+03	0.00399971	700.0
2553	7.00476e+02	2.55300e+03	0.00402255	700.0
2555	7.00472e+02	2.55500e+03	0.00403944	700.0
2557	7.00478e+02	2.55700e+03	0.0040429	700.0
2559	7.00482e+02	2.55900e+03	0.00405205	700.0
2561	7.00477e+02	2.56100e+03	0.00405502	700.0
2563	7.00468e+02	2.56300e+03	0.00406222	700.0
2565	7.00477e+02	2.56500e+03	0.00407669	700.0
2567	7.00468e+02	2.56700e+03	0.00409006	700.0
2569	7.00463e+02	2.56900e+03	0.00409055	700.0
2571	7.00469e+02	2.57100e+03	0.0040749	700.0
2573	7.00469e+02	2.57300e+03	0.00404478	700.0
2575	7.00463e+02	2.57500e+03	0.00402782	700.0
2577	7.00473e+02	2.57700e+03	0.00403367	700.0
2579	7.00461e+02	2.57900e+03	0.00405009	700.0
2581	7.00459e+02	2.58100e+03	0.00407703	700.0
2583	7.00463e+02	2.58300e+03	0.00408602	700.0
2585	7.00460e+02	2.58500e+03	0.00408333	700.0
2587	7.00455e+02	2.58700e+03	0.00408087	700.0
2589	7.00459e+02	2.58900e+03	0.0040787	700.0
2591	7.00463e+02	2.59100e+03	0.00407834	700.0
2593	7.00455e+02	2.59300e+03	0.00408402	700.0
2595	7.00460e+02	2.59500e+03	0.00409198	700.0
2597	7.00457e+02	2.59700e+03	0.00409915	700.0
2599	7.00452e+02	2.59900e+03	0.00409521	700.0
2601	7.00456e+02	2.60100e+03	0.00407154	700.0
2603	7.00459e+02	2.60300e+03	0.00404802	700.0
2605	7.00450e+02	2.60500e+03	0.00400833	700.0
2607	7.00458e+02	2.60700e+03	0.00397186	700.0
2609	7.00452e+02	2.60900e+03	0.00395965	700.0
2611	7.00454e+02	2.61100e+03	0.00396317	700.0
2613	7.00451e+02	2.61300e+03	0.0039923	700.0
2615	7.00448e+02	2.61500e+03	0.00400753	700.0
2617	7.00443e+02	2.61700e+03	0.00401574	700.0
2619	7.00449e+02	2.61900e+03	0.00402233	700.0
2621	7.00441e+02	2.62100e+03	0.00402226	700.0
2623	7.00454e+02	2.62300e+03	0.00402052	700.0
2625	7.00449e+02	2.62500e+03	0.0040206	700.0
2627	7.00443e+02	2.62700e+03	0.00404154	700.0
2629	7.00444e+02	2.62900e+03	0.004083	700.0
2631	7.00435e+02	2.63100e+03	0.00412438	700.0
2633	7.00441e+02	2.63300e+03	0.00417653	700.0
2635	7.00436e+02	2.63500e+03	0.00421503	700.0
2637	7.00442e+02	2.63700e+03	0.00423443	700.0
2639	7.00430e+02	2.63900e+03	0.00423951	700.0
2641	7.00432e+02	2.64100e+03	0.0042165	700.0
2643	7.00430e+02	2.64300e+03	0.00419351	700.0
2645	7.00426e+02	2.64500e+03	0.00414755	700.0
2647	7.00435e+02	2.64700e+03	0.00410002	700.0
2649	7.00426e+02	2.64900e+03	0.00403886	700.0
2651	7.00426e+02	2.65100e+03	0.00398203	700.0
2653	7.00427e+02	2.65300e+03	0.00393786	700.0
2655	7.00421e+02	2.65500e+03	0.00391175	700.0
2657	7.00424e+02	2.65700e+03	0.00392434	700.0
2659	7.00422e+02	2.65900e+03	0.00394258	700.0
2661	7.00419e+02	2.66100e+03	0.00399546	700.0
2663	7.00418e+02	2.66300e+03	0.00403876	700.0
2665	7.00412e+02	2.66500e+03	0.0040762	700.0
2667	7.00401e+02	2.66700e+03	0.00409203	700.0
2669	7.00403e+02	2.66900e+03	0.00407174	700.0
2671	7.00400e+02	2.67100e+03	0.0040542	700.0
2673	7.00395e+02	2.67300e+03	0.00402879	700.0
2675	7.00398e+02	2.67500e+03	0.00401529	700.0
2677	7.00396e+02	2.67700e+03	0.00402005	700.0
2679	7.00394e+02	2.67900e+03	0.00402866	700.0
2681	7.00388e+02	2.68100e+03	0.00404174	700.0
2683	7.00374e+02	2.68300e+03	0.00405141	700.0
2685	7.00379e+02	2.68500e+03	0.00405473	700.0
2687	7.00377e+02	2.68700e+03	0.00405796	700.0
2689	7.00380e+02	2.68900e+03	0.0040531	700.0
2691	7.00376e+02	2.69100e+03	0.00404259	700.0
2693	7.00377e+02	2.69300e+03	0.00403189	700.0
2695	7.00369e+02	2.69500e+03	0.00403131	700.0
2697	7.00366e+02	2.69700e+03	0.00403642	700.0
2699	7.00369e+02	2.69900e+03	0.00403631	700.0
2701	7.00365e+02	2.70100e+03	0.00404041	700.0
2703	7.00359e+02	2.70300e+03	0.00406083	700.0
2705	7.00357e+02	2.70500e+03	0.00409468	700.0
2707	7.00354e+02	2.70700e+03	0.00412329	700.0
2709	7.00354e+02	2.70900e+03	0.00414557	700.0
2711	7.00355e+02	2.71100e+03	0.00415393	700.0
2713	7.00356e+02	2.71300e+03	0.0041485	700.0
2715	7.00349e+02	2.71500e+03	0.00413359	700.0
2717	7.00357e+02	2.71700e+03	0.00411848	700.0
2719	7.00346e+02	2.71900e+03	0.00410717	700.0
2720	7.00356e+02	2.72000e+03	0.00410281	700.0