File: Experiments/TUBS/tga_nonisotherm/tga_dynamic_n2_dyn5_powder_3mg_r2.txt
index	ts	t	weight	tr
[#]	[°C]	[s]	[mg]	[°C]
1083	1.30983e+02	1.08300e+03	3.00260e+00	1.30250e+02
1091	1.31641e+02	1.09100e+03	3.00242e+00	1.30917e+02
1099	1.32318e+02	1.09900e+03	3.00218e+00	1.31583e+02
1107	1.32992e+02	1.10700e+03	3.00198e+00	1.32250e+02
1115	1.33667e+02	1.11500e+03	3.00164e+00	1.32917e+02
1123	1.34340e+02	1.12300e+03	3.00137e+00	1.33583e+02
1131	1.35028e+02	1.13100e+03	3.00121e+00	1.34250e+02
1139	1.35696e+02	1.13900e+03	3.00099e+00	1.34917e+02
1147	1.36367e+02	1.14700e+03	3.00067e+00	1.35583e+02
1155	1.37047e+02	1.15500e+03	3.00035e+00	1.36250e+02
1163	1.37718e+02	1.16300e+03	3.00005e+00	1.36917e+02
1171	1.38399e+02	1.17100e+03	2.99974e+00	1.37583e+02
1179	1.39068e+02	1.17900e+03	2.99956e+00	1.38250e+02
1187	1.39748e+02	1.18700e+03	2.99924e+00	1.38917e+02
1195	1.40414e+02	1.19500e+03	2.99886e+00	1.39583e+02
1203	1.41084e+02	1.20300e+03	2.99863e+00	1.40250e+02
1211	1.41769e+02	1.21100e+03	2.99829e+00	1.40917e+02
1219	1.42444e+02	1.21900e+03	2.99778e+00	1.41583e+02
1227	1.43115e+02	1.22700e+03	2.99726e+00	1.42250e+02
1235	1.43782e+02	1.23500e+03	2.99689e+00	1.42917e+02
1243	1.44463e+02	1.24300e+03	2.99661e+00	1.43583e+02
1251	1.45136e+02	1.25100e+03	2.99614e+00	1.44250e+02
1259	1.45805e+02	1.25900e+03	2.99580e+00	1.44917e+02
1267	1.46485e+02	1.26700e+03	2.99532e+00	1.45583e+02
1275	1.47141e+02	1.27500e+03	2.99478e+00	1.46250e+02
1283	1.47847e+02	1.28300e+03	2.99434e+00	1.46917e+02
1291	1.48501e+02	1.29100e+03	2.99383e+00	1.47583e+02
1299	1.49182e+02	1.29900e+03	2.99338e+00	1.48250e+02
1307	1.49857e+02	1.30700e+03	2.99282e+00	1.48917e+02
1315	1.50536e+02	1.31500e+03	2.99225e+00	1.49583e+02
1323	1.51194e+02	1.32300e+03	2.99176e+00	1.50250e+02
1331	1.51860e+02	1.33100e+03	2.99110e+00	1.50917e+02
1339	1.52546e+02	1.33900e+03	2.99051e+00	1.51583e+02
1347	1.53210e+02	1.34700e+03	2.98988e+00	1.52250e+02
1355	1.53884e+02	1.35500e+03	2.98915e+00	1.52917e+02
1363	1.54551e+02	1.36300e+03	2.98863e+00	1.53583e+02
1371	1.55247e+02	1.37100e+03	2.98804e+00	1.54250e+02
1379	1.55910e+02	1.37900e+03	2.98726e+00	1.54917e+02
1387	1.56584e+02	1.38700e+03	2.98633e+00	1.55583e+02
1395	1.57261e+02	1.39500e+03	2.98553e+00	1.56250e+02
1403	1.57936e+02	1.40300e+03	2.98461e+00	1.56917e+02
1411	1.58605e+02	1.41100e+03	2.98362e+00	1.57583e+02
1419	1.59279e+02	1.41900e+03	2.98255e+00	1.58250e+02
1427	1.59960e+02	1.42700e+03	2.98139e+00	1.58917e+02
1435	1.60625e+02	1.43500e+03	2.98027e+00	1.59583e+02
1443	1.61303e+02	1.44300e+03	2.97899e+00	1.60250e+02
1451	1.61961e+02	1.45100e+03	2.97778e+00	1.60917e+02
1459	1.62653e+02	1.45900e+03	2.97612e+00	1.61583e+02
1467	1.63317e+02	1.46700e+03	2.97442e+00	1.62250e+02
1475	1.63989e+02	1.47500e+03	2.97273e+00	1.62917e+02
1483	1.64660e+02	1.48300e+03	2.97105e+00	1.63583e+02
1491	1.65335e+02	1.49100e+03	2.96921e+00	1.64250e+02
1499	1.66014e+02	1.49900e+03	2.96719e+00	1.64917e+02
1507	1.66683e+02	1.50700e+03	2.96514e+00	1.65583e+02
1515	1.67359e+02	1.51500e+03	2.96295e+00	1.66250e+02
1523	1.68040e+02	1.52300e+03	2.96053e+00	1.66917e+02
1531	1.68698e+02	1.53100e+03	2.95798e+00	1.67583e+02
1539	1.69385e+02	1.53900e+03	2.95545e+00	1.68250e+02
1547	1.70049e+02	1.54700e+03	2.95274e+00	1.68917e+02
1555	1.70723e+02	1.55500e+03	2.94997e+00	1.69583e+02
1563	1.71392e+02	1.56300e+03	2.94715e+00	1.70250e+02
1571	1.72074e+02	1.57100e+03	2.94416e+00	1.70917e+02
1579	1.72750e+02	1.57900e+03	2.94116e+00	1.71583e+02
1587	1.73405e+02	1.58700e+03	2.93803e+00	1.72250e+02
1595	1.74087e+02	1.59500e+03	2.93493e+00	1.72917e+02
1603	1.74768e+02	1.60300e+03	2.93198e+00	1.73583e+02
1611	1.75446e+02	1.61100e+03	2.92888e+00	1.74250e+02
1619	1.76121e+02	1.61900e+03	2.92573e+00	1.74917e+02
1627	1.76794e+02	1.62700e+03	2.92253e+00	1.75583e+02
1635	1.77472e+02	1.63500e+03	2.91957e+00	1.76250e+02
1643	1.78149e+02	1.64300e+03	2.91659e+00	1.76917e+02
1651	1.78813e+02	1.65100e+03	2.91389e+00	1.77583e+02
1659	1.79481e+02	1.65900e+03	2.91097e+00	1.78250e+02
1667	1.80148e+02	1.66700e+03	2.90813e+00	1.78917e+02
1675	1.80832e+02	1.67500e+03	2.90559e+00	1.79583e+02
1683	1.81503e+02	1.68300e+03	2.90297e+00	1.80250e+02
1691	1.82187e+02	1.69100e+03	2.90068e+00	1.80917e+02
1699	1.82860e+02	1.69900e+03	2.89822e+00	1.81583e+02
1707	1.83537e+02	1.70700e+03	2.89603e+00	1.82250e+02
1715	1.84221e+02	1.71500e+03	2.89385e+00	1.82917e+02
1723	1.84888e+02	1.72300e+03	2.89193e+00	1.83583e+02
1731	1.85562e+02	1.73100e+03	2.89012e+00	1.84250e+02
1739	1.86239e+02	1.73900e+03	2.88850e+00	1.84917e+02
1747	1.86908e+02	1.74700e+03	2.88700e+00	1.85583e+02
1755	1.87589e+02	1.75500e+03	2.88556e+00	1.86250e+02
1763	1.88251e+02	1.76300e+03	2.88415e+00	1.86917e+02
1771	1.88923e+02	1.77100e+03	2.88280e+00	1.87583e+02
1779	1.89607e+02	1.77900e+03	2.88171e+00	1.88250e+02
1787	1.90272e+02	1.78700e+03	2.88080e+00	1.88917e+02
1795	1.90943e+02	1.79500e+03	2.87988e+00	1.89583e+02
1803	1.91621e+02	1.80300e+03	2.87913e+00	1.90250e+02
1811	1.92288e+02	1.81100e+03	2.87824e+00	1.90917e+02
1819	1.92959e+02	1.81900e+03	2.87750e+00	1.91583e+02
1827	1.93628e+02	1.82700e+03	2.87697e+00	1.92250e+02
1835	1.94312e+02	1.83500e+03	2.87628e+00	1.92917e+02
1843	1.94970e+02	1.84300e+03	2.87571e+00	1.93583e+02
1851	1.95648e+02	1.85100e+03	2.87511e+00	1.94250e+02
1859	1.96320e+02	1.85900e+03	2.87460e+00	1.94917e+02
1867	1.96989e+02	1.86700e+03	2.87406e+00	1.95583e+02
1875	1.97669e+02	1.87500e+03	2.87345e+00	1.96250e+02
1883	1.98338e+02	1.88300e+03	2.87286e+00	1.96917e+02
1891	1.99004e+02	1.89100e+03	2.87234e+00	1.97583e+02
1899	1.99670e+02	1.89900e+03	2.87183e+00	1.98250e+02
1907	2.00343e+02	1.90700e+03	2.87133e+00	1.98917e+02
1915	2.01008e+02	1.91500e+03	2.87092e+00	1.99583e+02
1923	2.01685e+02	1.92300e+03	2.87048e+00	2.00250e+02
1931	2.02361e+02	1.93100e+03	2.87011e+00	2.00917e+02
1939	2.03021e+02	1.93900e+03	2.86967e+00	2.01583e+02
1947	2.03709e+02	1.94700e+03	2.86921e+00	2.02250e+02
1955	2.04373e+02	1.95500e+03	2.86869e+00	2.02917e+02
1963	2.05034e+02	1.96300e+03	2.86824e+00	2.03583e+02
1971	2.05709e+02	1.97100e+03	2.86782e+00	2.04250e+02
1979	2.06381e+02	1.97900e+03	2.86736e+00	2.04917e+02
1987	2.07046e+02	1.98700e+03	2.86694e+00	2.05583e+02
1995	2.07729e+02	1.99500e+03	2.86645e+00	2.06250e+02
2003	2.08379e+02	2.00300e+03	2.86613e+00	2.06917e+02
2011	2.09054e+02	2.01100e+03	2.86563e+00	2.07583e+02
2019	2.09721e+02	2.01900e+03	2.86521e+00	2.08250e+02
2027	2.10386e+02	2.02700e+03	2.86495e+00	2.08917e+02
2035	2.11045e+02	2.03500e+03	2.86465e+00	2.09583e+02
2043	2.11705e+02	2.04300e+03	2.86431e+00	2.10250e+02
2051	2.12373e+02	2.05100e+03	2.86394e+00	2.10917e+02
2059	2.13047e+02	2.05900e+03	2.86369e+00	2.11583e+02
2067	2.13710e+02	2.06700e+03	2.86325e+00	2.12250e+02
2075	2.14369e+02	2.07500e+03	2.86302e+00	2.12917e+02
2083	2.15030e+02	2.08300e+03	2.86279e+00	2.13583e+02
2091	2.15700e+02	2.09100e+03	2.86253e+00	2.14250e+02
2099	2.16372e+02	2.09900e+03	2.86227e+00	2.14917e+02
2107	2.17040e+02	2.10700e+03	2.86200e+00	2.15583e+02
2115	2.17703e+02	2.11500e+03	2.86175e+00	2.16250e+02
2123	2.18369e+02	2.12300e+03	2.86164e+00	2.16917e+02
2131	2.19026e+02	2.13100e+03	2.86141e+00	2.17583e+02
2139	2.19678e+02	2.13900e+03	2.86103e+00	2.18250e+02
2147	2.20356e+02	2.14700e+03	2.86076e+00	2.18917e+02
2155	2.21024e+02	2.15500e+03	2.86057e+00	2.19583e+02
2163	2.21692e+02	2.16300e+03	2.86049e+00	2.20250e+02
2171	2.22347e+02	2.17100e+03	2.86028e+00	2.20917e+02
2179	2.23018e+02	2.17900e+03	2.85999e+00	2.21583e+02
2187	2.23690e+02	2.18700e+03	2.85984e+00	2.22250e+02
2195	2.24357e+02	2.19500e+03	2.85962e+00	2.22917e+02
2203	2.25019e+02	2.20300e+03	2.85955e+00	2.23583e+02
2211	2.25689e+02	2.21100e+03	2.85945e+00	2.24250e+02
2219	2.26352e+02	2.21900e+03	2.85933e+00	2.24917e+02
2227	2.27023e+02	2.22700e+03	2.85905e+00	2.25583e+02
2235	2.27684e+02	2.23500e+03	2.85883e+00	2.26250e+02
2243	2.28359e+02	2.24300e+03	2.85866e+00	2.26917e+02
2251	2.29017e+02	2.25100e+03	2.85844e+00	2.27583e+02
2259	2.29702e+02	2.25900e+03	2.85827e+00	2.28250e+02
2267	2.30358e+02	2.26700e+03	2.85810e+00	2.28917e+02
2275	2.31020e+02	2.27500e+03	2.85799e+00	2.29583e+02
2283	2.31697e+02	2.28300e+03	2.85775e+00	2.30250e+02
2291	2.32363e+02	2.29100e+03	2.85758e+00	2.30917e+02
2299	2.33034e+02	2.29900e+03	2.85741e+00	2.31583e+02
2307	2.33716e+02	2.30700e+03	2.85722e+00	2.32250e+02
2315	2.34385e+02	2.31500e+03	2.85703e+00	2.32917e+02
2323	2.35052e+02	2.32300e+03	2.85686e+00	2.33583e+02
2331	2.35719e+02	2.33100e+03	2.85670e+00	2.34250e+02
2339	2.36382e+02	2.33900e+03	2.85645e+00	2.34917e+02
2347	2.37060e+02	2.34700e+03	2.85623e+00	2.35583e+02
2355	2.37719e+02	2.35500e+03	2.85604e+00	2.36250e+02
2363	2.38394e+02	2.36300e+03	2.85590e+00	2.36917e+02
2371	2.39071e+02	2.37100e+03	2.85576e+00	2.37583e+02
2379	2.39733e+02	2.37900e+03	2.85547e+00	2.38250e+02
2387	2.40408e+02	2.38700e+03	2.85528e+00	2.38917e+02
2395	2.41082e+02	2.39500e+03	2.85513e+00	2.39583e+02
2403	2.41751e+02	2.40300e+03	2.85502e+00	2.40250e+02
2411	2.42411e+02	2.41100e+03	2.85475e+00	2.40917e+02
2419	2.43079e+02	2.41900e+03	2.85456e+00	2.41583e+02
2427	2.43766e+02	2.42700e+03	2.85435e+00	2.42250e+02
2435	2.44423e+02	2.43500e+03	2.85398e+00	2.42917e+02
2443	2.45094e+02	2.44300e+03	2.85362e+00	2.43583e+02
2451	2.45776e+02	2.45100e+03	2.85332e+00	2.44250e+02
2459	2.46431e+02	2.45900e+03	2.85323e+00	2.44917e+02
2467	2.47117e+02	2.46700e+03	2.85295e+00	2.45583e+02
2475	2.47772e+02	2.47500e+03	2.85260e+00	2.46250e+02
2483	2.48440e+02	2.48300e+03	2.85239e+00	2.46917e+02
2491	2.49109e+02	2.49100e+03	2.85201e+00	2.47583e+02
2499	2.49766e+02	2.49900e+03	2.85174e+00	2.48250e+02
2507	2.50429e+02	2.50700e+03	2.85148e+00	2.48917e+02
2515	2.51097e+02	2.51500e+03	2.85117e+00	2.49583e+02
2523	2.51758e+02	2.52300e+03	2.85074e+00	2.50250e+02
2531	2.52430e+02	2.53100e+03	2.85044e+00	2.50917e+02
2539	2.53103e+02	2.53900e+03	2.85009e+00	2.51583e+02
2547	2.53764e+02	2.54700e+03	2.84976e+00	2.52250e+02
2555	2.54440e+02	2.55500e+03	2.84944e+00	2.52917e+02
2563	2.55109e+02	2.56300e+03	2.84893e+00	2.53583e+02
2571	2.55774e+02	2.57100e+03	2.84841e+00	2.54250e+02
2579	2.56427e+02	2.57900e+03	2.84785e+00	2.54917e+02
2587	2.57106e+02	2.58700e+03	2.84747e+00	2.55583e+02
2595	2.57763e+02	2.59500e+03	2.84704e+00	2.56250e+02
2603	2.58433e+02	2.60300e+03	2.84653e+00	2.56917e+02
2611	2.59102e+02	2.61100e+03	2.84592e+00	2.57583e+02
2619	2.59768e+02	2.61900e+03	2.84538e+00	2.58250e+02
2627	2.60440e+02	2.62700e+03	2.84477e+00	2.58917e+02
2635	2.61102e+02	2.63500e+03	2.84421e+00	2.59583e+02
2643	2.61773e+02	2.64300e+03	2.84377e+00	2.60250e+02
2651	2.62453e+02	2.65100e+03	2.84324e+00	2.60917e+02
2659	2.63113e+02	2.65900e+03	2.84256e+00	2.61583e+02
2667	2.63783e+02	2.66700e+03	2.84180e+00	2.62250e+02
2675	2.64453e+02	2.67500e+03	2.84118e+00	2.62917e+02
2683	2.65120e+02	2.68300e+03	2.84037e+00	2.63583e+02
2691	2.65783e+02	2.69100e+03	2.83953e+00	2.64250e+02
2699	2.66462e+02	2.69900e+03	2.83865e+00	2.64917e+02
2707	2.67118e+02	2.70700e+03	2.83781e+00	2.65583e+02
2715	2.67782e+02	2.71500e+03	2.83680e+00	2.66250e+02
2723	2.68451e+02	2.72300e+03	2.83582e+00	2.66917e+02
2731	2.69121e+02	2.73100e+03	2.83469e+00	2.67583e+02
2739	2.69801e+02	2.73900e+03	2.83375e+00	2.68250e+02
2747	2.70458e+02	2.74700e+03	2.83269e+00	2.68917e+02
2755	2.71131e+02	2.75500e+03	2.83155e+00	2.69583e+02
2763	2.71801e+02	2.76300e+03	2.83032e+00	2.70250e+02
2771	2.72475e+02	2.77100e+03	2.82905e+00	2.70917e+02
2779	2.73129e+02	2.77900e+03	2.82777e+00	2.71583e+02
2787	2.73803e+02	2.78700e+03	2.82645e+00	2.72250e+02
2795	2.74466e+02	2.79500e+03	2.82508e+00	2.72917e+02
2803	2.75131e+02	2.80300e+03	2.82354e+00	2.73583e+02
2811	2.75804e+02	2.81100e+03	2.82201e+00	2.74250e+02
2819	2.76480e+02	2.81900e+03	2.82052e+00	2.74917e+02
2827	2.77136e+02	2.82700e+03	2.81884e+00	2.75583e+02
2835	2.77810e+02	2.83500e+03	2.81706e+00	2.76250e+02
2843	2.78470e+02	2.84300e+03	2.81523e+00	2.76917e+02
2851	2.79138e+02	2.85100e+03	2.81332e+00	2.77583e+02
2859	2.79818e+02	2.85900e+03	2.81130e+00	2.78250e+02
2867	2.80492e+02	2.86700e+03	2.80934e+00	2.78917e+02
2875	2.81158e+02	2.87500e+03	2.80728e+00	2.79583e+02
2883	2.81831e+02	2.88300e+03	2.80505e+00	2.80250e+02
2891	2.82497e+02	2.89100e+03	2.80275e+00	2.80917e+02
2899	2.83165e+02	2.89900e+03	2.80038e+00	2.81583e+02
2907	2.83830e+02	2.90700e+03	2.79792e+00	2.82250e+02
2915	2.84512e+02	2.91500e+03	2.79563e+00	2.82917e+02
2923	2.85169e+02	2.92300e+03	2.79308e+00	2.83583e+02
2931	2.85832e+02	2.93100e+03	2.79035e+00	2.84250e+02
2939	2.86510e+02	2.93900e+03	2.78753e+00	2.84917e+02
2947	2.87185e+02	2.94700e+03	2.78484e+00	2.85583e+02
2955	2.87851e+02	2.95500e+03	2.78212e+00	2.86250e+02
2963	2.88533e+02	2.96300e+03	2.77928e+00	2.86917e+02
2971	2.89197e+02	2.97100e+03	2.77634e+00	2.87583e+02
2979	2.89885e+02	2.97900e+03	2.77324e+00	2.88250e+02
2987	2.90554e+02	2.98700e+03	2.77017e+00	2.88917e+02
2995	2.91233e+02	2.99500e+03	2.76723e+00	2.89583e+02
3003	2.91904e+02	3.00300e+03	2.76414e+00	2.90250e+02
3011	2.92579e+02	3.01100e+03	2.76092e+00	2.90917e+02
3019	2.93255e+02	3.01900e+03	2.75776e+00	2.91583e+02
3027	2.93925e+02	3.02700e+03	2.75434e+00	2.92250e+02
3035	2.94604e+02	3.03500e+03	2.75099e+00	2.92917e+02
3043	2.95267e+02	3.04300e+03	2.74782e+00	2.93583e+02
3051	2.95936e+02	3.05100e+03	2.74465e+00	2.94250e+02
3059	2.96606e+02	3.05900e+03	2.74132e+00	2.94917e+02
3067	2.97272e+02	3.06700e+03	2.73809e+00	2.95583e+02
3075	2.97937e+02	3.07500e+03	2.73482e+00	2.96250e+02
3083	2.98604e+02	3.08300e+03	2.73146e+00	2.96917e+02
3091	2.99285e+02	3.09100e+03	2.72802e+00	2.97583e+02
3099	2.99963e+02	3.09900e+03	2.72463e+00	2.98250e+02
3107	3.00633e+02	3.10700e+03	2.72121e+00	2.98917e+02
3115	3.01312e+02	3.11500e+03	2.71785e+00	2.99583e+02
3123	3.02005e+02	3.12300e+03	2.71447e+00	3.00250e+02
3131	3.02684e+02	3.13100e+03	2.71097e+00	3.00917e+02
3139	3.03362e+02	3.13900e+03	2.70743e+00	3.01583e+02
3147	3.04061e+02	3.14700e+03	2.70393e+00	3.02250e+02
3155	3.04721e+02	3.15500e+03	2.70042e+00	3.02917e+02
3163	3.05405e+02	3.16300e+03	2.69686e+00	3.03583e+02
3171	3.06074e+02	3.17100e+03	2.69311e+00	3.04250e+02
3179	3.06758e+02	3.17900e+03	2.68940e+00	3.04917e+02
3187	3.07428e+02	3.18700e+03	2.68548e+00	3.05583e+02
3195	3.08119e+02	3.19500e+03	2.68163e+00	3.06250e+02
3203	3.08795e+02	3.20300e+03	2.67771e+00	3.06917e+02
3211	3.09485e+02	3.21100e+03	2.67371e+00	3.07583e+02
3219	3.10174e+02	3.21900e+03	2.66931e+00	3.08250e+02
3227	3.10842e+02	3.22700e+03	2.66494e+00	3.08917e+02
3235	3.11526e+02	3.23500e+03	2.66057e+00	3.09583e+02
3243	3.12200e+02	3.24300e+03	2.65607e+00	3.10250e+02
3251	3.12870e+02	3.25100e+03	2.65126e+00	3.10917e+02
3259	3.13539e+02	3.25900e+03	2.64628e+00	3.11583e+02
3267	3.14210e+02	3.26700e+03	2.64116e+00	3.12250e+02
3275	3.14881e+02	3.27500e+03	2.63588e+00	3.12917e+02
3283	3.15552e+02	3.28300e+03	2.63029e+00	3.13583e+02
3291	3.16224e+02	3.29100e+03	2.62452e+00	3.14250e+02
3299	3.16876e+02	3.29900e+03	2.61847e+00	3.14917e+02
3307	3.17540e+02	3.30700e+03	2.61231e+00	3.15583e+02
3315	3.18195e+02	3.31500e+03	2.60565e+00	3.16250e+02
3323	3.18865e+02	3.32300e+03	2.59893e+00	3.16917e+02
3331	3.19527e+02	3.33100e+03	2.59173e+00	3.17583e+02
3339	3.20201e+02	3.33900e+03	2.58419e+00	3.18250e+02
3347	3.20883e+02	3.34700e+03	2.57641e+00	3.18917e+02
3355	3.21559e+02	3.35500e+03	2.56839e+00	3.19583e+02
3363	3.22218e+02	3.36300e+03	2.55986e+00	3.20250e+02
3371	3.22870e+02	3.37100e+03	2.55079e+00	3.20917e+02
3379	3.23539e+02	3.37900e+03	2.54148e+00	3.21583e+02
3387	3.24187e+02	3.38700e+03	2.53173e+00	3.22250e+02
3395	3.24868e+02	3.39500e+03	2.52148e+00	3.22917e+02
3403	3.25539e+02	3.40300e+03	2.51074e+00	3.23583e+02
3411	3.26205e+02	3.41100e+03	2.49963e+00	3.24250e+02
3419	3.26883e+02	3.41900e+03	2.48799e+00	3.24917e+02
3427	3.27535e+02	3.42700e+03	2.47569e+00	3.25583e+02
3435	3.28202e+02	3.43500e+03	2.46299e+00	3.26250e+02
3443	3.28863e+02	3.44300e+03	2.44957e+00	3.26917e+02
3451	3.29532e+02	3.45100e+03	2.43566e+00	3.27583e+02
3459	3.30189e+02	3.45900e+03	2.42122e+00	3.28250e+02
3467	3.30865e+02	3.46700e+03	2.40621e+00	3.28917e+02
3475	3.31545e+02	3.47500e+03	2.39058e+00	3.29583e+02
3483	3.32231e+02	3.48300e+03	2.37433e+00	3.30250e+02
3491	3.32899e+02	3.49100e+03	2.35730e+00	3.30917e+02
3499	3.33593e+02	3.49900e+03	2.33964e+00	3.31583e+02
3507	3.34271e+02	3.50700e+03	2.32145e+00	3.32250e+02
3515	3.34945e+02	3.51500e+03	2.30255e+00	3.32917e+02
3523	3.35613e+02	3.52300e+03	2.28297e+00	3.33583e+02
3531	3.36283e+02	3.53100e+03	2.26271e+00	3.34250e+02
3539	3.36947e+02	3.53900e+03	2.24168e+00	3.34917e+02
3547	3.37626e+02	3.54700e+03	2.22011e+00	3.35583e+02
3555	3.38285e+02	3.55500e+03	2.19786e+00	3.36250e+02
3563	3.38970e+02	3.56300e+03	2.17486e+00	3.36917e+02
3571	3.39652e+02	3.57100e+03	2.15116e+00	3.37583e+02
3579	3.40322e+02	3.57900e+03	2.12676e+00	3.38250e+02
3587	3.40997e+02	3.58700e+03	2.10172e+00	3.38917e+02
3595	3.41670e+02	3.59500e+03	2.07613e+00	3.39583e+02
3603	3.42312e+02	3.60300e+03	2.04986e+00	3.40250e+02
3611	3.42969e+02	3.61100e+03	2.02306e+00	3.40917e+02
3619	3.43627e+02	3.61900e+03	1.99564e+00	3.41583e+02
3627	3.44292e+02	3.62700e+03	1.96747e+00	3.42250e+02
3635	3.44949e+02	3.63500e+03	1.93900e+00	3.42917e+02
3643	3.45608e+02	3.64300e+03	1.90990e+00	3.43583e+02
3651	3.46270e+02	3.65100e+03	1.88024e+00	3.44250e+02
3659	3.46917e+02	3.65900e+03	1.85012e+00	3.44917e+02
3667	3.47581e+02	3.66700e+03	1.81941e+00	3.45583e+02
3675	3.48232e+02	3.67500e+03	1.78824e+00	3.46250e+02
3683	3.48887e+02	3.68300e+03	1.75651e+00	3.46917e+02
3691	3.49551e+02	3.69100e+03	1.72429e+00	3.47583e+02
3699	3.50208e+02	3.69900e+03	1.69164e+00	3.48250e+02
3707	3.50868e+02	3.70700e+03	1.65862e+00	3.48917e+02
3715	3.51537e+02	3.71500e+03	1.62506e+00	3.49583e+02
3723	3.52214e+02	3.72300e+03	1.59154e+00	3.50250e+02
3731	3.52880e+02	3.73100e+03	1.55765e+00	3.50917e+02
3739	3.53543e+02	3.73900e+03	1.52336e+00	3.51583e+02
3747	3.54212e+02	3.74700e+03	1.48918e+00	3.52250e+02
3755	3.54865e+02	3.75500e+03	1.45516e+00	3.52917e+02
3763	3.55513e+02	3.76300e+03	1.42066e+00	3.53583e+02
3771	3.56181e+02	3.77100e+03	1.38623e+00	3.54250e+02
3779	3.56843e+02	3.77900e+03	1.35179e+00	3.54917e+02
3787	3.57511e+02	3.78700e+03	1.31712e+00	3.55583e+02
3795	3.58170e+02	3.79500e+03	1.28209e+00	3.56250e+02
3803	3.58819e+02	3.80300e+03	1.24731e+00	3.56917e+02
3811	3.59487e+02	3.81100e+03	1.21176e+00	3.57583e+02
3819	3.60161e+02	3.81900e+03	1.17462e+00	3.58250e+02
3827	3.60846e+02	3.82700e+03	1.13993e+00	3.58917e+02
3835	3.61534e+02	3.83500e+03	1.10588e+00	3.59583e+02
3843	3.62196e+02	3.84300e+03	1.07145e+00	3.60250e+02
3851	3.62900e+02	3.85100e+03	1.03496e+00	3.60917e+02
3859	3.63603e+02	3.85900e+03	9.99905e-01	3.61583e+02
3867	3.64301e+02	3.86700e+03	9.65303e-01	3.62250e+02
3875	3.65032e+02	3.87500e+03	9.31036e-01	3.62917e+02
3883	3.65739e+02	3.88300e+03	8.97226e-01	3.63583e+02
3891	3.66379e+02	3.89100e+03	8.64037e-01	3.64250e+02
3899	3.67081e+02	3.89900e+03	8.31350e-01	3.64917e+02
3907	3.67750e+02	3.90700e+03	7.99011e-01	3.65583e+02
3915	3.68436e+02	3.91500e+03	7.67546e-01	3.66250e+02
3923	3.69144e+02	3.92300e+03	7.36750e-01	3.66917e+02
3931	3.69909e+02	3.93100e+03	7.06600e-01	3.67583e+02
3939	3.70591e+02	3.93900e+03	6.77142e-01	3.68250e+02
3947	3.71317e+02	3.94700e+03	6.48542e-01	3.68917e+02
3955	3.71964e+02	3.95500e+03	6.20653e-01	3.69583e+02
3963	3.72619e+02	3.96300e+03	5.93454e-01	3.70250e+02
3971	3.73287e+02	3.97100e+03	5.66974e-01	3.70917e+02
3979	3.73961e+02	3.97900e+03	5.41307e-01	3.71583e+02
3987	3.74624e+02	3.98700e+03	5.16346e-01	3.72250e+02
3995	3.75295e+02	3.99500e+03	4.92180e-01	3.72917e+02
4003	3.75944e+02	4.00300e+03	4.68964e-01	3.73583e+02
4011	3.76611e+02	4.01100e+03	4.46450e-01	3.74250e+02
4019	3.77327e+02	4.01900e+03	4.24664e-01	3.74917e+02
4027	3.78012e+02	4.02700e+03	4.03533e-01	3.75583e+02
4035	3.78686e+02	4.03500e+03	3.83358e-01	3.76250e+02
4043	3.79380e+02	4.04300e+03	3.63932e-01	3.76917e+02
4051	3.80056e+02	4.05100e+03	3.45306e-01	3.77583e+02
4059	3.80729e+02	4.05900e+03	3.27284e-01	3.78250e+02
4067	3.81438e+02	4.06700e+03	3.09940e-01	3.78917e+02
4075	3.82101e+02	4.07500e+03	2.93577e-01	3.79583e+02
4083	3.82779e+02	4.08300e+03	2.77794e-01	3.80250e+02
4091	3.83443e+02	4.09100e+03	2.62719e-01	3.80917e+02
4099	3.84109e+02	4.09900e+03	2.48366e-01	3.81583e+02
4107	3.84795e+02	4.10700e+03	2.34715e-01	3.82250e+02
4115	3.85477e+02	4.11500e+03	2.21567e-01	3.82917e+02
4123	3.86150e+02	4.12300e+03	2.09044e-01	3.83583e+02
4131	3.86819e+02	4.13100e+03	1.97212e-01	3.84250e+02
4139	3.87469e+02	4.13900e+03	1.86011e-01	3.84917e+02
4147	3.88140e+02	4.14700e+03	1.75272e-01	3.85583e+02
4155	3.88818e+02	4.15500e+03	1.65183e-01	3.86250e+02
4163	3.89486e+02	4.16300e+03	1.55672e-01	3.86917e+02
4171	3.90165e+02	4.17100e+03	1.46731e-01	3.87583e+02
4179	3.90825e+02	4.17900e+03	1.38238e-01	3.88250e+02
4187	3.91484e+02	4.18700e+03	1.30275e-01	3.88917e+02
4195	3.92161e+02	4.19500e+03	1.22877e-01	3.89583e+02
4203	3.92807e+02	4.20300e+03	1.15895e-01	3.90250e+02
4211	3.93465e+02	4.21100e+03	1.09393e-01	3.90917e+02
4219	3.94124e+02	4.21900e+03	1.03249e-01	3.91583e+02
4227	3.94791e+02	4.22700e+03	9.73838e-02	3.92250e+02
4235	3.95448e+02	4.23500e+03	9.22328e-02	3.92917e+02
4243	3.96118e+02	4.24300e+03	8.73009e-02	3.93583e+02
4251	3.96796e+02	4.25100e+03	8.25660e-02	3.94250e+02
4259	3.97456e+02	4.25900e+03	7.85789e-02	3.94917e+02
4267	3.98108e+02	4.26700e+03	7.47161e-02	3.95583e+02
4275	3.98779e+02	4.27500e+03	7.10333e-02	3.96250e+02
4283	3.99437e+02	4.28300e+03	6.76278e-02	3.96917e+02
4291	4.00102e+02	4.29100e+03	6.45562e-02	3.97583e+02
4299	4.00753e+02	4.29900e+03	6.16102e-02	3.98250e+02
4307	4.01400e+02	4.30700e+03	5.89596e-02	3.98917e+02
4315	4.02053e+02	4.31500e+03	5.64741e-02	3.99583e+02
4323	4.02712e+02	4.32300e+03	5.42822e-02	4.00250e+02
4331	4.03332e+02	4.33100e+03	5.20827e-02	4.00917e+02
4339	4.03969e+02	4.33900e+03	5.00316e-02	4.01583e+02
4347	4.04620e+02	4.34700e+03	4.82377e-02	4.02250e+02
4355	4.05244e+02	4.35500e+03	4.67463e-02	4.02917e+02
4363	4.05890e+02	4.36300e+03	4.50512e-02	4.03583e+02
4371	4.06544e+02	4.37100e+03	4.35416e-02	4.04250e+02
4379	4.07188e+02	4.37900e+03	4.20693e-02	4.04917e+02
4387	4.07830e+02	4.38700e+03	4.09278e-02	4.05583e+02
4395	4.08486e+02	4.39500e+03	3.99518e-02	4.06250e+02
4403	4.09153e+02	4.40300e+03	3.88660e-02	4.06917e+02
4411	4.09805e+02	4.41100e+03	3.79754e-02	4.07583e+02
4419	4.10476e+02	4.41900e+03	3.71387e-02	4.08250e+02
4427	4.11159e+02	4.42700e+03	3.63410e-02	4.08917e+02
4435	4.11811e+02	4.43500e+03	3.56107e-02	4.09583e+02
4443	4.12474e+02	4.44300e+03	3.49925e-02	4.10250e+02
4451	4.13134e+02	4.45100e+03	3.42347e-02	4.10917e+02
4459	4.13787e+02	4.45900e+03	3.35711e-02	4.11583e+02
4467	4.14444e+02	4.46700e+03	3.31078e-02	4.12250e+02
4475	4.15110e+02	4.47500e+03	3.26229e-02	4.12917e+02
4483	4.15772e+02	4.48300e+03	3.21810e-02	4.13583e+02
4491	4.16423e+02	4.49100e+03	3.18010e-02	4.14250e+02
4499	4.17070e+02	4.49900e+03	3.15395e-02	4.14917e+02
4507	4.17735e+02	4.50700e+03	3.12515e-02	4.15583e+02
4515	4.18412e+02	4.51500e+03	3.10658e-02	4.16250e+02
4523	4.19076e+02	4.52300e+03	3.06714e-02	4.16917e+02
4531	4.19749e+02	4.53100e+03	3.03489e-02	4.17583e+02
4539	4.20428e+02	4.53900e+03	3.00999e-02	4.18250e+02
4547	4.21115e+02	4.54700e+03	2.98453e-02	4.18917e+02
4555	4.21775e+02	4.55500e+03	2.96529e-02	4.19583e+02
4563	4.22435e+02	4.56300e+03	2.94869e-02	4.20250e+02
4571	4.23084e+02	4.57100e+03	2.92001e-02	4.20917e+02
4579	4.23744e+02	4.57900e+03	2.91531e-02	4.21583e+02
4587	4.24422e+02	4.58700e+03	2.90114e-02	4.22250e+02
4595	4.25101e+02	4.59500e+03	2.88954e-02	4.22917e+02
4603	4.25825e+02	4.60300e+03	2.87540e-02	4.23583e+02
4611	4.26519e+02	4.61100e+03	2.86343e-02	4.24250e+02
4619	4.27238e+02	4.61900e+03	2.86352e-02	4.24917e+02
4627	4.27960e+02	4.62700e+03	2.86968e-02	4.25583e+02
4635	4.28695e+02	4.63500e+03	2.84579e-02	4.26250e+02
4643	4.29144e+02	4.64300e+03	2.83874e-02	4.26917e+02
4651	4.29680e+02	4.65100e+03	2.78813e-02	4.27583e+02
4659	4.30282e+02	4.65900e+03	2.79209e-02	4.28250e+02
4667	4.30886e+02	4.66700e+03	2.87294e-02	4.28917e+02
4675	4.31515e+02	4.67500e+03	2.83759e-02	4.29583e+02
4683	4.32158e+02	4.68300e+03	2.81592e-02	4.30250e+02
4691	4.32802e+02	4.69100e+03	2.83137e-02	4.30917e+02
4699	4.33443e+02	4.69900e+03	2.80246e-02	4.31583e+02
4707	4.34085e+02	4.70700e+03	2.81214e-02	4.32250e+02
4715	4.34748e+02	4.71500e+03	2.80473e-02	4.32917e+02
4723	4.35402e+02	4.72300e+03	2.74664e-02	4.33583e+02
4731	4.36053e+02	4.73100e+03	2.79070e-02	4.34250e+02
4739	4.36711e+02	4.73900e+03	2.83108e-02	4.34917e+02
4747	4.37369e+02	4.74700e+03	2.77682e-02	4.35583e+02
4755	4.38011e+02	4.75500e+03	2.76482e-02	4.36250e+02
4763	4.38682e+02	4.76300e+03	2.77004e-02	4.36917e+02
4771	4.39355e+02	4.77100e+03	2.77341e-02	4.37583e+02
4779	4.40002e+02	4.77900e+03	2.77720e-02	4.38250e+02
4787	4.40669e+02	4.78700e+03	2.76451e-02	4.38917e+02
4795	4.41318e+02	4.79500e+03	2.76042e-02	4.39583e+02
4803	4.41974e+02	4.80300e+03	2.75774e-02	4.40250e+02
4811	4.42632e+02	4.81100e+03	2.75159e-02	4.40917e+02
4819	4.43288e+02	4.81900e+03	2.70273e-02	4.41583e+02
4827	4.43941e+02	4.82700e+03	2.69069e-02	4.42250e+02
4835	4.44593e+02	4.83500e+03	2.72872e-02	4.42917e+02
4843	4.45243e+02	4.84300e+03	2.76896e-02	4.43583e+02
4851	4.45890e+02	4.85100e+03	2.79522e-02	4.44250e+02
4859	4.46530e+02	4.85900e+03	2.75570e-02	4.44917e+02
4867	4.47179e+02	4.86700e+03	2.73609e-02	4.45583e+02
4875	4.47820e+02	4.87500e+03	2.73790e-02	4.46250e+02
4883	4.48466e+02	4.88300e+03	2.74264e-02	4.46917e+02
4891	4.49116e+02	4.89100e+03	2.74060e-02	4.47583e+02
4899	4.49776e+02	4.89900e+03	2.73464e-02	4.48250e+02
4907	4.50423e+02	4.90700e+03	2.70345e-02	4.48917e+02
4915	4.51052e+02	4.91500e+03	2.69066e-02	4.49583e+02
4923	4.51710e+02	4.92300e+03	2.71078e-02	4.50250e+02
4931	4.52356e+02	4.93100e+03	2.71184e-02	4.50917e+02
4939	4.53007e+02	4.93900e+03	2.70841e-02	4.51583e+02
4947	4.53666e+02	4.94700e+03	2.70088e-02	4.52250e+02
4955	4.54327e+02	4.95500e+03	2.69155e-02	4.52917e+02
4963	4.54971e+02	4.96300e+03	2.69811e-02	4.53583e+02
4971	4.55627e+02	4.97100e+03	2.70431e-02	4.54250e+02
4979	4.56263e+02	4.97900e+03	2.69767e-02	4.54917e+02
4987	4.56919e+02	4.98700e+03	2.69725e-02	4.55583e+02
4995	4.57558e+02	4.99500e+03	2.69988e-02	4.56250e+02
5003	4.58220e+02	5.00300e+03	2.69169e-02	4.56917e+02
5011	4.58867e+02	5.01100e+03	2.68764e-02	4.57583e+02
5019	4.59521e+02	5.01900e+03	2.69017e-02	4.58250e+02
5027	4.60194e+02	5.02700e+03	2.69095e-02	4.58917e+02
5035	4.60854e+02	5.03500e+03	2.69102e-02	4.59583e+02
5043	4.61509e+02	5.04300e+03	2.69675e-02	4.60250e+02
5051	4.62162e+02	5.05100e+03	2.68774e-02	4.60917e+02
5059	4.62836e+02	5.05900e+03	2.66881e-02	4.61583e+02
5067	4.63490e+02	5.06700e+03	2.67650e-02	4.62250e+02
5075	4.64129e+02	5.07500e+03	2.67990e-02	4.62917e+02
5083	4.64771e+02	5.08300e+03	2.66663e-02	4.63583e+02
5091	4.65441e+02	5.09100e+03	2.67309e-02	4.64250e+02
5099	4.66082e+02	5.09900e+03	2.66409e-02	4.64917e+02
5107	4.66748e+02	5.10700e+03	2.65652e-02	4.65583e+02
5115	4.67412e+02	5.11500e+03	2.66267e-02	4.66250e+02
5123	4.68068e+02	5.12300e+03	2.66283e-02	4.66917e+02
5131	4.68718e+02	5.13100e+03	2.66524e-02	4.67583e+02
5139	4.69381e+02	5.13900e+03	2.67087e-02	4.68250e+02
5147	4.70026e+02	5.14700e+03	2.67512e-02	4.68917e+02
5155	4.70681e+02	5.15500e+03	2.66632e-02	4.69583e+02
5163	4.71327e+02	5.16300e+03	2.65819e-02	4.70250e+02
5171	4.71975e+02	5.17100e+03	2.64497e-02	4.70917e+02
5179	4.72634e+02	5.17900e+03	2.65543e-02	4.71583e+02
5187	4.73297e+02	5.18700e+03	2.64912e-02	4.72250e+02
5195	4.73956e+02	5.19500e+03	2.65711e-02	4.72917e+02
5203	4.74617e+02	5.20300e+03	2.66173e-02	4.73583e+02
5211	4.75252e+02	5.21100e+03	2.65530e-02	4.74250e+02
5219	4.75906e+02	5.21900e+03	2.65172e-02	4.74917e+02
5227	4.76552e+02	5.22700e+03	2.65909e-02	4.75583e+02
5235	4.77200e+02	5.23500e+03	2.65811e-02	4.76250e+02
5243	4.77851e+02	5.24300e+03	2.65945e-02	4.76917e+02
5251	4.78502e+02	5.25100e+03	2.66587e-02	4.77583e+02
5259	4.79151e+02	5.25900e+03	2.65826e-02	4.78250e+02
5267	4.79789e+02	5.26700e+03	2.64384e-02	4.78917e+02
5275	4.80443e+02	5.27500e+03	2.64240e-02	4.79583e+02
5283	4.81075e+02	5.28300e+03	2.64361e-02	4.80250e+02
5291	4.81715e+02	5.29100e+03	2.64166e-02	4.80917e+02
5299	4.82356e+02	5.29900e+03	2.63705e-02	4.81583e+02
5307	4.83006e+02	5.30700e+03	2.64030e-02	4.82250e+02
5315	4.83636e+02	5.31500e+03	2.65083e-02	4.82917e+02
5323	4.84265e+02	5.32300e+03	2.65415e-02	4.83583e+02
5331	4.84905e+02	5.33100e+03	2.64688e-02	4.84250e+02
5339	4.85541e+02	5.33900e+03	2.65110e-02	4.84917e+02
5347	4.86177e+02	5.34700e+03	2.65193e-02	4.85583e+02
5355	4.86827e+02	5.35500e+03	2.65290e-02	4.86250e+02
5363	4.87471e+02	5.36300e+03	2.64447e-02	4.86917e+02
5371	4.88118e+02	5.37100e+03	2.64328e-02	4.87583e+02
5379	4.88776e+02	5.37900e+03	2.63430e-02	4.88250e+02
5387	4.89430e+02	5.38700e+03	2.63157e-02	4.88917e+02
5395	4.90085e+02	5.39500e+03	2.63582e-02	4.89583e+02
5403	4.90719e+02	5.40300e+03	2.64312e-02	4.90250e+02
5411	4.91382e+02	5.41100e+03	2.64258e-02	4.90917e+02
5419	4.92031e+02	5.41900e+03	2.63340e-02	4.91583e+02
5427	4.92686e+02	5.42700e+03	2.63543e-02	4.92250e+02
5435	4.93352e+02	5.43500e+03	2.63005e-02	4.92917e+02
5443	4.94019e+02	5.44300e+03	2.62288e-02	4.93583e+02
5451	4.94661e+02	5.45100e+03	2.63450e-02	4.94250e+02
5459	4.95321e+02	5.45900e+03	2.63154e-02	4.94917e+02
5467	4.95970e+02	5.46700e+03	2.62371e-02	4.95583e+02
5475	4.96619e+02	5.47500e+03	2.63107e-02	4.96250e+02
5483	4.97261e+02	5.48300e+03	2.62904e-02	4.96917e+02
5491	4.97917e+02	5.49100e+03	2.62836e-02	4.97583e+02
5499	4.98562e+02	5.49900e+03	2.62960e-02	4.98250e+02
5507	4.99214e+02	5.50700e+03	2.63113e-02	4.98917e+02
5515	4.99859e+02	5.51500e+03	2.62669e-02	4.99583e+02
5523	5.00519e+02	5.52300e+03	2.61466e-02	5.00250e+02
5531	5.01181e+02	5.53100e+03	2.61886e-02	5.00917e+02
5539	5.01836e+02	5.53900e+03	2.62695e-02	5.01583e+02
5547	5.02494e+02	5.54700e+03	2.61551e-02	5.02250e+02
5555	5.03160e+02	5.55500e+03	2.61396e-02	5.02917e+02
5563	5.03814e+02	5.56300e+03	2.62918e-02	5.03583e+02
5571	5.04472e+02	5.57100e+03	2.62814e-02	5.04250e+02
5579	5.05152e+02	5.57900e+03	2.62551e-02	5.04917e+02
5587	5.05795e+02	5.58700e+03	2.61876e-02	5.05583e+02
5595	5.06470e+02	5.59500e+03	2.61492e-02	5.06250e+02
5603	5.07138e+02	5.60300e+03	2.61765e-02	5.06917e+02
5611	5.07809e+02	5.61100e+03	2.60836e-02	5.07583e+02
5619	5.08479e+02	5.61900e+03	2.61152e-02	5.08250e+02
5627	5.09166e+02	5.62700e+03	2.60056e-02	5.08917e+02
5635	5.09848e+02	5.63500e+03	2.61847e-02	5.09583e+02
5643	5.10504e+02	5.64300e+03	2.61916e-02	5.10250e+02
5651	5.11171e+02	5.65100e+03	2.60648e-02	5.10917e+02
5659	5.11825e+02	5.65900e+03	2.60344e-02	5.11583e+02
5667	5.12482e+02	5.66700e+03	2.60792e-02	5.12250e+02
5675	5.13147e+02	5.67500e+03	2.60777e-02	5.12917e+02
5683	5.13826e+02	5.68300e+03	2.61072e-02	5.13583e+02
5691	5.14485e+02	5.69100e+03	2.60527e-02	5.14250e+02
5699	5.15149e+02	5.69900e+03	2.60700e-02	5.14917e+02
5707	5.15821e+02	5.70700e+03	2.60537e-02	5.15583e+02
5715	5.16458e+02	5.71500e+03	2.61064e-02	5.16250e+02
5723	5.17116e+02	5.72300e+03	2.60556e-02	5.16917e+02
5731	5.17776e+02	5.73100e+03	2.60463e-02	5.17583e+02
5739	5.18432e+02	5.73900e+03	2.60903e-02	5.18250e+02
5747	5.19082e+02	5.74700e+03	2.59902e-02	5.18917e+02
5755	5.19737e+02	5.75500e+03	2.59657e-02	5.19583e+02
5763	5.20402e+02	5.76300e+03	2.59065e-02	5.20250e+02
5771	5.21065e+02	5.77100e+03	2.60051e-02	5.20917e+02
5779	5.21722e+02	5.77900e+03	2.59297e-02	5.21583e+02
5787	5.22389e+02	5.78700e+03	2.58958e-02	5.22250e+02
5795	5.23048e+02	5.79500e+03	2.59146e-02	5.22917e+02
5803	5.23714e+02	5.80300e+03	2.59447e-02	5.23583e+02
5811	5.24378e+02	5.81100e+03	2.58917e-02	5.24250e+02
5819	5.25065e+02	5.81900e+03	2.58283e-02	5.24917e+02
5827	5.25753e+02	5.82700e+03	2.58968e-02	5.25583e+02
5835	5.26427e+02	5.83500e+03	2.58935e-02	5.26250e+02
5843	5.27088e+02	5.84300e+03	2.57664e-02	5.26917e+02
5851	5.27775e+02	5.85100e+03	2.58014e-02	5.27583e+02
5859	5.28439e+02	5.85900e+03	2.58728e-02	5.28250e+02
5867	5.29122e+02	5.86700e+03	2.57988e-02	5.28917e+02
5875	5.29776e+02	5.87500e+03	2.57307e-02	5.29583e+02
5883	5.30423e+02	5.88300e+03	2.57187e-02	5.30250e+02
5891	5.31092e+02	5.89100e+03	2.57596e-02	5.30917e+02
5899	5.31759e+02	5.89900e+03	2.57510e-02	5.31583e+02
5907	5.32420e+02	5.90700e+03	2.58072e-02	5.32250e+02
5915	5.33083e+02	5.91500e+03	2.58394e-02	5.32917e+02
5923	5.33735e+02	5.92300e+03	2.57250e-02	5.33583e+02
5931	5.34391e+02	5.93100e+03	2.57999e-02	5.34250e+02
5939	5.35067e+02	5.93900e+03	2.58453e-02	5.34917e+02
5947	5.35729e+02	5.94700e+03	2.57109e-02	5.35583e+02
5955	5.36399e+02	5.95500e+03	2.56270e-02	5.36250e+02
5963	5.37067e+02	5.96300e+03	2.58090e-02	5.36917e+02
5971	5.37715e+02	5.97100e+03	2.58017e-02	5.37583e+02
5979	5.38365e+02	5.97900e+03	2.57699e-02	5.38250e+02
5987	5.39028e+02	5.98700e+03	2.56817e-02	5.38917e+02
5995	5.39692e+02	5.99500e+03	2.55725e-02	5.39583e+02
6003	5.40334e+02	6.00300e+03	2.55497e-02	5.40250e+02
6011	5.40999e+02	6.01100e+03	2.55647e-02	5.40917e+02
6019	5.41645e+02	6.01900e+03	2.56433e-02	5.41583e+02
6027	5.42291e+02	6.02700e+03	2.56625e-02	5.42250e+02
6035	5.42944e+02	6.03500e+03	2.55750e-02	5.42917e+02
6043	5.43588e+02	6.04300e+03	2.54782e-02	5.43583e+02
6051	5.44239e+02	6.05100e+03	2.54744e-02	5.44250e+02
6059	5.44907e+02	6.05900e+03	2.54366e-02	5.44917e+02
6067	5.45552e+02	6.06700e+03	2.54180e-02	5.45583e+02
6075	5.46220e+02	6.07500e+03	2.54684e-02	5.46250e+02
6083	5.46880e+02	6.08300e+03	2.54821e-02	5.46917e+02
6091	5.47543e+02	6.09100e+03	2.54662e-02	5.47583e+02
6099	5.48195e+02	6.09900e+03	2.54726e-02	5.48250e+02
6107	5.48865e+02	6.10700e+03	2.54640e-02	5.48917e+02
6115	5.49516e+02	6.11500e+03	2.54353e-02	5.49583e+02
6123	5.50180e+02	6.12300e+03	2.54457e-02	5.50250e+02
6131	5.50846e+02	6.13100e+03	2.54780e-02	5.50917e+02
6139	5.51501e+02	6.13900e+03	2.54765e-02	5.51583e+02
6147	5.52159e+02	6.14700e+03	2.53920e-02	5.52250e+02
6155	5.52836e+02	6.15500e+03	2.54194e-02	5.52917e+02
6163	5.53496e+02	6.16300e+03	2.54076e-02	5.53583e+02
6171	5.54168e+02	6.17100e+03	2.54738e-02	5.54250e+02
6179	5.54822e+02	6.17900e+03	2.54766e-02	5.54917e+02
6187	5.55478e+02	6.18700e+03	2.54147e-02	5.55583e+02
6195	5.56143e+02	6.19500e+03	2.53204e-02	5.56250e+02
6203	5.56807e+02	6.20300e+03	2.52872e-02	5.56917e+02
6211	5.57477e+02	6.21100e+03	2.53162e-02	5.57583e+02
6219	5.58127e+02	6.21900e+03	2.53315e-02	5.58250e+02
6227	5.58789e+02	6.22700e+03	2.53167e-02	5.58917e+02
6235	5.59444e+02	6.23500e+03	2.53649e-02	5.59583e+02
6243	5.60100e+02	6.24300e+03	2.53818e-02	5.60250e+02
6251	5.60773e+02	6.25100e+03	2.53190e-02	5.60917e+02
6259	5.61431e+02	6.25900e+03	2.52160e-02	5.61583e+02
6267	5.62085e+02	6.26700e+03	2.52640e-02	5.62250e+02
6275	5.62751e+02	6.27500e+03	2.53248e-02	5.62917e+02
6283	5.63406e+02	6.28300e+03	2.51980e-02	5.63583e+02
6291	5.64068e+02	6.29100e+03	2.52069e-02	5.64250e+02
6299	5.64728e+02	6.29900e+03	2.52399e-02	5.64917e+02
6307	5.65404e+02	6.30700e+03	2.52167e-02	5.65583e+02
6315	5.66072e+02	6.31500e+03	2.52225e-02	5.66250e+02
6323	5.66738e+02	6.32300e+03	2.51687e-02	5.66917e+02
6331	5.67420e+02	6.33100e+03	2.52354e-02	5.67583e+02
6339	5.68092e+02	6.33900e+03	2.52097e-02	5.68250e+02
6347	5.68752e+02	6.34700e+03	2.53234e-02	5.68917e+02
6355	5.69426e+02	6.35500e+03	2.52272e-02	5.69583e+02
6363	5.70094e+02	6.36300e+03	2.52693e-02	5.70250e+02
6371	5.70779e+02	6.37100e+03	2.52244e-02	5.70917e+02
6379	5.71442e+02	6.37900e+03	2.51626e-02	5.71583e+02
6387	5.72104e+02	6.38700e+03	2.51658e-02	5.72250e+02
6395	5.72761e+02	6.39500e+03	2.51291e-02	5.72917e+02
6403	5.73392e+02	6.40300e+03	2.52386e-02	5.73583e+02
6411	5.74019e+02	6.41100e+03	2.53054e-02	5.74250e+02
6419	5.74646e+02	6.41900e+03	2.52233e-02	5.74917e+02
6427	5.75301e+02	6.42700e+03	2.52892e-02	5.75583e+02
6435	5.75946e+02	6.43500e+03	2.52607e-02	5.76250e+02
6443	5.76596e+02	6.44300e+03	2.51435e-02	5.76917e+02
6451	5.77254e+02	6.45100e+03	2.52046e-02	5.77583e+02
6459	5.77911e+02	6.45900e+03	2.51638e-02	5.78250e+02
6467	5.78558e+02	6.46700e+03	2.52053e-02	5.78917e+02
6475	5.79206e+02	6.47500e+03	2.50860e-02	5.79583e+02
6483	5.79866e+02	6.48300e+03	2.50578e-02	5.80250e+02
6491	5.80528e+02	6.49100e+03	2.51885e-02	5.80917e+02
6499	5.81184e+02	6.49900e+03	2.52414e-02	5.81583e+02
6507	5.81846e+02	6.50700e+03	2.51907e-02	5.82250e+02
6515	5.82499e+02	6.51500e+03	2.51855e-02	5.82917e+02
6523	5.83159e+02	6.52300e+03	2.51565e-02	5.83583e+02
6531	5.83816e+02	6.53100e+03	2.51306e-02	5.84250e+02
6539	5.84476e+02	6.53900e+03	2.52096e-02	5.84917e+02
6547	5.85150e+02	6.54700e+03	2.52519e-02	5.85583e+02
6555	5.85794e+02	6.55500e+03	2.51944e-02	5.86250e+02
6563	5.86459e+02	6.56300e+03	2.52462e-02	5.86917e+02
6571	5.87131e+02	6.57100e+03	2.51866e-02	5.87583e+02
6579	5.87774e+02	6.57900e+03	2.51592e-02	5.88250e+02
6587	5.88442e+02	6.58700e+03	2.51364e-02	5.88917e+02
6595	5.89100e+02	6.59500e+03	2.50732e-02	5.89583e+02
6603	5.89743e+02	6.60300e+03	2.51564e-02	5.90250e+02
6611	5.90410e+02	6.61100e+03	2.51157e-02	5.90917e+02
6619	5.91062e+02	6.61900e+03	2.50726e-02	5.91583e+02
6627	5.91718e+02	6.62700e+03	2.50692e-02	5.92250e+02
6635	5.92410e+02	6.63500e+03	2.50727e-02	5.92917e+02
6643	5.93083e+02	6.64300e+03	2.51119e-02	5.93583e+02
6651	5.93763e+02	6.65100e+03	2.51527e-02	5.94250e+02
6659	5.94419e+02	6.65900e+03	2.51535e-02	5.94917e+02
6667	5.95092e+02	6.66700e+03	2.51081e-02	5.95583e+02
6675	5.95749e+02	6.67500e+03	2.49521e-02	5.96250e+02
6683	5.96412e+02	6.68300e+03	2.49205e-02	5.96917e+02
6691	5.97073e+02	6.69100e+03	2.49486e-02	5.97583e+02
6699	5.97731e+02	6.69900e+03	2.50406e-02	5.98250e+02
6707	5.98392e+02	6.70700e+03	2.50068e-02	5.98917e+02
6715	5.99061e+02	6.71500e+03	2.50061e-02	5.99583e+02
6723	5.99712e+02	6.72300e+03	2.50104e-02	6.00250e+02
6731	6.00389e+02	6.73100e+03	2.50426e-02	6.00917e+02
6739	6.01061e+02	6.73900e+03	2.50780e-02	6.01583e+02
6747	6.01726e+02	6.74700e+03	2.51032e-02	6.02250e+02
6755	6.02389e+02	6.75500e+03	2.49930e-02	6.02917e+02
6763	6.03054e+02	6.76300e+03	2.49578e-02	6.03583e+02
6771	6.03715e+02	6.77100e+03	2.48866e-02	6.04250e+02
6779	6.04374e+02	6.77900e+03	2.48854e-02	6.04917e+02
6787	6.05021e+02	6.78700e+03	2.49589e-02	6.05583e+02
6795	6.05682e+02	6.79500e+03	2.48949e-02	6.06250e+02
6803	6.06351e+02	6.80300e+03	2.47696e-02	6.06917e+02
6811	6.07005e+02	6.81100e+03	2.47744e-02	6.07583e+02
6819	6.07654e+02	6.81900e+03	2.48527e-02	6.08250e+02
6827	6.08313e+02	6.82700e+03	2.47897e-02	6.08917e+02
6835	6.08985e+02	6.83500e+03	2.48028e-02	6.09583e+02
6843	6.09643e+02	6.84300e+03	2.48289e-02	6.10250e+02
6851	6.10309e+02	6.85100e+03	2.47912e-02	6.10917e+02
6859	6.10972e+02	6.85900e+03	2.48625e-02	6.11583e+02
6867	6.11633e+02	6.86700e+03	2.48829e-02	6.12250e+02
6875	6.12293e+02	6.87500e+03	2.49359e-02	6.12917e+02
6883	6.12944e+02	6.88300e+03	2.48305e-02	6.13583e+02
6891	6.13593e+02	6.89100e+03	2.49900e-02	6.14250e+02
6899	6.14264e+02	6.89900e+03	2.48086e-02	6.14917e+02
6907	6.14926e+02	6.90700e+03	2.47384e-02	6.15583e+02
6915	6.15596e+02	6.91500e+03	2.46493e-02	6.16250e+02
6923	6.16253e+02	6.92300e+03	2.46409e-02	6.16917e+02
6931	6.16923e+02	6.93100e+03	2.46491e-02	6.17583e+02
6939	6.17592e+02	6.93900e+03	2.47093e-02	6.18250e+02
6947	6.18258e+02	6.94700e+03	2.47173e-02	6.18917e+02
6955	6.18924e+02	6.95500e+03	2.46686e-02	6.19583e+02
6963	6.19583e+02	6.96300e+03	2.46762e-02	6.20250e+02
6971	6.20252e+02	6.97100e+03	2.46915e-02	6.20917e+02
6979	6.20912e+02	6.97900e+03	2.47291e-02	6.21583e+02
6987	6.21577e+02	6.98700e+03	2.46336e-02	6.22250e+02
6995	6.22241e+02	6.99500e+03	2.47501e-02	6.22917e+02
7003	6.22909e+02	7.00300e+03	2.47168e-02	6.23583e+02
7011	6.23578e+02	7.01100e+03	2.46753e-02	6.24250e+02
7019	6.24233e+02	7.01900e+03	2.46010e-02	6.24917e+02
7027	6.24906e+02	7.02700e+03	2.46587e-02	6.25583e+02
7035	6.25564e+02	7.03500e+03	2.46393e-02	6.26250e+02
7043	6.26225e+02	7.04300e+03	2.46025e-02	6.26917e+02
7051	6.26891e+02	7.05100e+03	2.44996e-02	6.27583e+02
7059	6.27556e+02	7.05900e+03	2.44879e-02	6.28250e+02
7067	6.28207e+02	7.06700e+03	2.44469e-02	6.28917e+02
7075	6.28871e+02	7.07500e+03	2.45575e-02	6.29583e+02
7083	6.29533e+02	7.08300e+03	2.46011e-02	6.30250e+02
7091	6.30197e+02	7.09100e+03	2.46122e-02	6.30917e+02
7099	6.30851e+02	7.09900e+03	2.45035e-02	6.31583e+02
7107	6.31516e+02	7.10700e+03	2.44629e-02	6.32250e+02
7115	6.32182e+02	7.11500e+03	2.45313e-02	6.32917e+02
7123	6.32835e+02	7.12300e+03	2.44769e-02	6.33583e+02
7131	6.33498e+02	7.13100e+03	2.44381e-02	6.34250e+02
7139	6.34167e+02	7.13900e+03	2.44560e-02	6.34917e+02
7147	6.34819e+02	7.14700e+03	2.45211e-02	6.35583e+02
7155	6.35478e+02	7.15500e+03	2.43459e-02	6.36250e+02
7163	6.36148e+02	7.16300e+03	2.41653e-02	6.36917e+02
7171	6.36801e+02	7.17100e+03	2.43051e-02	6.37583e+02
7179	6.37470e+02	7.17900e+03	2.44442e-02	6.38250e+02
7187	6.38132e+02	7.18700e+03	2.43906e-02	6.38917e+02
7195	6.38796e+02	7.19500e+03	2.43340e-02	6.39583e+02
7203	6.39459e+02	7.20300e+03	2.42583e-02	6.40250e+02
7211	6.40120e+02	7.21100e+03	2.43789e-02	6.40917e+02
7219	6.40791e+02	7.21900e+03	2.43707e-02	6.41583e+02
7227	6.41451e+02	7.22700e+03	2.42818e-02	6.42250e+02
7235	6.42120e+02	7.23500e+03	2.42028e-02	6.42917e+02
7243	6.42779e+02	7.24300e+03	2.42794e-02	6.43583e+02
7251	6.43447e+02	7.25100e+03	2.43268e-02	6.44250e+02
7259	6.44100e+02	7.25900e+03	2.43309e-02	6.44917e+02
7267	6.44776e+02	7.26700e+03	2.43498e-02	6.45583e+02
7275	6.45443e+02	7.27500e+03	2.44256e-02	6.46250e+02
7283	6.46105e+02	7.28300e+03	2.44031e-02	6.46917e+02
7291	6.46761e+02	7.29100e+03	2.43212e-02	6.47583e+02
7299	6.47438e+02	7.29900e+03	2.42935e-02	6.48250e+02
7307	6.48094e+02	7.30700e+03	2.43559e-02	6.48917e+02
7315	6.48763e+02	7.31500e+03	2.42994e-02	6.49583e+02
7323	6.49428e+02	7.32300e+03	2.43086e-02	6.50250e+02
7331	6.50105e+02	7.33100e+03	2.42578e-02	6.50917e+02
7339	6.50779e+02	7.33900e+03	2.42328e-02	6.51583e+02
7347	6.51436e+02	7.34700e+03	2.42065e-02	6.52250e+02
7355	6.52098e+02	7.35500e+03	2.42291e-02	6.52917e+02
7363	6.52777e+02	7.36300e+03	2.42117e-02	6.53583e+02
7371	6.53445e+02	7.37100e+03	2.42086e-02	6.54250e+02
7379	6.54098e+02	7.37900e+03	2.41556e-02	6.54917e+02
7387	6.54771e+02	7.38700e+03	2.41383e-02	6.55583e+02
7395	6.55433e+02	7.39500e+03	2.41068e-02	6.56250e+02
7403	6.56118e+02	7.40300e+03	2.41263e-02	6.56917e+02
7411	6.56783e+02	7.41100e+03	2.41522e-02	6.57583e+02
7419	6.57442e+02	7.41900e+03	2.42219e-02	6.58250e+02
7427	6.58126e+02	7.42700e+03	2.41306e-02	6.58917e+02
7435	6.58790e+02	7.43500e+03	2.40895e-02	6.59583e+02
7443	6.59452e+02	7.44300e+03	2.41044e-02	6.60250e+02
7451	6.60125e+02	7.45100e+03	2.40358e-02	6.60917e+02
7459	6.60798e+02	7.45900e+03	2.40282e-02	6.61583e+02
7467	6.61465e+02	7.46700e+03	2.39597e-02	6.62250e+02
7475	6.62136e+02	7.47500e+03	2.40148e-02	6.62917e+02
7483	6.62806e+02	7.48300e+03	2.39750e-02	6.63583e+02
7491	6.63472e+02	7.49100e+03	2.40620e-02	6.64250e+02
7499	6.64146e+02	7.49900e+03	2.40592e-02	6.64917e+02
7507	6.64814e+02	7.50700e+03	2.41074e-02	6.65583e+02
7515	6.65488e+02	7.51500e+03	2.41129e-02	6.66250e+02
7523	6.66143e+02	7.52300e+03	2.41820e-02	6.66917e+02
7531	6.66833e+02	7.53100e+03	2.42510e-02	6.67583e+02
7539	6.67505e+02	7.53900e+03	2.43207e-02	6.68250e+02
7547	6.68167e+02	7.54700e+03	2.42667e-02	6.68917e+02
7555	6.68846e+02	7.55500e+03	2.42734e-02	6.69583e+02
7563	6.69519e+02	7.56300e+03	2.42786e-02	6.70250e+02
7571	6.70194e+02	7.57100e+03	2.42160e-02	6.70917e+02
7579	6.70865e+02	7.57900e+03	2.41624e-02	6.71583e+02
7587	6.71534e+02	7.58700e+03	2.41442e-02	6.72250e+02
7595	6.72208e+02	7.59500e+03	2.41614e-02	6.72917e+02
7603	6.72878e+02	7.60300e+03	2.40820e-02	6.73583e+02
7611	6.73544e+02	7.61100e+03	2.40745e-02	6.74250e+02
7619	6.74215e+02	7.61900e+03	2.40826e-02	6.74917e+02
7627	6.74893e+02	7.62700e+03	2.39803e-02	6.75583e+02
7635	6.75570e+02	7.63500e+03	2.39108e-02	6.76250e+02
7643	6.76230e+02	7.64300e+03	2.38740e-02	6.76917e+02
7651	6.76903e+02	7.65100e+03	2.39057e-02	6.77583e+02
7659	6.77583e+02	7.65900e+03	2.38765e-02	6.78250e+02
7667	6.78257e+02	7.66700e+03	2.40026e-02	6.78917e+02
7675	6.78926e+02	7.67500e+03	2.39491e-02	6.79583e+02
7683	6.79603e+02	7.68300e+03	2.39119e-02	6.80250e+02
7691	6.80274e+02	7.69100e+03	2.39646e-02	6.80917e+02
7699	6.80946e+02	7.69900e+03	2.38940e-02	6.81583e+02
7707	6.81621e+02	7.70700e+03	2.39275e-02	6.82250e+02
7715	6.82288e+02	7.71500e+03	2.38410e-02	6.82917e+02
7723	6.82959e+02	7.72300e+03	2.38332e-02	6.83583e+02
7731	6.83636e+02	7.73100e+03	2.37731e-02	6.84250e+02
7739	6.84317e+02	7.73900e+03	2.36696e-02	6.84917e+02
7747	6.84988e+02	7.74700e+03	2.37619e-02	6.85583e+02
7755	6.85660e+02	7.75500e+03	2.37590e-02	6.86250e+02
7763	6.86340e+02	7.76300e+03	2.38433e-02	6.86917e+02
7771	6.87015e+02	7.77100e+03	2.38737e-02	6.87583e+02
7779	6.87682e+02	7.77900e+03	2.37479e-02	6.88250e+02
7787	6.88343e+02	7.78700e+03	2.38415e-02	6.88917e+02
7795	6.89007e+02	7.79500e+03	2.39425e-02	6.89583e+02
7803	6.89682e+02	7.80300e+03	2.38504e-02	6.90250e+02
7811	6.90345e+02	7.81100e+03	2.37621e-02	6.90917e+02
7819	6.90993e+02	7.81900e+03	2.37940e-02	6.91583e+02
7827	6.91660e+02	7.82700e+03	2.38134e-02	6.92250e+02
7835	6.92329e+02	7.83500e+03	2.37353e-02	6.92917e+02
7843	6.93003e+02	7.84300e+03	2.37371e-02	6.93583e+02
7851	6.93671e+02	7.85100e+03	2.38142e-02	6.94250e+02
7859	6.94337e+02	7.85900e+03	2.36906e-02	6.94917e+02
7867	6.95006e+02	7.86700e+03	2.36448e-02	6.95583e+02
7875	6.95658e+02	7.87500e+03	2.35991e-02	6.96250e+02
7883	6.96326e+02	7.88300e+03	2.37177e-02	6.96917e+02
7891	6.97006e+02	7.89100e+03	2.37631e-02	6.97583e+02
7899	6.97504e+02	7.89900e+03	2.37963e-02	6.98250e+02
7907	6.97959e+02	7.90700e+03	2.38060e-02	6.98917e+02
7915	6.98299e+02	7.91500e+03	2.36865e-02	6.99583e+02
7920	6.98461e+02	7.92000e+03	2.36498e-02	7.00000e+02