File: Experiments/TUBS/tga_nonisotherm/tga_dynamic_n2high50_dyn30_piece_3mg_r2.txt
Index	Ts	t	Weight	Tr
[#]	[°C]	[s]	[mg]	[°C]
682	1.30382e+02	6.82000e+02	3.00265	131.0
684	1.31403e+02	6.84000e+02	3.00262	132.0
686	1.32395e+02	6.86000e+02	3.0026	133.0
688	1.33407e+02	6.88000e+02	3.00257	134.0
690	1.34407e+02	6.90000e+02	3.00253	135.0
692	1.35407e+02	6.92000e+02	3.00249	136.0
694	1.36412e+02	6.94000e+02	3.00245	137.0
696	1.37406e+02	6.96000e+02	3.00241	138.0
698	1.38412e+02	6.98000e+02	3.00236	139.0
700	1.39416e+02	7.00000e+02	3.00231	140.0
702	1.40429e+02	7.02000e+02	3.00226	141.0
704	1.41443e+02	7.04000e+02	3.00222	142.0
706	1.42444e+02	7.06000e+02	3.00218	143.0
708	1.43453e+02	7.08000e+02	3.00214	144.0
710	1.44446e+02	7.10000e+02	3.00209	145.0
712	1.45458e+02	7.12000e+02	3.00203	146.0
714	1.46477e+02	7.14000e+02	3.00196	147.0
716	1.47479e+02	7.16000e+02	3.00188	148.0
718	1.48488e+02	7.18000e+02	3.00179	149.0
720	1.49496e+02	7.20000e+02	3.00171	150.0
722	1.50496e+02	7.22000e+02	3.00166	151.0
724	1.51519e+02	7.24000e+02	3.00163	152.0
726	1.52527e+02	7.26000e+02	3.00161	153.0
728	1.53532e+02	7.28000e+02	3.00159	154.0
730	1.54547e+02	7.30000e+02	3.00155	155.0
732	1.55555e+02	7.32000e+02	3.00148	156.0
734	1.56551e+02	7.34000e+02	3.0014	157.0
736	1.57559e+02	7.36000e+02	3.00129	158.0
738	1.58558e+02	7.38000e+02	3.00118	159.0
740	1.59567e+02	7.40000e+02	3.00108	160.0
742	1.60592e+02	7.42000e+02	3.00097	161.0
744	1.61592e+02	7.44000e+02	3.00086	162.0
746	1.62599e+02	7.46000e+02	3.00076	163.0
748	1.63607e+02	7.48000e+02	3.00065	164.0
750	1.64621e+02	7.50000e+02	3.00054	165.0
752	1.65635e+02	7.52000e+02	3.00042	166.0
754	1.66648e+02	7.54000e+02	3.0003	167.0
756	1.67663e+02	7.56000e+02	3.00016	168.0
758	1.68679e+02	7.58000e+02	3.00002	169.0
760	1.69677e+02	7.60000e+02	2.99989	170.0
762	1.70695e+02	7.62000e+02	2.99976	171.0
764	1.71704e+02	7.64000e+02	2.99967	172.0
766	1.72721e+02	7.66000e+02	2.99959	173.0
768	1.73737e+02	7.68000e+02	2.99953	174.0
770	1.74737e+02	7.70000e+02	2.99947	175.0
772	1.75752e+02	7.72000e+02	2.99941	176.0
774	1.76763e+02	7.74000e+02	2.99933	177.0
776	1.77774e+02	7.76000e+02	2.99921	178.0
778	1.78788e+02	7.78000e+02	2.99907	179.0
780	1.79805e+02	7.80000e+02	2.99889	180.0
782	1.80810e+02	7.82000e+02	2.99872	181.0
784	1.81814e+02	7.84000e+02	2.99853	182.0
786	1.82844e+02	7.86000e+02	2.99832	183.0
788	1.83852e+02	7.88000e+02	2.99807	184.0
790	1.84878e+02	7.90000e+02	2.9978	185.0
792	1.85879e+02	7.92000e+02	2.99749	186.0
794	1.86897e+02	7.94000e+02	2.99718	187.0
796	1.87915e+02	7.96000e+02	2.99685	188.0
798	1.88928e+02	7.98000e+02	2.9965	189.0
800	1.89939e+02	8.00000e+02	2.99613	190.0
802	1.90967e+02	8.02000e+02	2.99574	191.0
804	1.91969e+02	8.04000e+02	2.9953	192.0
806	1.92982e+02	8.06000e+02	2.99484	193.0
808	1.94016e+02	8.08000e+02	2.99433	194.0
810	1.95013e+02	8.10000e+02	2.99379	195.0
812	1.96039e+02	8.12000e+02	2.99319	196.0
814	1.97044e+02	8.14000e+02	2.99257	197.0
816	1.98054e+02	8.16000e+02	2.99191	198.0
818	1.99082e+02	8.18000e+02	2.99124	199.0
820	2.00097e+02	8.20000e+02	2.99056	200.0
822	2.01121e+02	8.22000e+02	2.98987	201.0
824	2.02134e+02	8.24000e+02	2.98917	202.0
826	2.03146e+02	8.26000e+02	2.98846	203.0
828	2.04148e+02	8.28000e+02	2.98771	204.0
830	2.05161e+02	8.30000e+02	2.98693	205.0
832	2.06167e+02	8.32000e+02	2.9861	206.0
834	2.07186e+02	8.34000e+02	2.98525	207.0
836	2.08198e+02	8.36000e+02	2.98437	208.0
838	2.09210e+02	8.38000e+02	2.98349	209.0
840	2.10230e+02	8.40000e+02	2.98259	210.0
842	2.11251e+02	8.42000e+02	2.98169	211.0
844	2.12275e+02	8.44000e+02	2.98076	212.0
846	2.13290e+02	8.46000e+02	2.97981	213.0
848	2.14313e+02	8.48000e+02	2.97885	214.0
850	2.15301e+02	8.50000e+02	2.97788	215.0
852	2.16305e+02	8.52000e+02	2.97692	216.0
854	2.17322e+02	8.54000e+02	2.97598	217.0
856	2.18332e+02	8.56000e+02	2.97504	218.0
858	2.19346e+02	8.58000e+02	2.97409	219.0
860	2.20382e+02	8.60000e+02	2.97313	220.0
862	2.21372e+02	8.62000e+02	2.97216	221.0
864	2.22418e+02	8.64000e+02	2.97118	222.0
866	2.23435e+02	8.66000e+02	2.97022	223.0
868	2.24479e+02	8.68000e+02	2.96926	224.0
870	2.25489e+02	8.70000e+02	2.9683	225.0
872	2.26524e+02	8.72000e+02	2.96734	226.0
874	2.27526e+02	8.74000e+02	2.96639	227.0
876	2.28544e+02	8.76000e+02	2.96545	228.0
878	2.29555e+02	8.78000e+02	2.9645	229.0
880	2.30583e+02	8.80000e+02	2.96354	230.0
882	2.31589e+02	8.82000e+02	2.96256	231.0
884	2.32601e+02	8.84000e+02	2.96154	232.0
886	2.33597e+02	8.86000e+02	2.96053	233.0
888	2.34611e+02	8.88000e+02	2.95953	234.0
890	2.35625e+02	8.90000e+02	2.95854	235.0
892	2.36638e+02	8.92000e+02	2.95753	236.0
894	2.37644e+02	8.94000e+02	2.95649	237.0
896	2.38661e+02	8.96000e+02	2.95541	238.0
898	2.39680e+02	8.98000e+02	2.95432	239.0
900	2.40697e+02	9.00000e+02	2.9532	240.0
902	2.41722e+02	9.02000e+02	2.95206	241.0
904	2.42727e+02	9.04000e+02	2.95092	242.0
906	2.43740e+02	9.06000e+02	2.94979	243.0
908	2.44761e+02	9.08000e+02	2.94867	244.0
910	2.45780e+02	9.10000e+02	2.94757	245.0
912	2.46791e+02	9.12000e+02	2.94647	246.0
914	2.47801e+02	9.14000e+02	2.94538	247.0
916	2.48822e+02	9.16000e+02	2.94431	248.0
918	2.49820e+02	9.18000e+02	2.94322	249.0
920	2.50842e+02	9.20000e+02	2.94212	250.0
922	2.51859e+02	9.22000e+02	2.94099	251.0
924	2.52859e+02	9.24000e+02	2.93982	252.0
926	2.53891e+02	9.26000e+02	2.93865	253.0
928	2.54893e+02	9.28000e+02	2.93747	254.0
930	2.55939e+02	9.30000e+02	2.93629	255.0
932	2.56950e+02	9.32000e+02	2.93512	256.0
934	2.57962e+02	9.34000e+02	2.93394	257.0
936	2.58968e+02	9.36000e+02	2.93276	258.0
938	2.59988e+02	9.38000e+02	2.9316	259.0
940	2.61024e+02	9.40000e+02	2.93046	260.0
942	2.62003e+02	9.42000e+02	2.92934	261.0
944	2.62998e+02	9.44000e+02	2.92822	262.0
946	2.63985e+02	9.46000e+02	2.92709	263.0
948	2.65047e+02	9.48000e+02	2.92593	264.0
950	2.66055e+02	9.50000e+02	2.92476	265.0
952	2.67042e+02	9.52000e+02	2.92355	266.0
954	2.68021e+02	9.54000e+02	2.92233	267.0
956	2.69017e+02	9.56000e+02	2.92109	268.0
958	2.69960e+02	9.58000e+02	2.91985	269.0
960	2.70971e+02	9.60000e+02	2.91859	270.0
962	2.71973e+02	9.62000e+02	2.91731	271.0
964	2.72974e+02	9.64000e+02	2.91602	272.0
966	2.74019e+02	9.66000e+02	2.91476	273.0
968	2.75040e+02	9.68000e+02	2.91353	274.0
970	2.76099e+02	9.70000e+02	2.91231	275.0
972	2.77165e+02	9.72000e+02	2.91111	276.0
974	2.78133e+02	9.74000e+02	2.90991	277.0
976	2.79108e+02	9.76000e+02	2.9087	278.0
978	2.80109e+02	9.78000e+02	2.90749	279.0
980	2.81101e+02	9.80000e+02	2.90624	280.0
982	2.82106e+02	9.82000e+02	2.90495	281.0
984	2.83117e+02	9.84000e+02	2.90359	282.0
986	2.84135e+02	9.86000e+02	2.90219	283.0
988	2.85134e+02	9.88000e+02	2.90075	284.0
990	2.86156e+02	9.90000e+02	2.89931	285.0
992	2.87174e+02	9.92000e+02	2.89788	286.0
994	2.88207e+02	9.94000e+02	2.89645	287.0
996	2.89224e+02	9.96000e+02	2.89499	288.0
998	2.90249e+02	9.98000e+02	2.89351	289.0
1000	2.91280e+02	1.00000e+03	2.892	290.0
1002	2.92343e+02	1.00200e+03	2.89044	291.0
1004	2.93399e+02	1.00400e+03	2.88884	292.0
1006	2.94436e+02	1.00600e+03	2.88717	293.0
1008	2.95505e+02	1.00800e+03	2.88535	294.0
1010	2.96545e+02	1.01000e+03	2.88339	295.0
1012	2.97551e+02	1.01200e+03	2.88123	296.0
1014	2.98535e+02	1.01400e+03	2.87905	297.0
1016	2.99529e+02	1.01600e+03	2.87683	298.0
1018	3.00557e+02	1.01800e+03	2.87461	299.0
1020	3.01555e+02	1.02000e+03	2.87236	300.0
1022	3.02550e+02	1.02200e+03	2.87007	301.0
1024	3.03537e+02	1.02400e+03	2.86772	302.0
1026	3.04570e+02	1.02600e+03	2.86532	303.0
1028	3.05593e+02	1.02800e+03	2.86285	304.0
1030	3.06602e+02	1.03000e+03	2.86034	305.0
1032	3.07600e+02	1.03200e+03	2.85777	306.0
1034	3.08600e+02	1.03400e+03	2.85515	307.0
1036	3.09605e+02	1.03600e+03	2.85242	308.0
1038	3.10587e+02	1.03800e+03	2.84964	309.0
1040	3.11584e+02	1.04000e+03	2.84675	310.0
1042	3.12584e+02	1.04200e+03	2.8438	311.0
1044	3.13586e+02	1.04400e+03	2.84075	312.0
1046	3.14576e+02	1.04600e+03	2.83766	313.0
1048	3.15585e+02	1.04800e+03	2.8345	314.0
1050	3.16577e+02	1.05000e+03	2.83131	315.0
1052	3.17560e+02	1.05200e+03	2.82807	316.0
1054	3.18539e+02	1.05400e+03	2.82479	317.0
1056	3.19526e+02	1.05600e+03	2.82146	318.0
1058	3.20530e+02	1.05800e+03	2.81809	319.0
1060	3.21528e+02	1.06000e+03	2.81469	320.0
1062	3.22513e+02	1.06200e+03	2.81126	321.0
1064	3.23525e+02	1.06400e+03	2.8078	322.0
1066	3.24542e+02	1.06600e+03	2.80432	323.0
1068	3.25546e+02	1.06800e+03	2.80081	324.0
1070	3.26554e+02	1.07000e+03	2.79729	325.0
1072	3.27542e+02	1.07200e+03	2.79372	326.0
1074	3.28547e+02	1.07400e+03	2.79013	327.0
1076	3.29539e+02	1.07600e+03	2.78648	328.0
1078	3.30532e+02	1.07800e+03	2.78278	329.0
1080	3.31535e+02	1.08000e+03	2.77893	330.0
1082	3.32516e+02	1.08200e+03	2.77494	331.0
1084	3.33523e+02	1.08400e+03	2.77068	332.0
1086	3.34531e+02	1.08600e+03	2.76623	333.0
1088	3.35523e+02	1.08800e+03	2.76147	334.0
1090	3.36525e+02	1.09000e+03	2.75654	335.0
1092	3.37556e+02	1.09200e+03	2.75135	336.0
1094	3.38544e+02	1.09400e+03	2.74598	337.0
1096	3.39544e+02	1.09600e+03	2.7403	338.0
1098	3.40523e+02	1.09800e+03	2.73438	339.0
1100	3.41550e+02	1.10000e+03	2.72805	340.0
1102	3.42559e+02	1.10200e+03	2.72143	341.0
1104	3.43552e+02	1.10400e+03	2.71433	342.0
1106	3.44562e+02	1.10600e+03	2.70688	343.0
1108	3.45556e+02	1.10800e+03	2.69883	344.0
1110	3.46567e+02	1.11000e+03	2.69037	345.0
1112	3.47559e+02	1.11200e+03	2.68121	346.0
1114	3.48545e+02	1.11400e+03	2.6716	347.0
1116	3.49556e+02	1.11600e+03	2.66121	348.0
1118	3.50554e+02	1.11800e+03	2.65027	349.0
1120	3.51563e+02	1.12000e+03	2.63839	350.0
1122	3.52562e+02	1.12200e+03	2.6259	351.0
1124	3.53542e+02	1.12400e+03	2.61233	352.0
1126	3.54530e+02	1.12600e+03	2.598	353.0
1128	3.55529e+02	1.12800e+03	2.58237	354.0
1130	3.56545e+02	1.13000e+03	2.5659	355.0
1132	3.57560e+02	1.13200e+03	2.54801	356.0
1134	3.58558e+02	1.13400e+03	2.52927	357.0
1136	3.59540e+02	1.13600e+03	2.50906	358.0
1138	3.60524e+02	1.13800e+03	2.48787	359.0
1140	3.61525e+02	1.14000e+03	2.46497	360.0
1142	3.62511e+02	1.14200e+03	2.4409	361.0
1144	3.63487e+02	1.14400e+03	2.41484	362.0
1146	3.64490e+02	1.14600e+03	2.38758	363.0
1148	3.65481e+02	1.14800e+03	2.35831	364.0
1150	3.66459e+02	1.15000e+03	2.32786	365.0
1152	3.67459e+02	1.15200e+03	2.29537	366.0
1154	3.68440e+02	1.15400e+03	2.26167	367.0
1156	3.69427e+02	1.15600e+03	2.22588	368.0
1158	3.70400e+02	1.15800e+03	2.18883	369.0
1160	3.71383e+02	1.16000e+03	2.14965	370.0
1162	3.72433e+02	1.16200e+03	2.1092	371.0
1164	3.73422e+02	1.16400e+03	2.06669	372.0
1166	3.74395e+02	1.16600e+03	2.02305	373.0
1168	3.75381e+02	1.16800e+03	1.97751	374.0
1170	3.76366e+02	1.17000e+03	1.93085	375.0
1172	3.77358e+02	1.17200e+03	1.88236	376.0
1174	3.78378e+02	1.17400e+03	1.8329	377.0
1176	3.79388e+02	1.17600e+03	1.78188	378.0
1178	3.80386e+02	1.17800e+03	1.73013	379.0
1180	3.81371e+02	1.18000e+03	1.67727	380.0
1182	3.82379e+02	1.18200e+03	1.62399	381.0
1184	3.83395e+02	1.18400e+03	1.56999	382.0
1186	3.84390e+02	1.18600e+03	1.51562	383.0
1188	3.85399e+02	1.18800e+03	1.46064	384.0
1190	3.86418e+02	1.19000e+03	1.40539	385.0
1192	3.87436e+02	1.19200e+03	1.34978	386.0
1194	3.88416e+02	1.19400e+03	1.29414	387.0
1196	3.89399e+02	1.19600e+03	1.23848	388.0
1198	3.90415e+02	1.19800e+03	1.183	389.0
1200	3.91435e+02	1.20000e+03	1.12786	390.0
1202	3.92481e+02	1.20200e+03	1.07309	391.0
1204	3.93522e+02	1.20400e+03	1.01895	392.0
1206	3.94596e+02	1.20600e+03	0.965181	393.0
1208	3.95601e+02	1.20800e+03	0.912013	394.0
1210	3.96631e+02	1.21000e+03	0.859126	395.0
1212	3.97637e+02	1.21200e+03	0.806713	396.0
1214	3.98688e+02	1.21400e+03	0.754605	397.0
1216	3.99743e+02	1.21600e+03	0.703107	398.0
1218	4.00801e+02	1.21800e+03	0.652158	399.0
1220	4.01810e+02	1.22000e+03	0.602228	400.0
1222	4.02831e+02	1.22200e+03	0.553115	401.0
1224	4.03866e+02	1.22400e+03	0.505537	402.0
1226	4.04904e+02	1.22600e+03	0.459151	403.0
1228	4.05928e+02	1.22800e+03	0.414861	404.0
1230	4.06960e+02	1.23000e+03	0.371998	405.0
1232	4.07992e+02	1.23200e+03	0.331628	406.0
1234	4.08982e+02	1.23400e+03	0.29292	407.0
1236	4.10026e+02	1.23600e+03	0.257053	408.0
1238	4.10948e+02	1.23800e+03	0.22292	409.0
1240	4.11975e+02	1.24000e+03	0.191704	410.0
1242	4.13026e+02	1.24200e+03	0.162184	411.0
1244	4.14107e+02	1.24400e+03	0.135497	412.0
1246	4.15207e+02	1.24600e+03	0.110392	413.0
1248	4.16253e+02	1.24800e+03	0.0879236	414.0
1250	4.17305e+02	1.25000e+03	0.0668963	415.0
1252	4.18318e+02	1.25200e+03	0.0482562	416.0
1254	4.19532e+02	1.25400e+03	0.030901	417.0
1256	4.20484e+02	1.25600e+03	0.0156529	418.0
1258	4.21402e+02	1.25800e+03	0.00150933	419.0
1260	4.22337e+02	1.26000e+03	-0.0108078	420.0
1262	4.23325e+02	1.26200e+03	-0.0221664	421.0
1264	4.24327e+02	1.26400e+03	-0.0319617	422.0
1266	4.25322e+02	1.26600e+03	-0.0409767	423.0
1268	4.26297e+02	1.26800e+03	-0.0487112	424.0
1270	4.27314e+02	1.27000e+03	-0.0558056	425.0
1272	4.28274e+02	1.27200e+03	-0.0618622	426.0
1274	4.29259e+02	1.27400e+03	-0.0674209	427.0
1276	4.30274e+02	1.27600e+03	-0.0721669	428.0
1278	4.31267e+02	1.27800e+03	-0.0765084	429.0
1280	4.32273e+02	1.28000e+03	-0.0801929	430.0
1282	4.33288e+02	1.28200e+03	-0.0835688	431.0
1284	4.34296e+02	1.28400e+03	-0.0864505	432.0
1286	4.35294e+02	1.28600e+03	-0.0891007	433.0
1288	4.36319e+02	1.28800e+03	-0.0913654	434.0
1290	4.37369e+02	1.29000e+03	-0.09343	435.0
1292	4.38404e+02	1.29200e+03	-0.0951734	436.0
1294	4.39524e+02	1.29400e+03	-0.0967739	437.0
1296	4.40627e+02	1.29600e+03	-0.0981471	438.0
1298	4.41682e+02	1.29800e+03	-0.0994209	439.0
1300	4.42705e+02	1.30000e+03	-0.100535	440.0
1302	4.43754e+02	1.30200e+03	-0.101571	441.0
1304	4.44722e+02	1.30400e+03	-0.102473	442.0
1306	4.45715e+02	1.30600e+03	-0.103299	443.0
1308	4.46737e+02	1.30800e+03	-0.104002	444.0
1310	4.47790e+02	1.31000e+03	-0.104648	445.0
1312	4.48795e+02	1.31200e+03	-0.105203	446.0
1314	4.49831e+02	1.31400e+03	-0.105723	447.0
1316	4.50815e+02	1.31600e+03	-0.106191	448.0
1318	4.51809e+02	1.31800e+03	-0.106641	449.0
1320	4.52756e+02	1.32000e+03	-0.10705	450.0
1322	4.53713e+02	1.32200e+03	-0.107427	451.0
1324	4.54776e+02	1.32400e+03	-0.107753	452.0
1326	4.55789e+02	1.32600e+03	-0.108053	453.0
1328	4.56788e+02	1.32800e+03	-0.108293	454.0
1330	4.57712e+02	1.33000e+03	-0.108483	455.0
1332	4.58671e+02	1.33200e+03	-0.108606	456.0
1334	4.59626e+02	1.33400e+03	-0.108715	457.0
1336	4.60616e+02	1.33600e+03	-0.108802	458.0
1338	4.61581e+02	1.33800e+03	-0.108883	459.0
1340	4.62540e+02	1.34000e+03	-0.108964	460.0
1342	4.63509e+02	1.34200e+03	-0.109061	461.0
1344	4.64493e+02	1.34400e+03	-0.109169	462.0
1346	4.65454e+02	1.34600e+03	-0.10926	463.0
1348	4.66434e+02	1.34800e+03	-0.109328	464.0
1350	4.67446e+02	1.35000e+03	-0.109383	465.0
1352	4.68421e+02	1.35200e+03	-0.109426	466.0
1354	4.69377e+02	1.35400e+03	-0.109485	467.0
1356	4.70323e+02	1.35600e+03	-0.109571	468.0
1358	4.71257e+02	1.35800e+03	-0.109667	469.0
1360	4.72189e+02	1.36000e+03	-0.109766	470.0
1362	4.73154e+02	1.36200e+03	-0.109837	471.0
1364	4.74110e+02	1.36400e+03	-0.109856	472.0
1366	4.75075e+02	1.36600e+03	-0.109844	473.0
1368	4.76020e+02	1.36800e+03	-0.109803	474.0
1370	4.76948e+02	1.37000e+03	-0.109779	475.0
1372	4.77884e+02	1.37200e+03	-0.109781	476.0
1374	4.78796e+02	1.37400e+03	-0.109797	477.0
1376	4.79744e+02	1.37600e+03	-0.109833	478.0
1378	4.80702e+02	1.37800e+03	-0.109861	479.0
1380	4.81680e+02	1.38000e+03	-0.109869	480.0
1382	4.82653e+02	1.38200e+03	-0.109865	481.0
1384	4.83639e+02	1.38400e+03	-0.109853	482.0
1386	4.84635e+02	1.38600e+03	-0.109869	483.0
1388	4.85617e+02	1.38800e+03	-0.109926	484.0
1390	4.86611e+02	1.39000e+03	-0.110003	485.0
1392	4.87568e+02	1.39200e+03	-0.110102	486.0
1394	4.88554e+02	1.39400e+03	-0.110192	487.0
1396	4.89541e+02	1.39600e+03	-0.110265	488.0
1398	4.90518e+02	1.39800e+03	-0.110322	489.0
1400	4.91515e+02	1.40000e+03	-0.110354	490.0
1402	4.92504e+02	1.40200e+03	-0.110381	491.0
1404	4.93510e+02	1.40400e+03	-0.110401	492.0
1406	4.94512e+02	1.40600e+03	-0.110424	493.0
1408	4.95520e+02	1.40800e+03	-0.11045	494.0
1410	4.96520e+02	1.41000e+03	-0.11047	495.0
1412	4.97516e+02	1.41200e+03	-0.110474	496.0
1414	4.98514e+02	1.41400e+03	-0.110462	497.0
1416	4.99502e+02	1.41600e+03	-0.110435	498.0
1418	5.00508e+02	1.41800e+03	-0.110417	499.0
1420	5.01486e+02	1.42000e+03	-0.110413	500.0
1422	5.02482e+02	1.42200e+03	-0.110416	501.0
1424	5.03462e+02	1.42400e+03	-0.110431	502.0
1426	5.04463e+02	1.42600e+03	-0.110449	503.0
1428	5.05464e+02	1.42800e+03	-0.110474	504.0
1430	5.06391e+02	1.43000e+03	-0.110506	505.0
1432	5.07325e+02	1.43200e+03	-0.110546	506.0
1434	5.08293e+02	1.43400e+03	-0.110583	507.0
1436	5.09286e+02	1.43600e+03	-0.110613	508.0
1438	5.10286e+02	1.43800e+03	-0.110635	509.0
1440	5.11219e+02	1.44000e+03	-0.110643	510.0
1442	5.12207e+02	1.44200e+03	-0.11064	511.0
1444	5.13242e+02	1.44400e+03	-0.110626	512.0
1446	5.14225e+02	1.44600e+03	-0.110612	513.0
1448	5.15250e+02	1.44800e+03	-0.110603	514.0
1450	5.16283e+02	1.45000e+03	-0.110605	515.0
1452	5.17289e+02	1.45200e+03	-0.110614	516.0
1454	5.18294e+02	1.45400e+03	-0.110617	517.0
1456	5.19285e+02	1.45600e+03	-0.110602	518.0
1458	5.20278e+02	1.45800e+03	-0.110575	519.0
1460	5.21269e+02	1.46000e+03	-0.110545	520.0
1462	5.22252e+02	1.46200e+03	-0.110541	521.0
1464	5.23237e+02	1.46400e+03	-0.11057	522.0
1466	5.24255e+02	1.46600e+03	-0.110606	523.0
1468	5.25326e+02	1.46800e+03	-0.11065	524.0
1470	5.26304e+02	1.47000e+03	-0.110685	525.0
1472	5.27350e+02	1.47200e+03	-0.11071	526.0
1474	5.28332e+02	1.47400e+03	-0.110737	527.0
1476	5.29243e+02	1.47600e+03	-0.110768	528.0
1478	5.30191e+02	1.47800e+03	-0.110794	529.0
1480	5.31174e+02	1.48000e+03	-0.110815	530.0
1482	5.32130e+02	1.48200e+03	-0.110836	531.0
1484	5.33048e+02	1.48400e+03	-0.110863	532.0
1486	5.33974e+02	1.48600e+03	-0.110892	533.0
1488	5.34923e+02	1.48800e+03	-0.110922	534.0
1490	5.35878e+02	1.49000e+03	-0.110939	535.0
1492	5.36855e+02	1.49200e+03	-0.110938	536.0
1494	5.37859e+02	1.49400e+03	-0.110932	537.0
1496	5.38836e+02	1.49600e+03	-0.110919	538.0
1498	5.39837e+02	1.49800e+03	-0.110908	539.0
1500	5.40819e+02	1.50000e+03	-0.110905	540.0
1502	5.41797e+02	1.50200e+03	-0.110904	541.0
1504	5.42771e+02	1.50400e+03	-0.110901	542.0
1506	5.43745e+02	1.50600e+03	-0.11089	543.0
1508	5.44711e+02	1.50800e+03	-0.11088	544.0
1510	5.45697e+02	1.51000e+03	-0.110886	545.0
1512	5.46682e+02	1.51200e+03	-0.110914	546.0
1514	5.47665e+02	1.51400e+03	-0.11094	547.0
1516	5.48632e+02	1.51600e+03	-0.110958	548.0
1518	5.49584e+02	1.51800e+03	-0.110965	549.0
1520	5.50585e+02	1.52000e+03	-0.110965	550.0
1522	5.51561e+02	1.52200e+03	-0.110977	551.0
1524	5.52577e+02	1.52400e+03	-0.110999	552.0
1526	5.53560e+02	1.52600e+03	-0.111009	553.0
1528	5.54551e+02	1.52800e+03	-0.111007	554.0
1530	5.55527e+02	1.53000e+03	-0.111014	555.0
1532	5.56477e+02	1.53200e+03	-0.111036	556.0
1534	5.57483e+02	1.53400e+03	-0.111064	557.0
1536	5.58517e+02	1.53600e+03	-0.111101	558.0
1538	5.59636e+02	1.53800e+03	-0.111134	559.0
1540	5.60811e+02	1.54000e+03	-0.111158	560.0
1542	5.61812e+02	1.54200e+03	-0.111187	561.0
1544	5.62807e+02	1.54400e+03	-0.111224	562.0
1546	5.63758e+02	1.54600e+03	-0.111269	563.0
1548	5.64749e+02	1.54800e+03	-0.111313	564.0
1550	5.66098e+02	1.55000e+03	-0.111338	565.0
1552	5.67185e+02	1.55200e+03	-0.111337	566.0
1554	5.68027e+02	1.55400e+03	-0.111324	567.0
1556	5.68945e+02	1.55600e+03	-0.111293	568.0
1558	5.69878e+02	1.55800e+03	-0.111254	569.0
1560	5.70857e+02	1.56000e+03	-0.111208	570.0
1562	5.71822e+02	1.56200e+03	-0.111169	571.0
1564	5.72827e+02	1.56400e+03	-0.111143	572.0
1566	5.73812e+02	1.56600e+03	-0.111122	573.0
1568	5.74786e+02	1.56800e+03	-0.11111	574.0
1570	5.75782e+02	1.57000e+03	-0.111114	575.0
1572	5.76750e+02	1.57200e+03	-0.111148	576.0
1574	5.77708e+02	1.57400e+03	-0.111202	577.0
1576	5.78676e+02	1.57600e+03	-0.111269	578.0
1578	5.79653e+02	1.57800e+03	-0.111309	579.0
1580	5.80663e+02	1.58000e+03	-0.111305	580.0
1582	5.81687e+02	1.58200e+03	-0.111284	581.0
1584	5.82706e+02	1.58400e+03	-0.111245	582.0
1586	5.83661e+02	1.58600e+03	-0.11121	583.0
1588	5.84632e+02	1.58800e+03	-0.111183	584.0
1590	5.85619e+02	1.59000e+03	-0.111153	585.0
1592	5.86583e+02	1.59200e+03	-0.111121	586.0
1594	5.87605e+02	1.59400e+03	-0.111097	587.0
1596	5.88612e+02	1.59600e+03	-0.111085	588.0
1598	5.89631e+02	1.59800e+03	-0.111088	589.0
1600	5.90653e+02	1.60000e+03	-0.111111	590.0
1602	5.91653e+02	1.60200e+03	-0.111145	591.0
1604	5.92655e+02	1.60400e+03	-0.111192	592.0
1606	5.93676e+02	1.60600e+03	-0.111235	593.0
1608	5.94690e+02	1.60800e+03	-0.111271	594.0
1610	5.95707e+02	1.61000e+03	-0.111296	595.0
1612	5.96713e+02	1.61200e+03	-0.111301	596.0
1614	5.97736e+02	1.61400e+03	-0.111296	597.0
1616	5.98766e+02	1.61600e+03	-0.111286	598.0
1618	5.99793e+02	1.61800e+03	-0.111293	599.0
1620	6.00865e+02	1.62000e+03	-0.111323	600.0
1622	6.01933e+02	1.62200e+03	-0.111346	601.0
1624	6.03008e+02	1.62400e+03	-0.111357	602.0
1626	6.04031e+02	1.62600e+03	-0.111355	603.0
1628	6.05099e+02	1.62800e+03	-0.111336	604.0
1630	6.06106e+02	1.63000e+03	-0.111313	605.0
1632	6.07141e+02	1.63200e+03	-0.111291	606.0
1634	6.08100e+02	1.63400e+03	-0.111276	607.0
1636	6.09018e+02	1.63600e+03	-0.111273	608.0
1638	6.09925e+02	1.63800e+03	-0.111274	609.0
1640	6.10892e+02	1.64000e+03	-0.11128	610.0
1642	6.11875e+02	1.64200e+03	-0.111287	611.0
1644	6.12991e+02	1.64400e+03	-0.111297	612.0
1646	6.13937e+02	1.64600e+03	-0.111307	613.0
1648	6.14944e+02	1.64800e+03	-0.111318	614.0
1650	6.15848e+02	1.65000e+03	-0.111336	615.0
1652	6.16815e+02	1.65200e+03	-0.111365	616.0
1654	6.17763e+02	1.65400e+03	-0.111399	617.0
1656	6.18739e+02	1.65600e+03	-0.111441	618.0
1658	6.19696e+02	1.65800e+03	-0.111473	619.0
1660	6.20651e+02	1.66000e+03	-0.111484	620.0
1662	6.21583e+02	1.66200e+03	-0.111476	621.0
1664	6.22550e+02	1.66400e+03	-0.111445	622.0
1666	6.23525e+02	1.66600e+03	-0.111423	623.0
1668	6.24495e+02	1.66800e+03	-0.11142	624.0
1670	6.25448e+02	1.67000e+03	-0.111432	625.0
1672	6.26406e+02	1.67200e+03	-0.111464	626.0
1674	6.27350e+02	1.67400e+03	-0.111503	627.0
1676	6.28298e+02	1.67600e+03	-0.11154	628.0
1678	6.29260e+02	1.67800e+03	-0.111561	629.0
1680	6.30224e+02	1.68000e+03	-0.11156	630.0
1682	6.31198e+02	1.68200e+03	-0.111551	631.0
1684	6.32175e+02	1.68400e+03	-0.11153	632.0
1686	6.33159e+02	1.68600e+03	-0.111507	633.0
1688	6.34154e+02	1.68800e+03	-0.111486	634.0
1690	6.35160e+02	1.69000e+03	-0.111468	635.0
1692	6.36163e+02	1.69200e+03	-0.111457	636.0
1694	6.37180e+02	1.69400e+03	-0.111457	637.0
1696	6.38176e+02	1.69600e+03	-0.111473	638.0
1698	6.39185e+02	1.69800e+03	-0.111492	639.0
1700	6.40197e+02	1.70000e+03	-0.111513	640.0
1702	6.41169e+02	1.70200e+03	-0.111533	641.0
1704	6.42163e+02	1.70400e+03	-0.11155	642.0
1706	6.43182e+02	1.70600e+03	-0.111564	643.0
1708	6.44211e+02	1.70800e+03	-0.111577	644.0
1710	6.45212e+02	1.71000e+03	-0.111596	645.0
1712	6.46246e+02	1.71200e+03	-0.111627	646.0
1714	6.47228e+02	1.71400e+03	-0.111656	647.0
1716	6.48217e+02	1.71600e+03	-0.11167	648.0
1718	6.49218e+02	1.71800e+03	-0.111669	649.0
1720	6.50183e+02	1.72000e+03	-0.111649	650.0
1722	6.51141e+02	1.72200e+03	-0.111631	651.0
1724	6.52134e+02	1.72400e+03	-0.111624	652.0
1726	6.53151e+02	1.72600e+03	-0.111631	653.0
1728	6.54133e+02	1.72800e+03	-0.111657	654.0
1730	6.55119e+02	1.73000e+03	-0.111678	655.0
1732	6.56077e+02	1.73200e+03	-0.111687	656.0
1734	6.57051e+02	1.73400e+03	-0.111688	657.0
1736	6.57986e+02	1.73600e+03	-0.111685	658.0
1738	6.58924e+02	1.73800e+03	-0.111696	659.0
1740	6.59852e+02	1.74000e+03	-0.111719	660.0
1742	6.60798e+02	1.74200e+03	-0.111741	661.0
1744	6.61742e+02	1.74400e+03	-0.111762	662.0
1746	6.62714e+02	1.74600e+03	-0.111785	663.0
1748	6.63697e+02	1.74800e+03	-0.1118	664.0
1750	6.64684e+02	1.75000e+03	-0.1118	665.0
1752	6.65656e+02	1.75200e+03	-0.111772	666.0
1754	6.66631e+02	1.75400e+03	-0.11173	667.0
1756	6.67616e+02	1.75600e+03	-0.111677	668.0
1758	6.68580e+02	1.75800e+03	-0.111641	669.0
1760	6.69552e+02	1.76000e+03	-0.111637	670.0
1762	6.70514e+02	1.76200e+03	-0.111649	671.0
1764	6.71483e+02	1.76400e+03	-0.111676	672.0
1766	6.72456e+02	1.76600e+03	-0.111684	673.0
1768	6.73425e+02	1.76800e+03	-0.111661	674.0
1770	6.74388e+02	1.77000e+03	-0.111623	675.0
1772	6.75345e+02	1.77200e+03	-0.111569	676.0
1774	6.76328e+02	1.77400e+03	-0.111521	677.0
1776	6.77290e+02	1.77600e+03	-0.111471	678.0
1778	6.78274e+02	1.77800e+03	-0.11141	679.0
1780	6.79239e+02	1.78000e+03	-0.111347	680.0
1782	6.80213e+02	1.78200e+03	-0.111312	681.0
1784	6.81190e+02	1.78400e+03	-0.111328	682.0
1786	6.82170e+02	1.78600e+03	-0.111379	683.0
1788	6.83145e+02	1.78800e+03	-0.111469	684.0
1790	6.84110e+02	1.79000e+03	-0.111545	685.0
1792	6.85086e+02	1.79200e+03	-0.111594	686.0
1794	6.86055e+02	1.79400e+03	-0.11162	687.0
1796	6.86429e+02	1.79600e+03	-0.111616	688.0
1798	6.87044e+02	1.79800e+03	-0.111603	689.0
1800	6.87737e+02	1.80000e+03	-0.111589	690.0
1802	6.88379e+02	1.80200e+03	-0.111602	691.0
1804	6.88982e+02	1.80400e+03	-0.111656	692.0
1806	6.89562e+02	1.80600e+03	-0.111717	693.0
1808	6.90083e+02	1.80800e+03	-0.111777	694.0
1810	6.90587e+02	1.81000e+03	-0.11181	695.0
1812	6.91068e+02	1.81200e+03	-0.111798	696.0
1814	6.91515e+02	1.81400e+03	-0.11177	697.0
1816	6.91944e+02	1.81600e+03	-0.111721	698.0
1818	6.92331e+02	1.81800e+03	-0.111681	699.0
1820	6.92706e+02	1.82000e+03	-0.111664	700.0
1822	6.93064e+02	1.82200e+03	-0.111663	700.0
1824	6.93393e+02	1.82400e+03	-0.11168	700.0
1826	6.93703e+02	1.82600e+03	-0.111686	700.0
1828	6.93994e+02	1.82800e+03	-0.111682	700.0
1830	6.94280e+02	1.83000e+03	-0.111674	700.0
1832	6.94547e+02	1.83200e+03	-0.111658	700.0
1834	6.94795e+02	1.83400e+03	-0.11164	700.0
1836	6.95042e+02	1.83600e+03	-0.111618	700.0
1838	6.95263e+02	1.83800e+03	-0.111605	700.0
1840	6.95487e+02	1.84000e+03	-0.11161	700.0
1842	6.95696e+02	1.84200e+03	-0.111623	700.0
1844	6.95889e+02	1.84400e+03	-0.111635	700.0
1846	6.96063e+02	1.84600e+03	-0.111635	700.0
1848	6.96237e+02	1.84800e+03	-0.111627	700.0
1850	6.96400e+02	1.85000e+03	-0.11162	700.0
1852	6.96550e+02	1.85200e+03	-0.111629	700.0
1854	6.96698e+02	1.85400e+03	-0.111647	700.0
1856	6.96823e+02	1.85600e+03	-0.111683	700.0
1858	6.96954e+02	1.85800e+03	-0.111727	700.0
1860	6.97087e+02	1.86000e+03	-0.111774	700.0
1862	6.97206e+02	1.86200e+03	-0.111817	700.0
1864	6.97320e+02	1.86400e+03	-0.111842	700.0
1866	6.97428e+02	1.86600e+03	-0.111848	700.0
1868	6.97528e+02	1.86800e+03	-0.111828	700.0
1870	6.97619e+02	1.87000e+03	-0.111801	700.0
1872	6.97711e+02	1.87200e+03	-0.111766	700.0
1874	6.97805e+02	1.87400e+03	-0.111739	700.0
1876	6.97894e+02	1.87600e+03	-0.111723	700.0
1878	6.97973e+02	1.87800e+03	-0.111711	700.0
1880	6.98040e+02	1.88000e+03	-0.11171	700.0
1882	6.98121e+02	1.88200e+03	-0.111724	700.0
1884	6.98192e+02	1.88400e+03	-0.111751	700.0
1886	6.98241e+02	1.88600e+03	-0.111775	700.0
1888	6.98307e+02	1.88800e+03	-0.111796	700.0
1890	6.98371e+02	1.89000e+03	-0.111812	700.0
1892	6.98427e+02	1.89200e+03	-0.111817	700.0
1894	6.98487e+02	1.89400e+03	-0.11181	700.0
1896	6.98530e+02	1.89600e+03	-0.111787	700.0
1898	6.98577e+02	1.89800e+03	-0.111763	700.0
1900	6.98630e+02	1.90000e+03	-0.111741	700.0
1902	6.98676e+02	1.90200e+03	-0.111723	700.0
1904	6.98723e+02	1.90400e+03	-0.111713	700.0
1906	6.98758e+02	1.90600e+03	-0.111706	700.0
1908	6.98795e+02	1.90800e+03	-0.111705	700.0
1910	6.98832e+02	1.91000e+03	-0.111709	700.0
1912	6.98868e+02	1.91200e+03	-0.111727	700.0
1914	6.98900e+02	1.91400e+03	-0.111754	700.0
1916	6.98933e+02	1.91600e+03	-0.111789	700.0
1918	6.98966e+02	1.91800e+03	-0.111815	700.0
1920	6.98997e+02	1.92000e+03	-0.111827	700.0
1922	6.99018e+02	1.92200e+03	-0.11183	700.0
1924	6.99054e+02	1.92400e+03	-0.111817	700.0
1926	6.99084e+02	1.92600e+03	-0.111791	700.0
1928	6.99095e+02	1.92800e+03	-0.111763	700.0
1930	6.99121e+02	1.93000e+03	-0.111754	700.0
1932	6.99150e+02	1.93200e+03	-0.111776	700.0
1934	6.99171e+02	1.93400e+03	-0.111812	700.0
1936	6.99189e+02	1.93600e+03	-0.111866	700.0
1938	6.99204e+02	1.93800e+03	-0.111912	700.0
1940	6.99223e+02	1.94000e+03	-0.111946	700.0
1942	6.99245e+02	1.94200e+03	-0.111971	700.0
1944	6.99254e+02	1.94400e+03	-0.111984	700.0
1946	6.99271e+02	1.94600e+03	-0.111991	700.0
1948	6.99288e+02	1.94800e+03	-0.111987	700.0
1950	6.99304e+02	1.95000e+03	-0.111973	700.0
1952	6.99311e+02	1.95200e+03	-0.111944	700.0
1954	6.99331e+02	1.95400e+03	-0.111903	700.0
1956	6.99344e+02	1.95600e+03	-0.111843	700.0
1958	6.99352e+02	1.95800e+03	-0.111791	700.0
1960	6.99365e+02	1.96000e+03	-0.111753	700.0
1962	6.99365e+02	1.96200e+03	-0.111731	700.0
1964	6.99388e+02	1.96400e+03	-0.111732	700.0
1966	6.99399e+02	1.96600e+03	-0.111725	700.0
1968	6.99413e+02	1.96800e+03	-0.111705	700.0
1970	6.99430e+02	1.97000e+03	-0.111671	700.0
1972	6.99428e+02	1.97200e+03	-0.111604	700.0
1974	6.99430e+02	1.97400e+03	-0.111528	700.0
1976	6.99442e+02	1.97600e+03	-0.111443	700.0
1978	6.99456e+02	1.97800e+03	-0.111378	700.0
1980	6.99453e+02	1.98000e+03	-0.111353	700.0
1982	6.99466e+02	1.98200e+03	-0.111359	700.0
1984	6.99471e+02	1.98400e+03	-0.111411	700.0
1986	6.99474e+02	1.98600e+03	-0.111471	700.0
1988	6.99484e+02	1.98800e+03	-0.111538	700.0
1990	6.99484e+02	1.99000e+03	-0.111597	700.0
1992	6.99487e+02	1.99200e+03	-0.111643	700.0
1994	6.99502e+02	1.99400e+03	-0.111687	700.0
1996	6.99502e+02	1.99600e+03	-0.111721	700.0
1998	6.99501e+02	1.99800e+03	-0.111755	700.0
2000	6.99508e+02	2.00000e+03	-0.111784	700.0
2002	6.99516e+02	2.00200e+03	-0.111807	700.0
2004	6.99517e+02	2.00400e+03	-0.11182	700.0
2006	6.99530e+02	2.00600e+03	-0.111824	700.0
2008	6.99529e+02	2.00800e+03	-0.111818	700.0
2010	6.99542e+02	2.01000e+03	-0.111814	700.0
2012	6.99529e+02	2.01200e+03	-0.11182	700.0
2014	6.99537e+02	2.01400e+03	-0.111834	700.0
2016	6.99544e+02	2.01600e+03	-0.111847	700.0
2018	6.99543e+02	2.01800e+03	-0.111854	700.0
2020	6.99548e+02	2.02000e+03	-0.11185	700.0
2022	6.99547e+02	2.02200e+03	-0.111849	700.0
2024	6.99565e+02	2.02400e+03	-0.11186	700.0
2026	6.99559e+02	2.02600e+03	-0.111881	700.0
2028	6.99556e+02	2.02800e+03	-0.111915	700.0
2030	6.99570e+02	2.03000e+03	-0.11195	700.0
2032	6.99567e+02	2.03200e+03	-0.111986	700.0
2034	6.99563e+02	2.03400e+03	-0.112018	700.0
2036	6.99575e+02	2.03600e+03	-0.112039	700.0
2038	6.99563e+02	2.03800e+03	-0.112049	700.0
2040	6.99574e+02	2.04000e+03	-0.112042	700.0
2042	6.99569e+02	2.04200e+03	-0.112024	700.0
2044	6.99577e+02	2.04400e+03	-0.111988	700.0
2046	6.99569e+02	2.04600e+03	-0.111955	700.0
2048	6.99567e+02	2.04800e+03	-0.111924	700.0
2050	6.99559e+02	2.05000e+03	-0.111902	700.0
2052	6.99572e+02	2.05200e+03	-0.111906	700.0
2054	6.99581e+02	2.05400e+03	-0.111933	700.0
2056	6.99564e+02	2.05600e+03	-0.111986	700.0
2058	6.99573e+02	2.05800e+03	-0.112026	700.0
2060	6.99574e+02	2.06000e+03	-0.112038	700.0
2062	6.99573e+02	2.06200e+03	-0.112028	700.0
2064	6.99578e+02	2.06400e+03	-0.111999	700.0
2066	6.99576e+02	2.06600e+03	-0.111989	700.0
2068	6.99582e+02	2.06800e+03	-0.112003	700.0
2070	6.99580e+02	2.07000e+03	-0.112009	700.0
2072	6.99582e+02	2.07200e+03	-0.11201	700.0
2074	6.99581e+02	2.07400e+03	-0.112014	700.0
2076	6.99580e+02	2.07600e+03	-0.112023	700.0
2078	6.99576e+02	2.07800e+03	-0.112038	700.0
2080	6.99579e+02	2.08000e+03	-0.112065	700.0
2082	6.99580e+02	2.08200e+03	-0.11209	700.0
2084	6.99577e+02	2.08400e+03	-0.112098	700.0
2086	6.99585e+02	2.08600e+03	-0.112084	700.0
2088	6.99579e+02	2.08800e+03	-0.112029	700.0
2090	6.99579e+02	2.09000e+03	-0.111964	700.0
2092	6.99576e+02	2.09200e+03	-0.111893	700.0
2094	6.99579e+02	2.09400e+03	-0.111838	700.0
2096	6.99569e+02	2.09600e+03	-0.111813	700.0
2098	6.99574e+02	2.09800e+03	-0.11181	700.0
2100	6.99568e+02	2.10000e+03	-0.111839	700.0
2102	6.99573e+02	2.10200e+03	-0.111879	700.0
2104	6.99575e+02	2.10400e+03	-0.11193	700.0
2106	6.99581e+02	2.10600e+03	-0.111977	700.0
2108	6.99572e+02	2.10800e+03	-0.112011	700.0
2110	6.99575e+02	2.11000e+03	-0.112029	700.0
2112	6.99562e+02	2.11200e+03	-0.112023	700.0
2114	6.99567e+02	2.11400e+03	-0.112006	700.0
2116	6.99564e+02	2.11600e+03	-0.11197	700.0
2118	6.99568e+02	2.11800e+03	-0.111935	700.0
2120	6.99566e+02	2.12000e+03	-0.111892	700.0
2122	6.99566e+02	2.12200e+03	-0.111857	700.0
2124	6.99563e+02	2.12400e+03	-0.111839	700.0
2126	6.99564e+02	2.12600e+03	-0.111835	700.0
2128	6.99557e+02	2.12800e+03	-0.111854	700.0
2130	6.99559e+02	2.13000e+03	-0.111873	700.0
2132	6.99558e+02	2.13200e+03	-0.111884	700.0
2134	6.99557e+02	2.13400e+03	-0.111893	700.0
2136	6.99558e+02	2.13600e+03	-0.111906	700.0
2138	6.99553e+02	2.13800e+03	-0.111938	700.0
2140	6.99554e+02	2.14000e+03	-0.111996	700.0
2142	6.99550e+02	2.14200e+03	-0.112045	700.0
2144	6.99551e+02	2.14400e+03	-0.112078	700.0
2146	6.99545e+02	2.14600e+03	-0.112092	700.0
2148	6.99556e+02	2.14800e+03	-0.112078	700.0
2150	6.99552e+02	2.15000e+03	-0.112062	700.0
2152	6.99555e+02	2.15200e+03	-0.112043	700.0
2154	6.99551e+02	2.15400e+03	-0.112021	700.0
2156	6.99555e+02	2.15600e+03	-0.112009	700.0
2158	6.99543e+02	2.15800e+03	-0.11201	700.0
2160	6.99563e+02	2.16000e+03	-0.112029	700.0
2162	6.99553e+02	2.16200e+03	-0.112049	700.0
2164	6.99551e+02	2.16400e+03	-0.112068	700.0
2166	6.99549e+02	2.16600e+03	-0.112082	700.0
2168	6.99551e+02	2.16800e+03	-0.11209	700.0
2170	6.99539e+02	2.17000e+03	-0.112095	700.0
2172	6.99542e+02	2.17200e+03	-0.112097	700.0
2174	6.99539e+02	2.17400e+03	-0.112099	700.0
2176	6.99529e+02	2.17600e+03	-0.112099	700.0
2178	6.99540e+02	2.17800e+03	-0.1121	700.0
2180	6.99533e+02	2.18000e+03	-0.1121	700.0
2182	6.99539e+02	2.18200e+03	-0.112103	700.0
2184	6.99533e+02	2.18400e+03	-0.112111	700.0
2186	6.99529e+02	2.18600e+03	-0.112126	700.0
2188	6.99524e+02	2.18800e+03	-0.112153	700.0
2190	6.99537e+02	2.19000e+03	-0.112184	700.0
2192	6.99527e+02	2.19200e+03	-0.112215	700.0
2194	6.99523e+02	2.19400e+03	-0.112226	700.0
2196	6.99529e+02	2.19600e+03	-0.112212	700.0
2198	6.99522e+02	2.19800e+03	-0.112191	700.0
2200	6.99522e+02	2.20000e+03	-0.11217	700.0
2202	6.99522e+02	2.20200e+03	-0.112162	700.0
2204	6.99522e+02	2.20400e+03	-0.112172	700.0
2206	6.99512e+02	2.20600e+03	-0.112176	700.0
2208	6.99511e+02	2.20800e+03	-0.112162	700.0
2210	6.99509e+02	2.21000e+03	-0.112136	700.0
2212	6.99508e+02	2.21200e+03	-0.112088	700.0
2214	6.99511e+02	2.21400e+03	-0.112033	700.0
2216	6.99502e+02	2.21600e+03	-0.111973	700.0
2218	6.99511e+02	2.21800e+03	-0.111925	700.0
2220	6.99502e+02	2.22000e+03	-0.111903	700.0
2222	6.99509e+02	2.22200e+03	-0.111909	700.0
2224	6.99503e+02	2.22400e+03	-0.11196	700.0
2226	6.99507e+02	2.22600e+03	-0.112026	700.0
2228	6.99516e+02	2.22800e+03	-0.112111	700.0
2230	6.99501e+02	2.23000e+03	-0.112188	700.0
2232	6.99504e+02	2.23200e+03	-0.112253	700.0
2234	6.99492e+02	2.23400e+03	-0.112307	700.0
2236	6.99503e+02	2.23600e+03	-0.112341	700.0
2238	6.99492e+02	2.23800e+03	-0.112351	700.0
2240	6.99493e+02	2.24000e+03	-0.112337	700.0
2242	6.99489e+02	2.24200e+03	-0.112324	700.0
2244	6.99495e+02	2.24400e+03	-0.112312	700.0
2246	6.99492e+02	2.24600e+03	-0.112305	700.0
2248	6.99488e+02	2.24800e+03	-0.112302	700.0
2250	6.99497e+02	2.25000e+03	-0.112301	700.0
2252	6.99490e+02	2.25200e+03	-0.1123	700.0
2254	6.99487e+02	2.25400e+03	-0.1123	700.0
2256	6.99486e+02	2.25600e+03	-0.1123	700.0
2258	6.99490e+02	2.25800e+03	-0.1123	700.0
2260	6.99483e+02	2.26000e+03	-0.112303	700.0
2262	6.99491e+02	2.26200e+03	-0.112311	700.0
2264	6.99482e+02	2.26400e+03	-0.112321	700.0
2266	6.99485e+02	2.26600e+03	-0.112335	700.0
2268	6.99477e+02	2.26800e+03	-0.112357	700.0
2270	6.99479e+02	2.27000e+03	-0.112396	700.0
2272	6.99485e+02	2.27200e+03	-0.112448	700.0
2274	6.99475e+02	2.27400e+03	-0.112486	700.0
2276	6.99471e+02	2.27600e+03	-0.1125	700.0
2278	6.99474e+02	2.27800e+03	-0.112499	700.0
2280	6.99476e+02	2.28000e+03	-0.112474	700.0
2282	6.99476e+02	2.28200e+03	-0.112443	700.0
2284	6.99476e+02	2.28400e+03	-0.112408	700.0
2286	6.99477e+02	2.28600e+03	-0.112377	700.0
2288	6.99477e+02	2.28800e+03	-0.112361	700.0
2290	6.99473e+02	2.29000e+03	-0.11237	700.0
2292	6.99468e+02	2.29200e+03	-0.112413	700.0
2294	6.99479e+02	2.29400e+03	-0.112469	700.0
2296	6.99463e+02	2.29600e+03	-0.112537	700.0
2298	6.99472e+02	2.29800e+03	-0.112594	700.0
2300	6.99484e+02	2.30000e+03	-0.112626	700.0
2302	6.99465e+02	2.30200e+03	-0.112633	700.0
2304	6.99474e+02	2.30400e+03	-0.112599	700.0
2306	6.99469e+02	2.30600e+03	-0.112555	700.0
2308	6.99466e+02	2.30800e+03	-0.112503	700.0
2310	6.99464e+02	2.31000e+03	-0.112461	700.0
2312	6.99461e+02	2.31200e+03	-0.112438	700.0
2314	6.99467e+02	2.31400e+03	-0.112434	700.0
2316	6.99458e+02	2.31600e+03	-0.112451	700.0
2318	6.99464e+02	2.31800e+03	-0.112468	700.0
2320	6.99452e+02	2.32000e+03	-0.112483	700.0
2322	6.99450e+02	2.32200e+03	-0.112489	700.0
2324	6.99451e+02	2.32400e+03	-0.112483	700.0
2326	6.99450e+02	2.32600e+03	-0.112469	700.0
2328	6.99457e+02	2.32800e+03	-0.112434	700.0
2330	6.99452e+02	2.33000e+03	-0.112398	700.0
2332	6.99441e+02	2.33200e+03	-0.112371	700.0
2334	6.99448e+02	2.33400e+03	-0.112361	700.0
2336	6.99441e+02	2.33600e+03	-0.112366	700.0
2338	6.99448e+02	2.33800e+03	-0.112372	700.0
2340	6.99450e+02	2.34000e+03	-0.11238	700.0
2342	6.99443e+02	2.34200e+03	-0.112394	700.0
2344	6.99448e+02	2.34400e+03	-0.112418	700.0
2346	6.99438e+02	2.34600e+03	-0.112441	700.0
2348	6.99442e+02	2.34800e+03	-0.112462	700.0
2350	6.99444e+02	2.35000e+03	-0.112467	700.0
2352	6.99445e+02	2.35200e+03	-0.112451	700.0
2354	6.99438e+02	2.35400e+03	-0.112436	700.0
2356	6.99434e+02	2.35600e+03	-0.112423	700.0
2358	6.99440e+02	2.35800e+03	-0.112419	700.0
2360	6.99434e+02	2.36000e+03	-0.112423	700.0
2362	6.99433e+02	2.36200e+03	-0.11242	700.0
2364	6.99429e+02	2.36400e+03	-0.112421	700.0
2366	6.99437e+02	2.36600e+03	-0.112439	700.0
2368	6.99427e+02	2.36800e+03	-0.112481	700.0
2370	6.99441e+02	2.37000e+03	-0.112524	700.0
2372	6.99438e+02	2.37200e+03	-0.112563	700.0
2374	6.99431e+02	2.37400e+03	-0.112581	700.0
2376	6.99444e+02	2.37600e+03	-0.112568	700.0
2378	6.99431e+02	2.37800e+03	-0.11254	700.0
2380	6.99438e+02	2.38000e+03	-0.112501	700.0
2382	6.99439e+02	2.38200e+03	-0.112478	700.0
2384	6.99425e+02	2.38400e+03	-0.112472	700.0
2386	6.99429e+02	2.38600e+03	-0.112472	700.0
2388	6.99427e+02	2.38800e+03	-0.112475	700.0
2390	6.99421e+02	2.39000e+03	-0.112472	700.0
2392	6.99422e+02	2.39200e+03	-0.112474	700.0
2394	6.99422e+02	2.39400e+03	-0.112488	700.0
2396	6.99417e+02	2.39600e+03	-0.112515	700.0
2398	6.99418e+02	2.39800e+03	-0.112533	700.0
2400	6.99419e+02	2.40000e+03	-0.11254	700.0
2402	6.99422e+02	2.40200e+03	-0.112545	700.0
2404	6.99417e+02	2.40400e+03	-0.11255	700.0
2406	6.99422e+02	2.40600e+03	-0.112561	700.0
2408	6.99410e+02	2.40800e+03	-0.112583	700.0
2410	6.99414e+02	2.41000e+03	-0.112603	700.0
2412	6.99414e+02	2.41200e+03	-0.112609	700.0
2414	6.99411e+02	2.41400e+03	-0.112604	700.0
2416	6.99416e+02	2.41600e+03	-0.112581	700.0
2418	6.99414e+02	2.41800e+03	-0.112559	700.0
2420	6.99412e+02	2.42000e+03	-0.112539	700.0
2422	6.99413e+02	2.42200e+03	-0.112524	700.0
2424	6.99410e+02	2.42400e+03	-0.112518	700.0
2426	6.99406e+02	2.42600e+03	-0.11253	700.0
2428	6.99404e+02	2.42800e+03	-0.112573	700.0
2430	6.99403e+02	2.43000e+03	-0.112613	700.0
2432	6.99414e+02	2.43200e+03	-0.112654	700.0
2434	6.99404e+02	2.43400e+03	-0.112689	700.0
2436	6.99412e+02	2.43600e+03	-0.112706	700.0
2438	6.99403e+02	2.43800e+03	-0.112712	700.0
2440	6.99414e+02	2.44000e+03	-0.1127	700.0
2442	6.99404e+02	2.44200e+03	-0.112686	700.0
2444	6.99400e+02	2.44400e+03	-0.112673	700.0
2446	6.99397e+02	2.44600e+03	-0.11267	700.0
2448	6.99393e+02	2.44800e+03	-0.112677	700.0
2450	6.99409e+02	2.45000e+03	-0.112684	700.0
2452	6.99399e+02	2.45200e+03	-0.11269	700.0
2454	6.99397e+02	2.45400e+03	-0.112695	700.0
2456	6.99413e+02	2.45600e+03	-0.112697	700.0
2458	6.99398e+02	2.45800e+03	-0.112693	700.0
2460	6.99395e+02	2.46000e+03	-0.112672	700.0
2462	6.99401e+02	2.46200e+03	-0.11265	700.0
2464	6.99408e+02	2.46400e+03	-0.112628	700.0
2466	6.99404e+02	2.46600e+03	-0.112617	700.0
2468	6.99401e+02	2.46800e+03	-0.112625	700.0
2470	6.99404e+02	2.47000e+03	-0.112639	700.0
2472	6.99400e+02	2.47200e+03	-0.112659	700.0
2474	6.99402e+02	2.47400e+03	-0.112681	700.0
2476	6.99398e+02	2.47600e+03	-0.112696	700.0
2478	6.99393e+02	2.47800e+03	-0.112698	700.0
2480	6.99398e+02	2.48000e+03	-0.112686	700.0
2482	6.99397e+02	2.48200e+03	-0.112669	700.0
2484	6.99405e+02	2.48400e+03	-0.112641	700.0
2486	6.99388e+02	2.48600e+03	-0.112626	700.0
2488	6.99392e+02	2.48800e+03	-0.112629	700.0
2490	6.99393e+02	2.49000e+03	-0.112635	700.0
2492	6.99397e+02	2.49200e+03	-0.112637	700.0
2494	6.99394e+02	2.49400e+03	-0.112631	700.0
2496	6.99395e+02	2.49600e+03	-0.112616	700.0
2498	6.99392e+02	2.49800e+03	-0.112606	700.0
2500	6.99397e+02	2.50000e+03	-0.112606	700.0
2502	6.99396e+02	2.50200e+03	-0.112612	700.0
2504	6.99386e+02	2.50400e+03	-0.112632	700.0
2506	6.99394e+02	2.50600e+03	-0.11267	700.0
2508	6.99400e+02	2.50800e+03	-0.112717	700.0
2510	6.99389e+02	2.51000e+03	-0.112739	700.0
2512	6.99388e+02	2.51200e+03	-0.11273	700.0
2514	6.99393e+02	2.51400e+03	-0.112714	700.0
2516	6.99385e+02	2.51600e+03	-0.11269	700.0
2518	6.99386e+02	2.51800e+03	-0.112687	700.0
2520	6.99397e+02	2.52000e+03	-0.112702	700.0
2522	6.99395e+02	2.52200e+03	-0.112707	700.0
2524	6.99391e+02	2.52400e+03	-0.112706	700.0
2526	6.99388e+02	2.52600e+03	-0.112704	700.0
2528	6.99391e+02	2.52800e+03	-0.1127	700.0
2530	6.99389e+02	2.53000e+03	-0.112699	700.0
2532	6.99393e+02	2.53200e+03	-0.112712	700.0
2534	6.99396e+02	2.53400e+03	-0.112736	700.0
2536	6.99392e+02	2.53600e+03	-0.11276	700.0
2538	6.99389e+02	2.53800e+03	-0.112776	700.0
2540	6.99394e+02	2.54000e+03	-0.112777	700.0
2542	6.99385e+02	2.54200e+03	-0.112765	700.0
2544	6.99392e+02	2.54400e+03	-0.112751	700.0
2546	6.99398e+02	2.54600e+03	-0.112754	700.0
2548	6.99384e+02	2.54800e+03	-0.112774	700.0
2550	6.99379e+02	2.55000e+03	-0.112793	700.0
2552	6.99387e+02	2.55200e+03	-0.112804	700.0
2554	6.99385e+02	2.55400e+03	-0.112793	700.0
2556	6.99375e+02	2.55600e+03	-0.112747	700.0
2558	6.99389e+02	2.55800e+03	-0.112697	700.0
2560	6.99376e+02	2.56000e+03	-0.112646	700.0
2562	6.99381e+02	2.56200e+03	-0.112613	700.0
2564	6.99380e+02	2.56400e+03	-0.112607	700.0
2566	6.99394e+02	2.56600e+03	-0.112617	700.0
2568	6.99385e+02	2.56800e+03	-0.112652	700.0
2570	6.99389e+02	2.57000e+03	-0.112698	700.0
2572	6.99393e+02	2.57200e+03	-0.112755	700.0
2574	6.99387e+02	2.57400e+03	-0.112806	700.0
2576	6.99380e+02	2.57600e+03	-0.112848	700.0
2578	6.99393e+02	2.57800e+03	-0.112884	700.0
2580	6.99391e+02	2.58000e+03	-0.11291	700.0
2582	6.99386e+02	2.58200e+03	-0.112926	700.0
2584	6.99383e+02	2.58400e+03	-0.112925	700.0
2586	6.99393e+02	2.58600e+03	-0.112909	700.0
2588	6.99381e+02	2.58800e+03	-0.112874	700.0
2590	6.99383e+02	2.59000e+03	-0.11284	700.0
2592	6.99382e+02	2.59200e+03	-0.112824	700.0
2594	6.99389e+02	2.59400e+03	-0.112825	700.0
2596	6.99373e+02	2.59600e+03	-0.112847	700.0
2598	6.99393e+02	2.59800e+03	-0.112866	700.0
2600	6.99385e+02	2.60000e+03	-0.112881	700.0
2602	6.99373e+02	2.60200e+03	-0.112886	700.0
2604	6.99375e+02	2.60400e+03	-0.112882	700.0
2606	6.99381e+02	2.60600e+03	-0.112894	700.0
2608	6.99376e+02	2.60800e+03	-0.112911	700.0
2610	6.99379e+02	2.61000e+03	-0.112915	700.0
2612	6.99371e+02	2.61200e+03	-0.112908	700.0
2614	6.99381e+02	2.61400e+03	-0.112898	700.0
2616	6.99373e+02	2.61600e+03	-0.112884	700.0
2618	6.99383e+02	2.61800e+03	-0.112879	700.0
2620	6.99379e+02	2.62000e+03	-0.112885	700.0
2622	6.99379e+02	2.62200e+03	-0.112883	700.0
2624	6.99376e+02	2.62400e+03	-0.112883	700.0
2626	6.99378e+02	2.62600e+03	-0.112892	700.0
2628	6.99376e+02	2.62800e+03	-0.112917	700.0
2630	6.99373e+02	2.63000e+03	-0.112946	700.0
2632	6.99381e+02	2.63200e+03	-0.112977	700.0
2634	6.99382e+02	2.63400e+03	-0.112999	700.0
2636	6.99374e+02	2.63600e+03	-0.113006	700.0
2638	6.99377e+02	2.63800e+03	-0.113004	700.0
2640	6.99388e+02	2.64000e+03	-0.112987	700.0
2642	6.99383e+02	2.64200e+03	-0.11296	700.0
2644	6.99381e+02	2.64400e+03	-0.112922	700.0
2646	6.99385e+02	2.64600e+03	-0.11289	700.0
2648	6.99370e+02	2.64800e+03	-0.112885	700.0
2650	6.99384e+02	2.65000e+03	-0.112905	700.0
2652	6.99382e+02	2.65200e+03	-0.112953	700.0
2654	6.99380e+02	2.65400e+03	-0.112982	700.0
2656	6.99374e+02	2.65600e+03	-0.112985	700.0
2658	6.99377e+02	2.65800e+03	-0.112969	700.0
2660	6.99368e+02	2.66000e+03	-0.112929	700.0
2662	6.99376e+02	2.66200e+03	-0.112908	700.0
2664	6.99379e+02	2.66400e+03	-0.112902	700.0
2666	6.99372e+02	2.66600e+03	-0.112894	700.0
2668	6.99369e+02	2.66800e+03	-0.112883	700.0
2670	6.99374e+02	2.67000e+03	-0.112866	700.0
2672	6.99375e+02	2.67200e+03	-0.112844	700.0
2674	6.99375e+02	2.67400e+03	-0.112832	700.0
2676	6.99380e+02	2.67600e+03	-0.112831	700.0
2678	6.99387e+02	2.67800e+03	-0.112828	700.0
2680	6.99378e+02	2.68000e+03	-0.112833	700.0
2682	6.99386e+02	2.68200e+03	-0.112844	700.0
2684	6.99383e+02	2.68400e+03	-0.112866	700.0
2686	6.99384e+02	2.68600e+03	-0.112899	700.0
2688	6.99377e+02	2.68800e+03	-0.112937	700.0
2690	6.99379e+02	2.69000e+03	-0.112966	700.0
2692	6.99376e+02	2.69200e+03	-0.112982	700.0
2694	6.99378e+02	2.69400e+03	-0.112993	700.0
2696	6.99379e+02	2.69600e+03	-0.112994	700.0
2698	6.99381e+02	2.69800e+03	-0.112988	700.0
2700	6.99380e+02	2.70000e+03	-0.112974	700.0
2702	6.99384e+02	2.70200e+03	-0.112957	700.0
2704	6.99383e+02	2.70400e+03	-0.112937	700.0
2706	6.99381e+02	2.70600e+03	-0.112922	700.0
2708	6.99386e+02	2.70800e+03	-0.112916	700.0
2710	6.99387e+02	2.71000e+03	-0.112917	700.0
2712	6.99385e+02	2.71200e+03	-0.112925	700.0
2714	6.99378e+02	2.71400e+03	-0.112941	700.0
2716	6.99373e+02	2.71600e+03	-0.11296	700.0
2718	6.99391e+02	2.71800e+03	-0.112977	700.0
2720	6.99385e+02	2.72000e+03	-0.11299	700.0