File: Experiments/TUBS/tga_nonisotherm/tga_dynamic_n2high60_dyn30_piece_3mg_r3.txt
Index	Ts	t	Weight	Tr
[#]	[°C]	[s]	[mg]	[°C]
683	1.30484e+02	6.83000e+02	3.04453	131.5
685	1.31489e+02	6.85000e+02	3.04445	132.5
687	1.32492e+02	6.87000e+02	3.04439	133.5
689	1.33478e+02	6.89000e+02	3.04439	134.5
691	1.34485e+02	6.91000e+02	3.04442	135.5
693	1.35486e+02	6.93000e+02	3.04447	136.5
695	1.36480e+02	6.95000e+02	3.0445	137.5
697	1.37480e+02	6.97000e+02	3.0445	138.5
699	1.38476e+02	6.99000e+02	3.04448	139.5
701	1.39479e+02	7.01000e+02	3.04443	140.5
703	1.40482e+02	7.03000e+02	3.04437	141.5
705	1.41485e+02	7.05000e+02	3.04429	142.5
707	1.42488e+02	7.07000e+02	3.04424	143.5
709	1.43495e+02	7.09000e+02	3.0442	144.5
711	1.44493e+02	7.11000e+02	3.04418	145.5
713	1.45493e+02	7.13000e+02	3.04418	146.5
715	1.46495e+02	7.15000e+02	3.04415	147.5
717	1.47496e+02	7.17000e+02	3.04411	148.5
719	1.48501e+02	7.19000e+02	3.04405	149.5
721	1.49505e+02	7.21000e+02	3.04398	150.5
723	1.50511e+02	7.23000e+02	3.04393	151.5
725	1.51510e+02	7.25000e+02	3.0439	152.5
727	1.52530e+02	7.27000e+02	3.04386	153.5
729	1.53531e+02	7.29000e+02	3.04381	154.5
731	1.54538e+02	7.31000e+02	3.04373	155.5
733	1.55531e+02	7.33000e+02	3.04361	156.5
735	1.56536e+02	7.35000e+02	3.0435	157.5
737	1.57539e+02	7.37000e+02	3.0434	158.5
739	1.58554e+02	7.39000e+02	3.04331	159.5
741	1.59549e+02	7.41000e+02	3.04325	160.5
743	1.60547e+02	7.43000e+02	3.0432	161.5
745	1.61552e+02	7.45000e+02	3.04318	162.5
747	1.62555e+02	7.47000e+02	3.04314	163.5
749	1.63557e+02	7.49000e+02	3.04308	164.5
751	1.64564e+02	7.51000e+02	3.04303	165.5
753	1.65581e+02	7.53000e+02	3.04297	166.5
755	1.66594e+02	7.55000e+02	3.04288	167.5
757	1.67595e+02	7.57000e+02	3.04275	168.5
759	1.68605e+02	7.59000e+02	3.04262	169.5
761	1.69611e+02	7.61000e+02	3.04244	170.5
763	1.70637e+02	7.63000e+02	3.04229	171.5
765	1.71625e+02	7.65000e+02	3.04217	172.5
767	1.72649e+02	7.67000e+02	3.04206	173.5
769	1.73662e+02	7.69000e+02	3.04199	174.5
771	1.74663e+02	7.71000e+02	3.0419	175.5
773	1.75676e+02	7.73000e+02	3.04182	176.5
775	1.76695e+02	7.75000e+02	3.04174	177.5
777	1.77697e+02	7.77000e+02	3.04164	178.5
779	1.78707e+02	7.79000e+02	3.04152	179.5
781	1.79719e+02	7.81000e+02	3.04134	180.5
783	1.80737e+02	7.83000e+02	3.04114	181.5
785	1.81737e+02	7.85000e+02	3.0409	182.5
787	1.82738e+02	7.87000e+02	3.04067	183.5
789	1.83755e+02	7.89000e+02	3.04041	184.5
791	1.84764e+02	7.91000e+02	3.04016	185.5
793	1.85782e+02	7.93000e+02	3.03988	186.5
795	1.86789e+02	7.95000e+02	3.03959	187.5
797	1.87799e+02	7.97000e+02	3.03929	188.5
799	1.88813e+02	7.99000e+02	3.03898	189.5
801	1.89818e+02	8.01000e+02	3.03867	190.5
803	1.90848e+02	8.03000e+02	3.03835	191.5
805	1.91848e+02	8.05000e+02	3.038	192.5
807	1.92875e+02	8.07000e+02	3.03763	193.5
809	1.93872e+02	8.09000e+02	3.03722	194.5
811	1.94901e+02	8.11000e+02	3.0368	195.5
813	1.95919e+02	8.13000e+02	3.03633	196.5
815	1.96933e+02	8.15000e+02	3.03585	197.5
817	1.97943e+02	8.17000e+02	3.03531	198.5
819	1.98961e+02	8.19000e+02	3.03476	199.5
821	1.99973e+02	8.21000e+02	3.03414	200.5
823	2.00987e+02	8.23000e+02	3.0335	201.5
825	2.02014e+02	8.25000e+02	3.03281	202.5
827	2.03032e+02	8.27000e+02	3.03211	203.5
829	2.04045e+02	8.29000e+02	3.03136	204.5
831	2.05058e+02	8.31000e+02	3.0306	205.5
833	2.06067e+02	8.33000e+02	3.02982	206.5
835	2.07081e+02	8.35000e+02	3.02907	207.5
837	2.08099e+02	8.37000e+02	3.02831	208.5
839	2.09101e+02	8.39000e+02	3.02754	209.5
841	2.10103e+02	8.41000e+02	3.02674	210.5
843	2.11111e+02	8.43000e+02	3.02594	211.5
845	2.12117e+02	8.45000e+02	3.02512	212.5
847	2.13114e+02	8.47000e+02	3.02431	213.5
849	2.14136e+02	8.49000e+02	3.02353	214.5
851	2.15142e+02	8.51000e+02	3.02277	215.5
853	2.16147e+02	8.53000e+02	3.02203	216.5
855	2.17158e+02	8.55000e+02	3.02125	217.5
857	2.18168e+02	8.57000e+02	3.02042	218.5
859	2.19177e+02	8.59000e+02	3.01959	219.5
861	2.20200e+02	8.61000e+02	3.01872	220.5
863	2.21194e+02	8.63000e+02	3.01787	221.5
865	2.22214e+02	8.65000e+02	3.01702	222.5
867	2.23225e+02	8.67000e+02	3.01618	223.5
869	2.24237e+02	8.69000e+02	3.01535	224.5
871	2.25248e+02	8.71000e+02	3.01449	225.5
873	2.26255e+02	8.73000e+02	3.0136	226.5
875	2.27253e+02	8.75000e+02	3.0127	227.5
877	2.28285e+02	8.77000e+02	3.01177	228.5
879	2.29299e+02	8.79000e+02	3.01084	229.5
881	2.30306e+02	8.81000e+02	3.00993	230.5
883	2.31308e+02	8.83000e+02	3.00903	231.5
885	2.32333e+02	8.85000e+02	3.00814	232.5
887	2.33339e+02	8.87000e+02	3.00723	233.5
889	2.34343e+02	8.89000e+02	3.00628	234.5
891	2.35356e+02	8.91000e+02	3.00531	235.5
893	2.36383e+02	8.93000e+02	3.00432	236.5
895	2.37387e+02	8.95000e+02	3.00333	237.5
897	2.38410e+02	8.97000e+02	3.00234	238.5
899	2.39429e+02	8.99000e+02	3.00135	239.5
901	2.40421e+02	9.01000e+02	3.00036	240.5
903	2.41443e+02	9.03000e+02	2.99938	241.5
905	2.42457e+02	9.05000e+02	2.9984	242.5
907	2.43469e+02	9.07000e+02	2.9974	243.5
909	2.44487e+02	9.09000e+02	2.9964	244.5
911	2.45501e+02	9.11000e+02	2.99541	245.5
913	2.46525e+02	9.13000e+02	2.99441	246.5
915	2.47545e+02	9.15000e+02	2.9934	247.5
917	2.48566e+02	9.17000e+02	2.9924	248.5
919	2.49584e+02	9.19000e+02	2.99143	249.5
921	2.50605e+02	9.21000e+02	2.9905	250.5
923	2.51613e+02	9.23000e+02	2.98954	251.5
925	2.52648e+02	9.25000e+02	2.98856	252.5
927	2.53663e+02	9.27000e+02	2.98756	253.5
929	2.54680e+02	9.29000e+02	2.98649	254.5
931	2.55709e+02	9.31000e+02	2.98542	255.5
933	2.56733e+02	9.33000e+02	2.98431	256.5
935	2.57762e+02	9.35000e+02	2.9832	257.5
937	2.58779e+02	9.37000e+02	2.98208	258.5
939	2.59813e+02	9.39000e+02	2.98092	259.5
941	2.60836e+02	9.41000e+02	2.97974	260.5
943	2.61866e+02	9.43000e+02	2.97857	261.5
945	2.62901e+02	9.45000e+02	2.97742	262.5
947	2.63921e+02	9.47000e+02	2.97628	263.5
949	2.64941e+02	9.49000e+02	2.97518	264.5
951	2.65962e+02	9.51000e+02	2.9741	265.5
953	2.66989e+02	9.53000e+02	2.97305	266.5
955	2.68040e+02	9.55000e+02	2.97201	267.5
957	2.69076e+02	9.57000e+02	2.97097	268.5
959	2.70149e+02	9.59000e+02	2.9699	269.5
961	2.71253e+02	9.61000e+02	2.9688	270.5
963	2.72382e+02	9.63000e+02	2.96769	271.5
965	2.73394e+02	9.65000e+02	2.96654	272.5
967	2.74418e+02	9.67000e+02	2.96539	273.5
969	2.75429e+02	9.69000e+02	2.96422	274.5
971	2.76472e+02	9.71000e+02	2.96308	275.5
973	2.77499e+02	9.73000e+02	2.96197	276.5
975	2.78533e+02	9.75000e+02	2.96085	277.5
977	2.79575e+02	9.77000e+02	2.95971	278.5
979	2.80634e+02	9.79000e+02	2.95853	279.5
981	2.81672e+02	9.81000e+02	2.95727	280.5
983	2.82729e+02	9.83000e+02	2.95601	281.5
985	2.83770e+02	9.85000e+02	2.95473	282.5
987	2.84836e+02	9.87000e+02	2.95347	283.5
989	2.85852e+02	9.89000e+02	2.95218	284.5
991	2.86856e+02	9.91000e+02	2.95084	285.5
993	2.87880e+02	9.93000e+02	2.94942	286.5
995	2.88916e+02	9.95000e+02	2.94803	287.5
997	2.89958e+02	9.97000e+02	2.94662	288.5
999	2.91033e+02	9.99000e+02	2.94522	289.5
1001	2.92062e+02	1.00100e+03	2.94382	290.5
1003	2.93088e+02	1.00300e+03	2.9424	291.5
1005	2.94093e+02	1.00500e+03	2.94091	292.5
1007	2.95112e+02	1.00700e+03	2.93937	293.5
1009	2.96160e+02	1.00900e+03	2.93774	294.5
1011	2.97145e+02	1.01100e+03	2.9361	295.5
1013	2.98195e+02	1.01300e+03	2.93437	296.5
1015	2.99268e+02	1.01500e+03	2.9326	297.5
1017	3.00253e+02	1.01700e+03	2.93072	298.5
1019	3.01309e+02	1.01900e+03	2.92883	299.5
1021	3.02281e+02	1.02100e+03	2.92684	300.5
1023	3.03284e+02	1.02300e+03	2.92483	301.5
1025	3.04301e+02	1.02500e+03	2.92272	302.5
1027	3.05360e+02	1.02700e+03	2.92057	303.5
1029	3.06408e+02	1.02900e+03	2.91831	304.5
1031	3.07367e+02	1.03100e+03	2.91602	305.5
1033	3.08343e+02	1.03300e+03	2.91364	306.5
1035	3.09294e+02	1.03500e+03	2.91123	307.5
1037	3.10218e+02	1.03700e+03	2.90873	308.5
1039	3.11177e+02	1.03900e+03	2.90618	309.5
1041	3.12155e+02	1.04100e+03	2.90352	310.5
1043	3.13126e+02	1.04300e+03	2.90081	311.5
1045	3.14160e+02	1.04500e+03	2.89798	312.5
1047	3.15193e+02	1.04700e+03	2.89512	313.5
1049	3.16259e+02	1.04900e+03	2.89214	314.5
1051	3.17328e+02	1.05100e+03	2.88914	315.5
1053	3.18394e+02	1.05300e+03	2.88607	316.5
1055	3.19393e+02	1.05500e+03	2.88301	317.5
1057	3.20364e+02	1.05700e+03	2.87993	318.5
1059	3.21381e+02	1.05900e+03	2.87684	319.5
1061	3.22404e+02	1.06100e+03	2.87371	320.5
1063	3.23416e+02	1.06300e+03	2.87058	321.5
1065	3.24410e+02	1.06500e+03	2.86739	322.5
1067	3.25452e+02	1.06700e+03	2.86417	323.5
1069	3.26459e+02	1.06900e+03	2.86087	324.5
1071	3.27471e+02	1.07100e+03	2.85756	325.5
1073	3.28467e+02	1.07300e+03	2.85415	326.5
1075	3.29428e+02	1.07500e+03	2.85069	327.5
1077	3.30416e+02	1.07700e+03	2.84711	328.5
1079	3.31434e+02	1.07900e+03	2.84349	329.5
1081	3.32484e+02	1.08100e+03	2.83974	330.5
1083	3.33534e+02	1.08300e+03	2.83593	331.5
1085	3.34538e+02	1.08500e+03	2.83194	332.5
1087	3.35540e+02	1.08700e+03	2.82787	333.5
1089	3.36544e+02	1.08900e+03	2.82354	334.5
1091	3.37574e+02	1.09100e+03	2.81909	335.5
1093	3.38567e+02	1.09300e+03	2.81428	336.5
1095	3.39562e+02	1.09500e+03	2.80935	337.5
1097	3.40573e+02	1.09700e+03	2.804	338.5
1099	3.41559e+02	1.09900e+03	2.79853	339.5
1101	3.42522e+02	1.10100e+03	2.7926	340.5
1103	3.43499e+02	1.10300e+03	2.78654	341.5
1105	3.44471e+02	1.10500e+03	2.77996	342.5
1107	3.45466e+02	1.10700e+03	2.77318	343.5
1109	3.46468e+02	1.10900e+03	2.76573	344.5
1111	3.47484e+02	1.11100e+03	2.75806	345.5
1113	3.48518e+02	1.11300e+03	2.74956	346.5
1115	3.49495e+02	1.11500e+03	2.74079	347.5
1117	3.50505e+02	1.11700e+03	2.73107	348.5
1119	3.51495e+02	1.11900e+03	2.72108	349.5
1121	3.52475e+02	1.12100e+03	2.71002	350.5
1123	3.53503e+02	1.12300e+03	2.69865	351.5
1125	3.54502e+02	1.12500e+03	2.68606	352.5
1127	3.55492e+02	1.12700e+03	2.6731	353.5
1129	3.56472e+02	1.12900e+03	2.65873	354.5
1131	3.57504e+02	1.13100e+03	2.64389	355.5
1133	3.58477e+02	1.13300e+03	2.62732	356.5
1135	3.59466e+02	1.13500e+03	2.61015	357.5
1137	3.60419e+02	1.13700e+03	2.59086	358.5
1139	3.61378e+02	1.13900e+03	2.57085	359.5
1141	3.62346e+02	1.14100e+03	2.54816	360.5
1143	3.63324e+02	1.14300e+03	2.52451	361.5
1145	3.64319e+02	1.14500e+03	2.49758	362.5
1147	3.65313e+02	1.14700e+03	2.46977	363.5
1149	3.66354e+02	1.14900e+03	2.4386	364.5
1151	3.67366e+02	1.15100e+03	2.40683	365.5
1153	3.68298e+02	1.15300e+03	2.37219	366.5
1155	3.69256e+02	1.15500e+03	2.33715	367.5
1157	3.70223e+02	1.15700e+03	2.2997	368.5
1159	3.71178e+02	1.15900e+03	2.26182	369.5
1161	3.72118e+02	1.16100e+03	2.22175	370.5
1163	3.73055e+02	1.16300e+03	2.1811	371.5
1165	3.74006e+02	1.16500e+03	2.13806	372.5
1167	3.74982e+02	1.16700e+03	2.09436	373.5
1169	3.75930e+02	1.16900e+03	2.04817	374.5
1171	3.76879e+02	1.17100e+03	2.00158	375.5
1173	3.77835e+02	1.17300e+03	1.95282	376.5
1175	3.78779e+02	1.17500e+03	1.9037	377.5
1177	3.79758e+02	1.17700e+03	1.85275	378.5
1179	3.80752e+02	1.17900e+03	1.8016	379.5
1181	3.81715e+02	1.18100e+03	1.74909	380.5
1183	3.82660e+02	1.18300e+03	1.69653	381.5
1185	3.83627e+02	1.18500e+03	1.64329	382.5
1187	3.84582e+02	1.18700e+03	1.59027	383.5
1189	3.85569e+02	1.18900e+03	1.53729	384.5
1191	3.86557e+02	1.19100e+03	1.48448	385.5
1193	3.87541e+02	1.19300e+03	1.43212	386.5
1195	3.88506e+02	1.19500e+03	1.37996	387.5
1197	3.89528e+02	1.19700e+03	1.32833	388.5
1199	3.90540e+02	1.19900e+03	1.27667	389.5
1201	3.91568e+02	1.20100e+03	1.2253	390.5
1203	3.92583e+02	1.20300e+03	1.17407	391.5
1205	3.93578e+02	1.20500e+03	1.12326	392.5
1207	3.94566e+02	1.20700e+03	1.07262	393.5
1209	3.95526e+02	1.20900e+03	1.02232	394.5
1211	3.96534e+02	1.21100e+03	0.971805	395.5
1213	3.97512e+02	1.21300e+03	0.921003	396.5
1215	3.98488e+02	1.21500e+03	0.869958	397.5
1217	3.99464e+02	1.21700e+03	0.818449	398.5
1219	4.00485e+02	1.21900e+03	0.767112	399.5
1221	4.01524e+02	1.22100e+03	0.716043	400.5
1223	4.02568e+02	1.22300e+03	0.665504	401.5
1225	4.03597e+02	1.22500e+03	0.616163	402.5
1227	4.04621e+02	1.22700e+03	0.567547	403.5
1229	4.05616e+02	1.22900e+03	0.521285	404.5
1231	4.06658e+02	1.23100e+03	0.476269	405.5
1233	4.07721e+02	1.23300e+03	0.434938	406.5
1235	4.08783e+02	1.23500e+03	0.39478	407.5
1237	4.09788e+02	1.23700e+03	0.35891	408.5
1239	4.10820e+02	1.23900e+03	0.324107	409.5
1241	4.11830e+02	1.24100e+03	0.29362	410.5
1243	4.12811e+02	1.24300e+03	0.264022	411.5
1245	4.13830e+02	1.24500e+03	0.238439	412.5
1247	4.14863e+02	1.24700e+03	0.213592	413.5
1249	4.15868e+02	1.24900e+03	0.192273	414.5
1251	4.16843e+02	1.25100e+03	0.171559	415.5
1253	4.17866e+02	1.25300e+03	0.153956	416.5
1255	4.18902e+02	1.25500e+03	0.136949	417.5
1257	4.19949e+02	1.25700e+03	0.122717	418.5
1259	4.20935e+02	1.25900e+03	0.108951	419.5
1261	4.21988e+02	1.26100e+03	0.0975632	420.5
1263	4.23036e+02	1.26300e+03	0.0865552	421.5
1265	4.24040e+02	1.26500e+03	0.0775286	422.5
1267	4.25037e+02	1.26700e+03	0.0688053	423.5
1269	4.26000e+02	1.26900e+03	0.0617354	424.5
1271	4.27004e+02	1.27100e+03	0.0549262	425.5
1273	4.27989e+02	1.27300e+03	0.0494657	426.5
1275	4.28991e+02	1.27500e+03	0.0441703	427.5
1277	4.30007e+02	1.27700e+03	0.0399311	428.5
1279	4.31013e+02	1.27900e+03	0.0358374	429.5
1281	4.32008e+02	1.28100e+03	0.0325616	430.5
1283	4.32986e+02	1.28300e+03	0.0293784	431.5
1285	4.33993e+02	1.28500e+03	0.0268358	432.5
1287	4.34986e+02	1.28700e+03	0.0243953	433.5
1289	4.36001e+02	1.28900e+03	0.0224516	434.5
1291	4.36990e+02	1.29100e+03	0.020529	435.5
1293	4.37948e+02	1.29300e+03	0.0189357	436.5
1295	4.38936e+02	1.29500e+03	0.0173877	437.5
1297	4.39948e+02	1.29700e+03	0.0161189	438.5
1299	4.40942e+02	1.29900e+03	0.0149111	439.5
1301	4.41960e+02	1.30100e+03	0.0139505	440.5
1303	4.42949e+02	1.30300e+03	0.0130005	441.5
1305	4.43945e+02	1.30500e+03	0.0121914	442.5
1307	4.44945e+02	1.30700e+03	0.0113765	443.5
1309	4.45881e+02	1.30900e+03	0.0106547	444.5
1311	4.46872e+02	1.31100e+03	0.00997704	445.5
1313	4.47843e+02	1.31300e+03	0.00943409	446.5
1315	4.48816e+02	1.31500e+03	0.00891668	447.5
1317	4.49806e+02	1.31700e+03	0.00849802	448.5
1319	4.50795e+02	1.31900e+03	0.00806289	449.5
1321	4.51800e+02	1.32100e+03	0.00766703	450.5
1323	4.52808e+02	1.32300e+03	0.00729641	451.5
1325	4.53772e+02	1.32500e+03	0.00698604	452.5
1327	4.54705e+02	1.32700e+03	0.00669169	453.5
1329	4.55651e+02	1.32900e+03	0.00648028	454.5
1331	4.56616e+02	1.33100e+03	0.00629901	455.5
1333	4.57606e+02	1.33300e+03	0.00619569	456.5
1335	4.58576e+02	1.33500e+03	0.00609734	457.5
1337	4.59531e+02	1.33700e+03	0.0060612	458.5
1339	4.60486e+02	1.33900e+03	0.00603428	459.5
1341	4.61448e+02	1.34100e+03	0.00603188	460.5
1343	4.62420e+02	1.34300e+03	0.00599522	461.5
1345	4.63402e+02	1.34500e+03	0.00592497	462.5
1347	4.64371e+02	1.34700e+03	0.00584732	463.5
1349	4.65358e+02	1.34900e+03	0.00573832	464.5
1351	4.66318e+02	1.35100e+03	0.00565355	465.5
1353	4.67282e+02	1.35300e+03	0.00561865	466.5
1355	4.68245e+02	1.35500e+03	0.00562265	467.5
1357	4.69214e+02	1.35700e+03	0.00568784	468.5
1359	4.70170e+02	1.35900e+03	0.0057198	469.5
1361	4.71116e+02	1.36100e+03	0.00574667	470.5
1363	4.72083e+02	1.36300e+03	0.00577845	471.5
1365	4.73042e+02	1.36500e+03	0.00579363	472.5
1367	4.74021e+02	1.36700e+03	0.00578642	473.5
1369	4.75011e+02	1.36900e+03	0.0057484	474.5
1371	4.75993e+02	1.37100e+03	0.00571396	475.5
1373	4.76983e+02	1.37300e+03	0.00566836	476.5
1375	4.77968e+02	1.37500e+03	0.00561985	477.5
1377	4.78941e+02	1.37700e+03	0.00556197	478.5
1379	4.79931e+02	1.37900e+03	0.0055029	479.5
1381	4.80904e+02	1.38100e+03	0.00545695	480.5
1383	4.81890e+02	1.38300e+03	0.00542892	481.5
1385	4.82865e+02	1.38500e+03	0.00542333	482.5
1387	4.83873e+02	1.38700e+03	0.00541107	483.5
1389	4.84865e+02	1.38900e+03	0.00541109	484.5
1391	4.85870e+02	1.39100e+03	0.00541233	485.5
1393	4.86857e+02	1.39300e+03	0.00539664	486.5
1395	4.87848e+02	1.39500e+03	0.00534954	487.5
1397	4.88851e+02	1.39700e+03	0.00526651	488.5
1399	4.89842e+02	1.39900e+03	0.00520651	489.5
1401	4.90848e+02	1.40100e+03	0.00516284	490.5
1403	4.91842e+02	1.40300e+03	0.00513496	491.5
1405	4.92824e+02	1.40500e+03	0.00514835	492.5
1407	4.93804e+02	1.40700e+03	0.00516476	493.5
1409	4.94796e+02	1.40900e+03	0.0051871	494.5
1411	4.95806e+02	1.41100e+03	0.00519085	495.5
1413	4.96793e+02	1.41300e+03	0.00518111	496.5
1415	4.97788e+02	1.41500e+03	0.00518645	497.5
1417	4.98775e+02	1.41700e+03	0.0051896	498.5
1419	4.99770e+02	1.41900e+03	0.0051762	499.5
1421	5.00761e+02	1.42100e+03	0.00514494	500.5
1423	5.01749e+02	1.42300e+03	0.00511645	501.5
1425	5.02726e+02	1.42500e+03	0.00508213	502.5
1427	5.03722e+02	1.42700e+03	0.00505759	503.5
1429	5.04730e+02	1.42900e+03	0.00504224	504.5
1431	5.05773e+02	1.43100e+03	0.00502654	505.5
1433	5.06838e+02	1.43300e+03	0.00501645	506.5
1435	5.07886e+02	1.43500e+03	0.0050038	507.5
1437	5.08890e+02	1.43700e+03	0.00498118	508.5
1439	5.09915e+02	1.43900e+03	0.00495087	509.5
1441	5.10952e+02	1.44100e+03	0.00492682	510.5
1443	5.12047e+02	1.44300e+03	0.00492499	511.5
1445	5.13532e+02	1.44500e+03	0.00494724	512.5
1447	5.14430e+02	1.44700e+03	0.00496326	513.5
1449	5.15353e+02	1.44900e+03	0.00499328	514.5
1451	5.16400e+02	1.45100e+03	0.00503436	515.5
1453	5.17398e+02	1.45300e+03	0.00507816	516.5
1455	5.18406e+02	1.45500e+03	0.00509964	517.5
1457	5.19434e+02	1.45700e+03	0.00509021	518.5
1459	5.20396e+02	1.45900e+03	0.0050716	519.5
1461	5.21348e+02	1.46100e+03	0.00501494	520.5
1463	5.22466e+02	1.46300e+03	0.00496342	521.5
1465	5.23478e+02	1.46500e+03	0.0049245	522.5
1467	5.24923e+02	1.46700e+03	0.00491876	523.5
1469	5.24999e+02	1.46900e+03	0.00496217	524.5
1471	5.25778e+02	1.47100e+03	0.00499439	525.5
1473	5.26663e+02	1.47300e+03	0.00502762	526.5
1475	5.27570e+02	1.47500e+03	0.00503929	527.5
1477	5.28512e+02	1.47700e+03	0.00502523	528.5
1479	5.29462e+02	1.47900e+03	0.00501921	529.5
1481	5.30380e+02	1.48100e+03	0.00502906	530.5
1483	5.31334e+02	1.48300e+03	0.00505435	531.5
1485	5.32303e+02	1.48500e+03	0.00510225	532.5
1487	5.33278e+02	1.48700e+03	0.00512719	533.5
1489	5.34261e+02	1.48900e+03	0.00512145	534.5
1491	5.35231e+02	1.49100e+03	0.00510643	535.5
1493	5.36213e+02	1.49300e+03	0.00507159	536.5
1495	5.37179e+02	1.49500e+03	0.00504764	537.5
1497	5.38145e+02	1.49700e+03	0.00500887	538.5
1499	5.39108e+02	1.49900e+03	0.00495607	539.5
1501	5.40089e+02	1.50100e+03	0.00490688	540.5
1503	5.41054e+02	1.50300e+03	0.00489551	541.5
1505	5.42024e+02	1.50500e+03	0.00491882	542.5
1507	5.43002e+02	1.50700e+03	0.0049195	543.5
1509	5.43986e+02	1.50900e+03	0.00491433	544.5
1511	5.44972e+02	1.51100e+03	0.00491695	545.5
1513	5.45950e+02	1.51300e+03	0.00490967	546.5
1515	5.46935e+02	1.51500e+03	0.00488997	547.5
1517	5.47915e+02	1.51700e+03	0.00485633	548.5
1519	5.48885e+02	1.51900e+03	0.0048288	549.5
1521	5.49877e+02	1.52100e+03	0.00480142	550.5
1523	5.50865e+02	1.52300e+03	0.0047831	551.5
1525	5.51837e+02	1.52500e+03	0.00479104	552.5
1527	5.52824e+02	1.52700e+03	0.00480312	553.5
1529	5.53781e+02	1.52900e+03	0.00482021	554.5
1531	5.54766e+02	1.53100e+03	0.00482343	555.5
1533	5.55736e+02	1.53300e+03	0.00482903	556.5
1535	5.56699e+02	1.53500e+03	0.00486223	557.5
1537	5.57659e+02	1.53700e+03	0.00492542	558.5
1539	5.58626e+02	1.53900e+03	0.00497712	559.5
1541	5.59604e+02	1.54100e+03	0.00502972	560.5
1543	5.60572e+02	1.54300e+03	0.00506748	561.5
1545	5.61559e+02	1.54500e+03	0.00507005	562.5
1547	5.62533e+02	1.54700e+03	0.00504991	563.5
1549	5.63490e+02	1.54900e+03	0.00499352	564.5
1551	5.64462e+02	1.55100e+03	0.00495497	565.5
1553	5.65426e+02	1.55300e+03	0.00493235	566.5
1555	5.66391e+02	1.55500e+03	0.00492222	567.5
1557	5.67367e+02	1.55700e+03	0.00493931	568.5
1559	5.68336e+02	1.55900e+03	0.00495085	569.5
1561	5.69313e+02	1.56100e+03	0.00495836	570.5
1563	5.70289e+02	1.56300e+03	0.00495419	571.5
1565	5.71281e+02	1.56500e+03	0.00493934	572.5
1567	5.72260e+02	1.56700e+03	0.00493741	573.5
1569	5.73236e+02	1.56900e+03	0.00495254	574.5
1571	5.74211e+02	1.57100e+03	0.00497056	575.5
1573	5.75197e+02	1.57300e+03	0.00498491	576.5
1575	5.76218e+02	1.57500e+03	0.00497708	577.5
1577	5.77234e+02	1.57700e+03	0.00493695	578.5
1579	5.78247e+02	1.57900e+03	0.00490428	579.5
1581	5.79239e+02	1.58100e+03	0.00487474	580.5
1583	5.80225e+02	1.58300e+03	0.00486112	581.5
1585	5.81254e+02	1.58500e+03	0.00487904	582.5
1587	5.82268e+02	1.58700e+03	0.00489722	583.5
1589	5.83276e+02	1.58900e+03	0.00490613	584.5
1591	5.84292e+02	1.59100e+03	0.00487733	585.5
1593	5.85289e+02	1.59300e+03	0.00483393	586.5
1595	5.86299e+02	1.59500e+03	0.00482646	587.5
1597	5.87287e+02	1.59700e+03	0.00486001	588.5
1599	5.88339e+02	1.59900e+03	0.00489379	589.5
1601	5.89326e+02	1.60100e+03	0.0049601	590.5
1603	5.90310e+02	1.60300e+03	0.0050229	591.5
1605	5.91255e+02	1.60500e+03	0.00507713	592.5
1607	5.92247e+02	1.60700e+03	0.00510774	593.5
1609	5.93245e+02	1.60900e+03	0.0051121	594.5
1611	5.94225e+02	1.61100e+03	0.00512775	595.5
1613	5.95233e+02	1.61300e+03	0.00513823	596.5
1615	5.96227e+02	1.61500e+03	0.00513884	597.5
1617	5.97214e+02	1.61700e+03	0.0051461	598.5
1619	5.98214e+02	1.61900e+03	0.00517316	599.5
1621	5.99190e+02	1.62100e+03	0.00522399	600.5
1623	6.00172e+02	1.62300e+03	0.00526321	601.5
1625	6.01168e+02	1.62500e+03	0.0052905	602.5
1627	6.02144e+02	1.62700e+03	0.00528667	603.5
1629	6.03140e+02	1.62900e+03	0.00521848	604.5
1631	6.04143e+02	1.63100e+03	0.00513955	605.5
1633	6.05118e+02	1.63300e+03	0.00504797	606.5
1635	6.06111e+02	1.63500e+03	0.00499678	607.5
1637	6.07120e+02	1.63700e+03	0.00498474	608.5
1639	6.08109e+02	1.63900e+03	0.00496525	609.5
1641	6.09185e+02	1.64100e+03	0.00496382	610.5
1643	6.10271e+02	1.64300e+03	0.00497085	611.5
1645	6.11279e+02	1.64500e+03	0.00498988	612.5
1647	6.12256e+02	1.64700e+03	0.00498831	613.5
1649	6.13237e+02	1.64900e+03	0.00496651	614.5
1651	6.14248e+02	1.65100e+03	0.00495073	615.5
1653	6.15266e+02	1.65300e+03	0.0049306	616.5
1655	6.16282e+02	1.65500e+03	0.00492569	617.5
1657	6.17299e+02	1.65700e+03	0.00493658	618.5
1659	6.18322e+02	1.65900e+03	0.00493811	619.5
1661	6.19301e+02	1.66100e+03	0.00494509	620.5
1663	6.20289e+02	1.66300e+03	0.00496139	621.5
1665	6.21277e+02	1.66500e+03	0.00498594	622.5
1667	6.22302e+02	1.66700e+03	0.00500977	623.5
1669	6.23339e+02	1.66900e+03	0.00504631	624.5
1671	6.24373e+02	1.67100e+03	0.00509188	625.5
1673	6.25412e+02	1.67300e+03	0.00513795	626.5
1675	6.26431e+02	1.67500e+03	0.00515725	627.5
1677	6.27414e+02	1.67700e+03	0.00513292	628.5
1679	6.28428e+02	1.67900e+03	0.00510047	629.5
1681	6.29431e+02	1.68100e+03	0.00502771	630.5
1683	6.30436e+02	1.68300e+03	0.00496376	631.5
1685	6.31415e+02	1.68500e+03	0.00493399	632.5
1687	6.32449e+02	1.68700e+03	0.00494	633.5
1689	6.33446e+02	1.68900e+03	0.00498022	634.5
1691	6.34484e+02	1.69100e+03	0.00498292	635.5
1693	6.35473e+02	1.69300e+03	0.00498689	636.5
1695	6.36378e+02	1.69500e+03	0.0050256	637.5
1697	6.37336e+02	1.69700e+03	0.00508261	638.5
1699	6.38283e+02	1.69900e+03	0.00511355	639.5
1701	6.39231e+02	1.70100e+03	0.00513274	640.5
1703	6.40200e+02	1.70300e+03	0.00515973	641.5
1705	6.41149e+02	1.70500e+03	0.00518512	642.5
1707	6.42104e+02	1.70700e+03	0.0052101	643.5
1709	6.43077e+02	1.70900e+03	0.00522703	644.5
1711	6.44049e+02	1.71100e+03	0.00523133	645.5
1713	6.45022e+02	1.71300e+03	0.00521135	646.5
1715	6.46002e+02	1.71500e+03	0.00518867	647.5
1717	6.46999e+02	1.71700e+03	0.00516336	648.5
1719	6.47985e+02	1.71900e+03	0.00516013	649.5
1721	6.48965e+02	1.72100e+03	0.00517108	650.5
1723	6.49955e+02	1.72300e+03	0.00517016	651.5
1725	6.50950e+02	1.72500e+03	0.00516466	652.5
1727	6.51926e+02	1.72700e+03	0.00515305	653.5
1729	6.52914e+02	1.72900e+03	0.00511955	654.5
1731	6.53895e+02	1.73100e+03	0.00506758	655.5
1733	6.54890e+02	1.73300e+03	0.00497597	656.5
1735	6.55884e+02	1.73500e+03	0.004895	657.5
1737	6.56886e+02	1.73700e+03	0.00484151	658.5
1739	6.57870e+02	1.73900e+03	0.00483059	659.5
1741	6.58852e+02	1.74100e+03	0.00488035	660.5
1743	6.59836e+02	1.74300e+03	0.00490843	661.5
1745	6.60818e+02	1.74500e+03	0.00495119	662.5
1747	6.61781e+02	1.74700e+03	0.0049937	663.5
1749	6.62744e+02	1.74900e+03	0.00502486	664.5
1751	6.63718e+02	1.75100e+03	0.00503606	665.5
1753	6.64692e+02	1.75300e+03	0.00503356	666.5
1755	6.65669e+02	1.75500e+03	0.00504959	667.5
1757	6.66642e+02	1.75700e+03	0.00507132	668.5
1759	6.67622e+02	1.75900e+03	0.00508133	669.5
1761	6.68609e+02	1.76100e+03	0.00509067	670.5
1763	6.69610e+02	1.76300e+03	0.00510009	671.5
1765	6.70591e+02	1.76500e+03	0.00508644	672.5
1767	6.71576e+02	1.76700e+03	0.00506027	673.5
1769	6.72580e+02	1.76900e+03	0.00502827	674.5
1771	6.73580e+02	1.77100e+03	0.00502864	675.5
1773	6.74577e+02	1.77300e+03	0.00505437	676.5
1775	6.75564e+02	1.77500e+03	0.00505585	677.5
1777	6.76570e+02	1.77700e+03	0.00503631	678.5
1779	6.77564e+02	1.77900e+03	0.00501052	679.5
1781	6.78568e+02	1.78100e+03	0.0049604	680.5
1783	6.79561e+02	1.78300e+03	0.00491161	681.5
1785	6.80567e+02	1.78500e+03	0.00488009	682.5
1787	6.81570e+02	1.78700e+03	0.00487109	683.5
1789	6.82590e+02	1.78900e+03	0.00489705	684.5
1791	6.83598e+02	1.79100e+03	0.00491739	685.5
1793	6.84618e+02	1.79300e+03	0.00497777	686.5
1795	6.85284e+02	1.79500e+03	0.00505418	687.5
1797	6.85777e+02	1.79700e+03	0.00515211	688.5
1799	6.86531e+02	1.79900e+03	0.00521862	689.5
1801	6.87274e+02	1.80100e+03	0.00525793	690.5
1803	6.87955e+02	1.80300e+03	0.00528737	691.5
1805	6.88629e+02	1.80500e+03	0.00529427	692.5
1807	6.89211e+02	1.80700e+03	0.00530216	693.5
1809	6.89793e+02	1.80900e+03	0.00530381	694.5
1811	6.90308e+02	1.81100e+03	0.00530804	695.5
1813	6.90793e+02	1.81300e+03	0.00529929	696.5
1815	6.91233e+02	1.81500e+03	0.00527178	697.5
1817	6.91711e+02	1.81700e+03	0.00519455	698.5
1819	6.92111e+02	1.81900e+03	0.00511216	699.5
1821	6.92495e+02	1.82100e+03	0.00501532	700.0
1823	6.92870e+02	1.82300e+03	0.00494523	700.0
1825	6.93197e+02	1.82500e+03	0.00491681	700.0
1827	6.93531e+02	1.82700e+03	0.00489913	700.0
1829	6.93831e+02	1.82900e+03	0.00489894	700.0
1831	6.94082e+02	1.83100e+03	0.00488634	700.0
1833	6.94307e+02	1.83300e+03	0.00486452	700.0
1835	6.94561e+02	1.83500e+03	0.00484712	700.0
1837	6.94786e+02	1.83700e+03	0.00484448	700.0
1839	6.95003e+02	1.83900e+03	0.00485242	700.0
1841	6.95216e+02	1.84100e+03	0.00486924	700.0
1843	6.95424e+02	1.84300e+03	0.00488183	700.0
1845	6.95607e+02	1.84500e+03	0.00490259	700.0
1847	6.95773e+02	1.84700e+03	0.00494636	700.0
1849	6.95948e+02	1.84900e+03	0.00501603	700.0
1851	6.96104e+02	1.85100e+03	0.00506271	700.0
1853	6.96264e+02	1.85300e+03	0.00507836	700.0
1855	6.96404e+02	1.85500e+03	0.00507901	700.0
1857	6.96544e+02	1.85700e+03	0.0050423	700.0
1859	6.96673e+02	1.85900e+03	0.00501538	700.0
1861	6.96812e+02	1.86100e+03	0.00498667	700.0
1863	6.96933e+02	1.86300e+03	0.00496507	700.0
1865	6.97054e+02	1.86500e+03	0.00493808	700.0
1867	6.97172e+02	1.86700e+03	0.00489841	700.0
1869	6.97284e+02	1.86900e+03	0.00485296	700.0
1871	6.97381e+02	1.87100e+03	0.00482051	700.0
1873	6.97472e+02	1.87300e+03	0.00478767	700.0
1875	6.97550e+02	1.87500e+03	0.00473803	700.0
1877	6.97629e+02	1.87700e+03	0.00469124	700.0
1879	6.97697e+02	1.87900e+03	0.00468157	700.0
1881	6.97769e+02	1.88100e+03	0.00473313	700.0
1883	6.97852e+02	1.88300e+03	0.00480397	700.0
1885	6.97908e+02	1.88500e+03	0.00492335	700.0
1887	6.97987e+02	1.88700e+03	0.00500726	700.0
1889	6.98043e+02	1.88900e+03	0.0050426	700.0
1891	6.98103e+02	1.89100e+03	0.00505217	700.0
1893	6.98157e+02	1.89300e+03	0.0050005	700.0
1895	6.98213e+02	1.89500e+03	0.00495949	700.0
1897	6.98261e+02	1.89700e+03	0.00490251	700.0
1899	6.98299e+02	1.89900e+03	0.00484189	700.0
1901	6.98352e+02	1.90100e+03	0.0047866	700.0
1903	6.98388e+02	1.90300e+03	0.00474457	700.0
1905	6.98422e+02	1.90500e+03	0.00473174	700.0
1907	6.98459e+02	1.90700e+03	0.00473155	700.0
1909	6.98494e+02	1.90900e+03	0.0047709	700.0
1911	6.98531e+02	1.91100e+03	0.0048184	700.0
1913	6.98554e+02	1.91300e+03	0.00488386	700.0
1915	6.98586e+02	1.91500e+03	0.00492297	700.0
1917	6.98619e+02	1.91700e+03	0.00491755	700.0
1919	6.98650e+02	1.91900e+03	0.00489831	700.0
1921	6.98673e+02	1.92100e+03	0.0048471	700.0
1923	6.98695e+02	1.92300e+03	0.00482529	700.0
1925	6.98720e+02	1.92500e+03	0.00483638	700.0
1927	6.98742e+02	1.92700e+03	0.00486154	700.0
1929	6.98779e+02	1.92900e+03	0.00493779	700.0
1931	6.98799e+02	1.93100e+03	0.00501453	700.0
1933	6.98810e+02	1.93300e+03	0.00510493	700.0
1935	6.98830e+02	1.93500e+03	0.00516792	700.0
1937	6.98851e+02	1.93700e+03	0.00519084	700.0
1939	6.98871e+02	1.93900e+03	0.00520499	700.0
1941	6.98880e+02	1.94100e+03	0.00518086	700.0
1943	6.98892e+02	1.94300e+03	0.00515556	700.0
1945	6.98911e+02	1.94500e+03	0.00511249	700.0
1947	6.98914e+02	1.94700e+03	0.0050767	700.0
1949	6.98930e+02	1.94900e+03	0.00504115	700.0
1951	6.98940e+02	1.95100e+03	0.00499385	700.0
1953	6.98951e+02	1.95300e+03	0.00491735	700.0
1955	6.98964e+02	1.95500e+03	0.00484663	700.0
1957	6.98982e+02	1.95700e+03	0.00477205	700.0
1959	6.98989e+02	1.95900e+03	0.00473072	700.0
1961	6.99006e+02	1.96100e+03	0.0047681	700.0
1963	6.99007e+02	1.96300e+03	0.00481607	700.0
1965	6.99020e+02	1.96500e+03	0.00490207	700.0
1967	6.99025e+02	1.96700e+03	0.0049438	700.0
1969	6.99031e+02	1.96900e+03	0.00493485	700.0
1971	6.99029e+02	1.97100e+03	0.00492328	700.0
1973	6.99042e+02	1.97300e+03	0.00489556	700.0
1975	6.99042e+02	1.97500e+03	0.00488465	700.0
1977	6.99054e+02	1.97700e+03	0.00488147	700.0
1979	6.99055e+02	1.97900e+03	0.00485771	700.0
1981	6.99060e+02	1.98100e+03	0.0048049	700.0
1983	6.99067e+02	1.98300e+03	0.00475413	700.0
1985	6.99085e+02	1.98500e+03	0.00470334	700.0
1987	6.99074e+02	1.98700e+03	0.00467154	700.0
1989	6.99095e+02	1.98900e+03	0.00468562	700.0
1991	6.99086e+02	1.99100e+03	0.00470297	700.0
1993	6.99097e+02	1.99300e+03	0.00473637	700.0
1995	6.99102e+02	1.99500e+03	0.00475785	700.0
1997	6.99109e+02	1.99700e+03	0.00476696	700.0
1999	6.99114e+02	1.99900e+03	0.00478913	700.0
2001	6.99106e+02	2.00100e+03	0.00481531	700.0
2003	6.99111e+02	2.00300e+03	0.00483731	700.0
2005	6.99126e+02	2.00500e+03	0.00485116	700.0
2007	6.99118e+02	2.00700e+03	0.00485623	700.0
2009	6.99131e+02	2.00900e+03	0.00482554	700.0
2011	6.99129e+02	2.01100e+03	0.00479102	700.0
2013	6.99125e+02	2.01300e+03	0.00476208	700.0
2015	6.99136e+02	2.01500e+03	0.004765	700.0
2017	6.99131e+02	2.01700e+03	0.00480303	700.0
2019	6.99139e+02	2.01900e+03	0.00482736	700.0
2021	6.99146e+02	2.02100e+03	0.00485683	700.0
2023	6.99139e+02	2.02300e+03	0.00489189	700.0
2025	6.99143e+02	2.02500e+03	0.00491195	700.0
2027	6.99144e+02	2.02700e+03	0.00491595	700.0
2029	6.99138e+02	2.02900e+03	0.00489779	700.0
2031	6.99142e+02	2.03100e+03	0.00489405	700.0
2033	6.99143e+02	2.03300e+03	0.00488885	700.0
2035	6.99136e+02	2.03500e+03	0.00488295	700.0
2037	6.99138e+02	2.03700e+03	0.00487662	700.0
2039	6.99130e+02	2.03900e+03	0.0048784	700.0
2041	6.99140e+02	2.04100e+03	0.00489217	700.0
2043	6.99128e+02	2.04300e+03	0.00490801	700.0
2045	6.99133e+02	2.04500e+03	0.00493251	700.0
2047	6.99129e+02	2.04700e+03	0.00494067	700.0
2049	6.99132e+02	2.04900e+03	0.0049239	700.0
2051	6.99135e+02	2.05100e+03	0.00490254	700.0
2053	6.99129e+02	2.05300e+03	0.00486557	700.0
2055	6.99124e+02	2.05500e+03	0.00483543	700.0
2057	6.99125e+02	2.05700e+03	0.00479148	700.0
2059	6.99124e+02	2.05900e+03	0.0047352	700.0
2061	6.99114e+02	2.06100e+03	0.00467472	700.0
2063	6.99124e+02	2.06300e+03	0.00464385	700.0
2065	6.99122e+02	2.06500e+03	0.0046467	700.0
2067	6.99120e+02	2.06700e+03	0.00465065	700.0
2069	6.99111e+02	2.06900e+03	0.00467197	700.0
2071	6.99112e+02	2.07100e+03	0.00468118	700.0
2073	6.99107e+02	2.07300e+03	0.00468291	700.0
2075	6.99111e+02	2.07500e+03	0.00469557	700.0
2077	6.99100e+02	2.07700e+03	0.00471423	700.0
2079	6.99113e+02	2.07900e+03	0.00472655	700.0
2081	6.99100e+02	2.08100e+03	0.00473466	700.0
2083	6.99100e+02	2.08300e+03	0.00472572	700.0
2085	6.99095e+02	2.08500e+03	0.00469426	700.0
2087	6.99092e+02	2.08700e+03	0.0046645	700.0
2089	6.99102e+02	2.08900e+03	0.0046318	700.0
2091	6.99098e+02	2.09100e+03	0.00460883	700.0
2093	6.99086e+02	2.09300e+03	0.00459905	700.0
2095	6.99090e+02	2.09500e+03	0.0045872	700.0
2097	6.99089e+02	2.09700e+03	0.00457638	700.0
2099	6.99086e+02	2.09900e+03	0.00456117	700.0
2101	6.99083e+02	2.10100e+03	0.00454449	700.0
2103	6.99075e+02	2.10300e+03	0.00454427	700.0
2105	6.99088e+02	2.10500e+03	0.00457452	700.0
2107	6.99085e+02	2.10700e+03	0.00462312	700.0
2109	6.99079e+02	2.10900e+03	0.00469914	700.0
2111	6.99073e+02	2.11100e+03	0.00475647	700.0
2113	6.99072e+02	2.11300e+03	0.00480374	700.0
2115	6.99071e+02	2.11500e+03	0.00485025	700.0
2117	6.99077e+02	2.11700e+03	0.00486177	700.0
2119	6.99066e+02	2.11900e+03	0.00484769	700.0
2121	6.99064e+02	2.12100e+03	0.00479844	700.0
2123	6.99052e+02	2.12300e+03	0.00476977	700.0
2125	6.99060e+02	2.12500e+03	0.00474085	700.0
2127	6.99059e+02	2.12700e+03	0.00471496	700.0
2129	6.99062e+02	2.12900e+03	0.00469061	700.0
2131	6.99042e+02	2.13100e+03	0.00465746	700.0
2133	6.99050e+02	2.13300e+03	0.0046131	700.0
2135	6.99054e+02	2.13500e+03	0.00457299	700.0
2137	6.99052e+02	2.13700e+03	0.00453905	700.0
2139	6.99050e+02	2.13900e+03	0.00451612	700.0
2141	6.99038e+02	2.14100e+03	0.00452581	700.0
2143	6.99035e+02	2.14300e+03	0.00453568	700.0
2145	6.99041e+02	2.14500e+03	0.00455754	700.0
2147	6.99045e+02	2.14700e+03	0.00457591	700.0
2149	6.99034e+02	2.14900e+03	0.00458686	700.0
2151	6.99042e+02	2.15100e+03	0.00460104	700.0
2153	6.99030e+02	2.15300e+03	0.00462019	700.0
2155	6.99037e+02	2.15500e+03	0.00463794	700.0
2157	6.99026e+02	2.15700e+03	0.00465786	700.0
2159	6.99034e+02	2.15900e+03	0.00468163	700.0
2161	6.99019e+02	2.16100e+03	0.00471457	700.0
2163	6.99025e+02	2.16300e+03	0.00474755	700.0
2165	6.99024e+02	2.16500e+03	0.00478277	700.0
2167	6.99017e+02	2.16700e+03	0.00482081	700.0
2169	6.99021e+02	2.16900e+03	0.004846	700.0
2171	6.99021e+02	2.17100e+03	0.00486176	700.0
2173	6.99016e+02	2.17300e+03	0.0048562	700.0
2175	6.99009e+02	2.17500e+03	0.00484597	700.0
2177	6.99004e+02	2.17700e+03	0.00479848	700.0
2179	6.99011e+02	2.17900e+03	0.00474467	700.0
2181	6.99014e+02	2.18100e+03	0.00468249	700.0
2183	6.99011e+02	2.18300e+03	0.00464238	700.0
2185	6.98999e+02	2.18500e+03	0.00462128	700.0
2187	6.98995e+02	2.18700e+03	0.00459731	700.0
2189	6.99000e+02	2.18900e+03	0.00458751	700.0
2191	6.98995e+02	2.19100e+03	0.00458378	700.0
2193	6.98997e+02	2.19300e+03	0.00458097	700.0
2195	6.98993e+02	2.19500e+03	0.00457341	700.0
2197	6.98990e+02	2.19700e+03	0.00458031	700.0
2199	6.98986e+02	2.19900e+03	0.0046099	700.0
2201	6.98987e+02	2.20100e+03	0.0046546	700.0
2203	6.98984e+02	2.20300e+03	0.00467968	700.0
2205	6.98979e+02	2.20500e+03	0.00468724	700.0
2207	6.98975e+02	2.20700e+03	0.00469486	700.0
2209	6.98981e+02	2.20900e+03	0.00469352	700.0
2211	6.98981e+02	2.21100e+03	0.00468496	700.0
2213	6.98982e+02	2.21300e+03	0.00466915	700.0
2215	6.98975e+02	2.21500e+03	0.00464953	700.0
2217	6.98972e+02	2.21700e+03	0.00461519	700.0
2219	6.98979e+02	2.21900e+03	0.00458186	700.0
2221	6.98973e+02	2.22100e+03	0.00455139	700.0
2223	6.98982e+02	2.22300e+03	0.00454208	700.0
2225	6.98974e+02	2.22500e+03	0.0045471	700.0
2227	6.98969e+02	2.22700e+03	0.00453556	700.0
2229	6.98969e+02	2.22900e+03	0.00451965	700.0
2231	6.98967e+02	2.23100e+03	0.00449865	700.0
2233	6.98960e+02	2.23300e+03	0.00446289	700.0
2235	6.98963e+02	2.23500e+03	0.00442596	700.0
2237	6.98955e+02	2.23700e+03	0.0043882	700.0
2239	6.98950e+02	2.23900e+03	0.00437002	700.0
2241	6.98954e+02	2.24100e+03	0.00438125	700.0
2243	6.98950e+02	2.24300e+03	0.00438928	700.0
2245	6.98951e+02	2.24500e+03	0.00440774	700.0
2247	6.98947e+02	2.24700e+03	0.00441049	700.0
2249	6.98946e+02	2.24900e+03	0.00440125	700.0
2251	6.98942e+02	2.25100e+03	0.00440143	700.0
2253	6.98937e+02	2.25300e+03	0.00441053	700.0
2255	6.98946e+02	2.25500e+03	0.00441944	700.0
2257	6.98946e+02	2.25700e+03	0.0044279	700.0
2259	6.98938e+02	2.25900e+03	0.00442887	700.0
2261	6.98941e+02	2.26100e+03	0.00441973	700.0
2263	6.98932e+02	2.26300e+03	0.00442445	700.0
2265	6.98936e+02	2.26500e+03	0.00443877	700.0
2267	6.98932e+02	2.26700e+03	0.00445328	700.0
2269	6.98938e+02	2.26900e+03	0.0044722	700.0
2271	6.98926e+02	2.27100e+03	0.00448236	700.0
2273	6.98928e+02	2.27300e+03	0.00448264	700.0
2275	6.98929e+02	2.27500e+03	0.00448481	700.0
2277	6.98919e+02	2.27700e+03	0.0044821	700.0
2279	6.98925e+02	2.27900e+03	0.00447611	700.0
2281	6.98922e+02	2.28100e+03	0.00446089	700.0
2283	6.98925e+02	2.28300e+03	0.00444432	700.0
2285	6.98915e+02	2.28500e+03	0.00442388	700.0
2287	6.98926e+02	2.28700e+03	0.00440755	700.0
2289	6.98910e+02	2.28900e+03	0.00440683	700.0
2291	6.98911e+02	2.29100e+03	0.00442307	700.0
2293	6.98905e+02	2.29300e+03	0.00445389	700.0
2295	6.98907e+02	2.29500e+03	0.00445825	700.0
2297	6.98905e+02	2.29700e+03	0.00444068	700.0
2299	6.98908e+02	2.29900e+03	0.00440713	700.0
2301	6.98899e+02	2.30100e+03	0.00435556	700.0
2303	6.98900e+02	2.30300e+03	0.00432146	700.0
2305	6.98910e+02	2.30500e+03	0.00430352	700.0
2307	6.98902e+02	2.30700e+03	0.00428965	700.0
2309	6.98899e+02	2.30900e+03	0.00430404	700.0
2311	6.98889e+02	2.31100e+03	0.00432837	700.0
2313	6.98902e+02	2.31300e+03	0.00437009	700.0
2315	6.98897e+02	2.31500e+03	0.0044101	700.0
2317	6.98894e+02	2.31700e+03	0.00445074	700.0
2319	6.98889e+02	2.31900e+03	0.00447627	700.0
2321	6.98896e+02	2.32100e+03	0.0044646	700.0
2323	6.98888e+02	2.32300e+03	0.00443997	700.0
2325	6.98884e+02	2.32500e+03	0.00438138	700.0
2327	6.98887e+02	2.32700e+03	0.00432915	700.0
2329	6.98889e+02	2.32900e+03	0.00428103	700.0
2331	6.98892e+02	2.33100e+03	0.00423982	700.0
2333	6.98887e+02	2.33300e+03	0.00421242	700.0
2335	6.98882e+02	2.33500e+03	0.00419134	700.0
2337	6.98880e+02	2.33700e+03	0.00418383	700.0
2339	6.98873e+02	2.33900e+03	0.00418259	700.0
2341	6.98874e+02	2.34100e+03	0.00419496	700.0
2343	6.98878e+02	2.34300e+03	0.00421854	700.0
2345	6.98875e+02	2.34500e+03	0.00424012	700.0
2347	6.98870e+02	2.34700e+03	0.00424756	700.0
2349	6.98867e+02	2.34900e+03	0.00424462	700.0
2351	6.98872e+02	2.35100e+03	0.00425282	700.0
2353	6.98866e+02	2.35300e+03	0.0042797	700.0
2355	6.98875e+02	2.35500e+03	0.00430057	700.0
2357	6.98870e+02	2.35700e+03	0.00432772	700.0
2359	6.98865e+02	2.35900e+03	0.00433345	700.0
2361	6.98866e+02	2.36100e+03	0.00430464	700.0
2363	6.98865e+02	2.36300e+03	0.00426609	700.0
2365	6.98861e+02	2.36500e+03	0.00418944	700.0
2367	6.98860e+02	2.36700e+03	0.00412902	700.0
2369	6.98868e+02	2.36900e+03	0.00408074	700.0
2371	6.98872e+02	2.37100e+03	0.00405425	700.0
2373	6.98859e+02	2.37300e+03	0.00407064	700.0
2375	6.98846e+02	2.37500e+03	0.00408754	700.0
2377	6.98848e+02	2.37700e+03	0.0041181	700.0
2379	6.98856e+02	2.37900e+03	0.00413079	700.0
2381	6.98852e+02	2.38100e+03	0.00411392	700.0
2383	6.98857e+02	2.38300e+03	0.00408623	700.0
2385	6.98859e+02	2.38500e+03	0.00403039	700.0
2387	6.98856e+02	2.38700e+03	0.0039887	700.0
2389	6.98857e+02	2.38900e+03	0.00397757	700.0
2391	6.98861e+02	2.39100e+03	0.00399407	700.0
2393	6.98855e+02	2.39300e+03	0.00405924	700.0
2395	6.98852e+02	2.39500e+03	0.00409276	700.0
2397	6.98860e+02	2.39700e+03	0.00410999	700.0
2399	6.98850e+02	2.39900e+03	0.00412225	700.0
2401	6.98841e+02	2.40100e+03	0.00411115	700.0
2403	6.98843e+02	2.40300e+03	0.00409018	700.0
2405	6.98844e+02	2.40500e+03	0.00403575	700.0
2407	6.98848e+02	2.40700e+03	0.0039709	700.0
2409	6.98843e+02	2.40900e+03	0.00389984	700.0
2411	6.98843e+02	2.41100e+03	0.00386081	700.0
2413	6.98851e+02	2.41300e+03	0.00385855	700.0
2415	6.98841e+02	2.41500e+03	0.00385581	700.0
2417	6.98845e+02	2.41700e+03	0.00388871	700.0
2419	6.98837e+02	2.41900e+03	0.003943	700.0
2421	6.98839e+02	2.42100e+03	0.00402366	700.0
2423	6.98831e+02	2.42300e+03	0.0040774	700.0
2425	6.98834e+02	2.42500e+03	0.00409591	700.0
2427	6.98837e+02	2.42700e+03	0.00410027	700.0
2429	6.98838e+02	2.42900e+03	0.00407159	700.0
2431	6.98834e+02	2.43100e+03	0.00405835	700.0
2433	6.98837e+02	2.43300e+03	0.00407457	700.0
2435	6.98834e+02	2.43500e+03	0.00410415	700.0
2437	6.98830e+02	2.43700e+03	0.00413858	700.0
2439	6.98832e+02	2.43900e+03	0.00413185	700.0
2441	6.98834e+02	2.44100e+03	0.00408283	700.0
2443	6.98840e+02	2.44300e+03	0.0040543	700.0
2445	6.98829e+02	2.44500e+03	0.00403972	700.0
2447	6.98831e+02	2.44700e+03	0.00404608	700.0
2449	6.98817e+02	2.44900e+03	0.00409767	700.0
2451	6.98821e+02	2.45100e+03	0.0041444	700.0
2453	6.98826e+02	2.45300e+03	0.00418167	700.0
2455	6.98818e+02	2.45500e+03	0.00419734	700.0
2457	6.98830e+02	2.45700e+03	0.0041878	700.0
2459	6.98828e+02	2.45900e+03	0.00419946	700.0
2461	6.98821e+02	2.46100e+03	0.00421407	700.0
2463	6.98819e+02	2.46300e+03	0.00421259	700.0
2465	6.98821e+02	2.46500e+03	0.00420097	700.0
2467	6.98817e+02	2.46700e+03	0.0041956	700.0
2469	6.98818e+02	2.46900e+03	0.00417559	700.0
2471	6.98818e+02	2.47100e+03	0.00415581	700.0
2473	6.98816e+02	2.47300e+03	0.00413407	700.0
2475	6.98821e+02	2.47500e+03	0.00411562	700.0
2477	6.98822e+02	2.47700e+03	0.00410303	700.0
2479	6.98823e+02	2.47900e+03	0.00409304	700.0
2481	6.98824e+02	2.48100e+03	0.00409007	700.0
2483	6.98819e+02	2.48300e+03	0.00408664	700.0
2485	6.98817e+02	2.48500e+03	0.00408668	700.0
2487	6.98827e+02	2.48700e+03	0.00408869	700.0
2489	6.98821e+02	2.48900e+03	0.00409821	700.0
2491	6.98818e+02	2.49100e+03	0.0041181	700.0
2493	6.98823e+02	2.49300e+03	0.00415237	700.0
2495	6.98814e+02	2.49500e+03	0.004178	700.0
2497	6.98820e+02	2.49700e+03	0.00419073	700.0
2499	6.98820e+02	2.49900e+03	0.00418532	700.0
2501	6.98809e+02	2.50100e+03	0.0041459	700.0
2503	6.98816e+02	2.50300e+03	0.00410902	700.0
2505	6.98804e+02	2.50500e+03	0.0040584	700.0
2507	6.98810e+02	2.50700e+03	0.00401033	700.0
2509	6.98813e+02	2.50900e+03	0.00397582	700.0
2511	6.98805e+02	2.51100e+03	0.00395268	700.0
2513	6.98808e+02	2.51300e+03	0.00395835	700.0
2515	6.98804e+02	2.51500e+03	0.00397027	700.0
2517	6.98810e+02	2.51700e+03	0.00401185	700.0
2519	6.98816e+02	2.51900e+03	0.00405195	700.0
2521	6.98815e+02	2.52100e+03	0.00408806	700.0
2523	6.98806e+02	2.52300e+03	0.00411216	700.0
2525	6.98818e+02	2.52500e+03	0.00412978	700.0
2527	6.98816e+02	2.52700e+03	0.00416273	700.0
2529	6.98811e+02	2.52900e+03	0.00419162	700.0
2531	6.98810e+02	2.53100e+03	0.00419981	700.0
2533	6.98813e+02	2.53300e+03	0.00418793	700.0
2535	6.98808e+02	2.53500e+03	0.00418173	700.0
2537	6.98806e+02	2.53700e+03	0.00415331	700.0
2539	6.98805e+02	2.53900e+03	0.00410367	700.0
2541	6.98817e+02	2.54100e+03	0.00402893	700.0
2543	6.98803e+02	2.54300e+03	0.00397317	700.0
2545	6.98801e+02	2.54500e+03	0.0039397	700.0
2547	6.98813e+02	2.54700e+03	0.00392771	700.0
2549	6.98807e+02	2.54900e+03	0.00396918	700.0
2551	6.98800e+02	2.55100e+03	0.00400179	700.0
2553	6.98805e+02	2.55300e+03	0.00403455	700.0
2555	6.98808e+02	2.55500e+03	0.00404797	700.0
2557	6.98810e+02	2.55700e+03	0.00404636	700.0
2559	6.98805e+02	2.55900e+03	0.00405018	700.0
2561	6.98795e+02	2.56100e+03	0.00405302	700.0
2563	6.98806e+02	2.56300e+03	0.00403808	700.0
2565	6.98802e+02	2.56500e+03	0.00401043	700.0
2567	6.98803e+02	2.56700e+03	0.00400178	700.0
2569	6.98801e+02	2.56900e+03	0.00402008	700.0
2571	6.98805e+02	2.57100e+03	0.00404617	700.0
2573	6.98792e+02	2.57300e+03	0.00409587	700.0
2575	6.98799e+02	2.57500e+03	0.00413458	700.0
2577	6.98797e+02	2.57700e+03	0.00417729	700.0
2579	6.98792e+02	2.57900e+03	0.00421636	700.0
2581	6.98803e+02	2.58100e+03	0.00424322	700.0
2583	6.98803e+02	2.58300e+03	0.00425056	700.0
2585	6.98798e+02	2.58500e+03	0.00422097	700.0
2587	6.98796e+02	2.58700e+03	0.00419465	700.0
2589	6.98794e+02	2.58900e+03	0.0041632	700.0
2591	6.98794e+02	2.59100e+03	0.00414592	700.0
2593	6.98794e+02	2.59300e+03	0.00414547	700.0
2595	6.98790e+02	2.59500e+03	0.00413165	700.0
2597	6.98792e+02	2.59700e+03	0.00409603	700.0
2599	6.98799e+02	2.59900e+03	0.00404846	700.0
2601	6.98801e+02	2.60100e+03	0.00397689	700.0
2603	6.98792e+02	2.60300e+03	0.0039239	700.0
2605	6.98789e+02	2.60500e+03	0.00389292	700.0
2607	6.98786e+02	2.60700e+03	0.0038847	700.0
2609	6.98788e+02	2.60900e+03	0.00391069	700.0
2611	6.98784e+02	2.61100e+03	0.00393123	700.0
2613	6.98795e+02	2.61300e+03	0.00394188	700.0
2615	6.98785e+02	2.61500e+03	0.00393616	700.0
2617	6.98782e+02	2.61700e+03	0.00392114	700.0
2619	6.98782e+02	2.61900e+03	0.00394213	700.0
2621	6.98782e+02	2.62100e+03	0.00398976	700.0
2623	6.98785e+02	2.62300e+03	0.00402267	700.0
2625	6.98777e+02	2.62500e+03	0.00404443	700.0
2627	6.98779e+02	2.62700e+03	0.00405283	700.0
2629	6.98783e+02	2.62900e+03	0.00404333	700.0
2631	6.98780e+02	2.63100e+03	0.0040478	700.0
2633	6.98784e+02	2.63300e+03	0.00406489	700.0
2635	6.98788e+02	2.63500e+03	0.00408202	700.0
2637	6.98790e+02	2.63700e+03	0.00410104	700.0
2639	6.98785e+02	2.63900e+03	0.00411356	700.0
2641	6.98778e+02	2.64100e+03	0.00411502	700.0
2643	6.98787e+02	2.64300e+03	0.00411279	700.0
2645	6.98776e+02	2.64500e+03	0.00408972	700.0
2647	6.98787e+02	2.64700e+03	0.00405545	700.0
2649	6.98783e+02	2.64900e+03	0.00399521	700.0
2651	6.98786e+02	2.65100e+03	0.00394147	700.0
2653	6.98785e+02	2.65300e+03	0.00389717	700.0
2655	6.98787e+02	2.65500e+03	0.00386775	700.0
2657	6.98797e+02	2.65700e+03	0.00386052	700.0
2659	6.98791e+02	2.65900e+03	0.00387154	700.0
2661	6.98792e+02	2.66100e+03	0.0039197	700.0
2663	6.98793e+02	2.66300e+03	0.00396804	700.0
2665	6.98779e+02	2.66500e+03	0.0040238	700.0
2667	6.98780e+02	2.66700e+03	0.00404801	700.0
2669	6.98782e+02	2.66900e+03	0.0040223	700.0
2671	6.98794e+02	2.67100e+03	0.00398703	700.0
2673	6.98790e+02	2.67300e+03	0.00393436	700.0
2675	6.98786e+02	2.67500e+03	0.0039011	700.0
2677	6.98789e+02	2.67700e+03	0.00389779	700.0
2679	6.98787e+02	2.67900e+03	0.00391869	700.0
2681	6.98786e+02	2.68100e+03	0.00397799	700.0
2683	6.98792e+02	2.68300e+03	0.00402803	700.0
2685	6.98788e+02	2.68500e+03	0.00407597	700.0
2687	6.98786e+02	2.68700e+03	0.00410588	700.0
2689	6.98789e+02	2.68900e+03	0.00410476	700.0
2691	6.98791e+02	2.69100e+03	0.00410344	700.0
2693	6.98780e+02	2.69300e+03	0.00410238	700.0
2695	6.98789e+02	2.69500e+03	0.00412026	700.0
2697	6.98784e+02	2.69700e+03	0.00414454	700.0
2699	6.98789e+02	2.69900e+03	0.00414393	700.0
2701	6.98782e+02	2.70100e+03	0.00412821	700.0
2703	6.98782e+02	2.70300e+03	0.00411496	700.0
2705	6.98776e+02	2.70500e+03	0.00407797	700.0
2707	6.98780e+02	2.70700e+03	0.00403593	700.0
2709	6.98784e+02	2.70900e+03	0.00398575	700.0
2711	6.98785e+02	2.71100e+03	0.00394775	700.0
2713	6.98778e+02	2.71300e+03	0.00391386	700.0
2715	6.98797e+02	2.71500e+03	0.00388075	700.0
2717	6.98776e+02	2.71700e+03	0.00384395	700.0
2719	6.98785e+02	2.71900e+03	0.00381045	700.0
2720	6.98783e+02	2.72000e+03	0.00379499	700.0