File: Experiments/TUBS/tga_nonisotherm/tga_dynamic_n2_dyn20_powder_3mg_r1.txt
index	ts	t	weight	tr
[#]	[°C]	[s]	[mg]	[°C]
723	1.29941e+02	7.23000e+02	3.00438e+00	1.31000e+02
725	1.30596e+02	7.25000e+02	3.00432e+00	1.31667e+02
727	1.31253e+02	7.27000e+02	3.00424e+00	1.32333e+02
729	1.31920e+02	7.29000e+02	3.00416e+00	1.33000e+02
731	1.32579e+02	7.31000e+02	3.00408e+00	1.33667e+02
733	1.33252e+02	7.33000e+02	3.00400e+00	1.34333e+02
735	1.33918e+02	7.35000e+02	3.00392e+00	1.35000e+02
737	1.34575e+02	7.37000e+02	3.00382e+00	1.35667e+02
739	1.35242e+02	7.39000e+02	3.00371e+00	1.36333e+02
741	1.35920e+02	7.41000e+02	3.00355e+00	1.37000e+02
743	1.36574e+02	7.43000e+02	3.00341e+00	1.37667e+02
745	1.37234e+02	7.45000e+02	3.00326e+00	1.38333e+02
747	1.37908e+02	7.47000e+02	3.00310e+00	1.39000e+02
749	1.38577e+02	7.49000e+02	3.00295e+00	1.39667e+02
751	1.39238e+02	7.51000e+02	3.00279e+00	1.40333e+02
753	1.39923e+02	7.53000e+02	3.00263e+00	1.41000e+02
755	1.40577e+02	7.55000e+02	3.00247e+00	1.41667e+02
757	1.41240e+02	7.57000e+02	3.00231e+00	1.42333e+02
759	1.41916e+02	7.59000e+02	3.00216e+00	1.43000e+02
761	1.42574e+02	7.61000e+02	3.00199e+00	1.43667e+02
763	1.43243e+02	7.63000e+02	3.00181e+00	1.44333e+02
765	1.43919e+02	7.65000e+02	3.00159e+00	1.45000e+02
767	1.44590e+02	7.67000e+02	3.00137e+00	1.45667e+02
769	1.45265e+02	7.69000e+02	3.00114e+00	1.46333e+02
771	1.45940e+02	7.71000e+02	3.00090e+00	1.47000e+02
773	1.46609e+02	7.73000e+02	3.00065e+00	1.47667e+02
775	1.47273e+02	7.75000e+02	3.00038e+00	1.48333e+02
777	1.47935e+02	7.77000e+02	3.00009e+00	1.49000e+02
779	1.48616e+02	7.79000e+02	2.99979e+00	1.49667e+02
781	1.49286e+02	7.81000e+02	2.99946e+00	1.50333e+02
783	1.49948e+02	7.83000e+02	2.99913e+00	1.51000e+02
785	1.50626e+02	7.85000e+02	2.99879e+00	1.51667e+02
787	1.51294e+02	7.87000e+02	2.99845e+00	1.52333e+02
789	1.51955e+02	7.89000e+02	2.99810e+00	1.53000e+02
791	1.52638e+02	7.91000e+02	2.99774e+00	1.53667e+02
793	1.53301e+02	7.93000e+02	2.99739e+00	1.54333e+02
795	1.53976e+02	7.95000e+02	2.99703e+00	1.55000e+02
797	1.54644e+02	7.97000e+02	2.99667e+00	1.55667e+02
799	1.55309e+02	7.99000e+02	2.99631e+00	1.56333e+02
801	1.55995e+02	8.01000e+02	2.99595e+00	1.57000e+02
803	1.56674e+02	8.03000e+02	2.99557e+00	1.57667e+02
805	1.57349e+02	8.05000e+02	2.99519e+00	1.58333e+02
807	1.58030e+02	8.07000e+02	2.99481e+00	1.59000e+02
809	1.58683e+02	8.09000e+02	2.99441e+00	1.59667e+02
811	1.59360e+02	8.11000e+02	2.99401e+00	1.60333e+02
813	1.60030e+02	8.13000e+02	2.99359e+00	1.61000e+02
815	1.60714e+02	8.15000e+02	2.99317e+00	1.61667e+02
817	1.61384e+02	8.17000e+02	2.99274e+00	1.62333e+02
819	1.62062e+02	8.19000e+02	2.99232e+00	1.63000e+02
821	1.62726e+02	8.21000e+02	2.99190e+00	1.63667e+02
823	1.63412e+02	8.23000e+02	2.99148e+00	1.64333e+02
825	1.64079e+02	8.25000e+02	2.99102e+00	1.65000e+02
827	1.64756e+02	8.27000e+02	2.99054e+00	1.65667e+02
829	1.65427e+02	8.29000e+02	2.99001e+00	1.66333e+02
831	1.66100e+02	8.31000e+02	2.98949e+00	1.67000e+02
833	1.66770e+02	8.33000e+02	2.98894e+00	1.67667e+02
835	1.67448e+02	8.35000e+02	2.98838e+00	1.68333e+02
837	1.68120e+02	8.37000e+02	2.98778e+00	1.69000e+02
839	1.68809e+02	8.39000e+02	2.98715e+00	1.69667e+02
841	1.69479e+02	8.41000e+02	2.98646e+00	1.70333e+02
843	1.70156e+02	8.43000e+02	2.98575e+00	1.71000e+02
845	1.70838e+02	8.45000e+02	2.98498e+00	1.71667e+02
847	1.71512e+02	8.47000e+02	2.98418e+00	1.72333e+02
849	1.72191e+02	8.49000e+02	2.98330e+00	1.73000e+02
851	1.72874e+02	8.51000e+02	2.98239e+00	1.73667e+02
853	1.73539e+02	8.53000e+02	2.98138e+00	1.74333e+02
855	1.74223e+02	8.55000e+02	2.98034e+00	1.75000e+02
857	1.74911e+02	8.57000e+02	2.97922e+00	1.75667e+02
859	1.75588e+02	8.59000e+02	2.97807e+00	1.76333e+02
861	1.76268e+02	8.61000e+02	2.97683e+00	1.77000e+02
863	1.76950e+02	8.63000e+02	2.97554e+00	1.77667e+02
865	1.77619e+02	8.65000e+02	2.97413e+00	1.78333e+02
867	1.78307e+02	8.67000e+02	2.97269e+00	1.79000e+02
869	1.78973e+02	8.69000e+02	2.97113e+00	1.79667e+02
871	1.79657e+02	8.71000e+02	2.96955e+00	1.80333e+02
873	1.80322e+02	8.73000e+02	2.96786e+00	1.81000e+02
875	1.80994e+02	8.75000e+02	2.96614e+00	1.81667e+02
877	1.81666e+02	8.77000e+02	2.96430e+00	1.82333e+02
879	1.82342e+02	8.79000e+02	2.96244e+00	1.83000e+02
881	1.83036e+02	8.81000e+02	2.96046e+00	1.83667e+02
883	1.83732e+02	8.83000e+02	2.95846e+00	1.84333e+02
885	1.84435e+02	8.85000e+02	2.95635e+00	1.85000e+02
887	1.85107e+02	8.87000e+02	2.95423e+00	1.85667e+02
889	1.85797e+02	8.89000e+02	2.95201e+00	1.86333e+02
891	1.86490e+02	8.91000e+02	2.94978e+00	1.87000e+02
893	1.87188e+02	8.93000e+02	2.94747e+00	1.87667e+02
895	1.87861e+02	8.95000e+02	2.94515e+00	1.88333e+02
897	1.88563e+02	8.97000e+02	2.94280e+00	1.89000e+02
899	1.89254e+02	8.99000e+02	2.94044e+00	1.89667e+02
901	1.89946e+02	9.01000e+02	2.93805e+00	1.90333e+02
903	1.90633e+02	9.03000e+02	2.93567e+00	1.91000e+02
905	1.91327e+02	9.05000e+02	2.93328e+00	1.91667e+02
907	1.92021e+02	9.07000e+02	2.93090e+00	1.92333e+02
909	1.92694e+02	9.09000e+02	2.92854e+00	1.93000e+02
911	1.93395e+02	9.11000e+02	2.92621e+00	1.93667e+02
913	1.94082e+02	9.13000e+02	2.92394e+00	1.94333e+02
915	1.94761e+02	9.15000e+02	2.92169e+00	1.95000e+02
917	1.95448e+02	9.17000e+02	2.91953e+00	1.95667e+02
919	1.96124e+02	9.19000e+02	2.91741e+00	1.96333e+02
921	1.96806e+02	9.21000e+02	2.91538e+00	1.97000e+02
923	1.97465e+02	9.23000e+02	2.91338e+00	1.97667e+02
925	1.98146e+02	9.25000e+02	2.91151e+00	1.98333e+02
927	1.98839e+02	9.27000e+02	2.90969e+00	1.99000e+02
929	1.99505e+02	9.29000e+02	2.90802e+00	1.99667e+02
931	2.00190e+02	9.31000e+02	2.90639e+00	2.00333e+02
933	2.00880e+02	9.33000e+02	2.90490e+00	2.01000e+02
935	2.01553e+02	9.35000e+02	2.90343e+00	2.01667e+02
937	2.02244e+02	9.37000e+02	2.90208e+00	2.02333e+02
939	2.02926e+02	9.39000e+02	2.90076e+00	2.03000e+02
941	2.03599e+02	9.41000e+02	2.89956e+00	2.03667e+02
943	2.04286e+02	9.43000e+02	2.89841e+00	2.04333e+02
945	2.04974e+02	9.45000e+02	2.89738e+00	2.05000e+02
947	2.05650e+02	9.47000e+02	2.89638e+00	2.05667e+02
949	2.06335e+02	9.49000e+02	2.89550e+00	2.06333e+02
951	2.07006e+02	9.51000e+02	2.89464e+00	2.07000e+02
953	2.07703e+02	9.53000e+02	2.89387e+00	2.07667e+02
955	2.08369e+02	9.55000e+02	2.89310e+00	2.08333e+02
957	2.09057e+02	9.57000e+02	2.89239e+00	2.09000e+02
959	2.09730e+02	9.59000e+02	2.89171e+00	2.09667e+02
961	2.10414e+02	9.61000e+02	2.89109e+00	2.10333e+02
963	2.11099e+02	9.63000e+02	2.89049e+00	2.11000e+02
965	2.11769e+02	9.65000e+02	2.88995e+00	2.11667e+02
967	2.12459e+02	9.67000e+02	2.88940e+00	2.12333e+02
969	2.13113e+02	9.69000e+02	2.88889e+00	2.13000e+02
971	2.13798e+02	9.71000e+02	2.88837e+00	2.13667e+02
973	2.14465e+02	9.73000e+02	2.88788e+00	2.14333e+02
975	2.15145e+02	9.75000e+02	2.88740e+00	2.15000e+02
977	2.15816e+02	9.77000e+02	2.88694e+00	2.15667e+02
979	2.16505e+02	9.79000e+02	2.88646e+00	2.16333e+02
981	2.17185e+02	9.81000e+02	2.88595e+00	2.17000e+02
983	2.17858e+02	9.83000e+02	2.88544e+00	2.17667e+02
985	2.18537e+02	9.85000e+02	2.88492e+00	2.18333e+02
987	2.19213e+02	9.87000e+02	2.88442e+00	2.19000e+02
989	2.19879e+02	9.89000e+02	2.88393e+00	2.19667e+02
991	2.20562e+02	9.91000e+02	2.88344e+00	2.20333e+02
993	2.21241e+02	9.93000e+02	2.88297e+00	2.21000e+02
995	2.21911e+02	9.95000e+02	2.88250e+00	2.21667e+02
997	2.22585e+02	9.97000e+02	2.88203e+00	2.22333e+02
999	2.23246e+02	9.99000e+02	2.88153e+00	2.23000e+02
1001	2.23920e+02	1.00100e+03	2.88099e+00	2.23667e+02
1003	2.24581e+02	1.00300e+03	2.88043e+00	2.24333e+02
1005	2.25227e+02	1.00500e+03	2.87984e+00	2.25000e+02
1007	2.25885e+02	1.00700e+03	2.87927e+00	2.25667e+02
1009	2.26548e+02	1.00900e+03	2.87873e+00	2.26333e+02
1011	2.27219e+02	1.01100e+03	2.87821e+00	2.27000e+02
1013	2.27897e+02	1.01300e+03	2.87772e+00	2.27667e+02
1015	2.28569e+02	1.01500e+03	2.87722e+00	2.28333e+02
1017	2.29230e+02	1.01700e+03	2.87674e+00	2.29000e+02
1019	2.29899e+02	1.01900e+03	2.87627e+00	2.29667e+02
1021	2.30580e+02	1.02100e+03	2.87581e+00	2.30333e+02
1023	2.31249e+02	1.02300e+03	2.87535e+00	2.31000e+02
1025	2.31909e+02	1.02500e+03	2.87489e+00	2.31667e+02
1027	2.32563e+02	1.02700e+03	2.87444e+00	2.32333e+02
1029	2.33221e+02	1.02900e+03	2.87400e+00	2.33000e+02
1031	2.33889e+02	1.03100e+03	2.87356e+00	2.33667e+02
1033	2.34554e+02	1.03300e+03	2.87314e+00	2.34333e+02
1035	2.35204e+02	1.03500e+03	2.87272e+00	2.35000e+02
1037	2.35892e+02	1.03700e+03	2.87232e+00	2.35667e+02
1039	2.36550e+02	1.03900e+03	2.87193e+00	2.36333e+02
1041	2.37224e+02	1.04100e+03	2.87157e+00	2.37000e+02
1043	2.37897e+02	1.04300e+03	2.87119e+00	2.37667e+02
1045	2.38565e+02	1.04500e+03	2.87081e+00	2.38333e+02
1047	2.39242e+02	1.04700e+03	2.87042e+00	2.39000e+02
1049	2.39912e+02	1.04900e+03	2.87004e+00	2.39667e+02
1051	2.40594e+02	1.05100e+03	2.86968e+00	2.40333e+02
1053	2.41274e+02	1.05300e+03	2.86935e+00	2.41000e+02
1055	2.41956e+02	1.05500e+03	2.86902e+00	2.41667e+02
1057	2.42643e+02	1.05700e+03	2.86870e+00	2.42333e+02
1059	2.43351e+02	1.05900e+03	2.86838e+00	2.43000e+02
1061	2.44018e+02	1.06100e+03	2.86808e+00	2.43667e+02
1063	2.44675e+02	1.06300e+03	2.86778e+00	2.44333e+02
1065	2.45353e+02	1.06500e+03	2.86751e+00	2.45000e+02
1067	2.46028e+02	1.06700e+03	2.86722e+00	2.45667e+02
1069	2.46709e+02	1.06900e+03	2.86694e+00	2.46333e+02
1071	2.47386e+02	1.07100e+03	2.86664e+00	2.47000e+02
1073	2.48078e+02	1.07300e+03	2.86634e+00	2.47667e+02
1075	2.48777e+02	1.07500e+03	2.86606e+00	2.48333e+02
1077	2.49454e+02	1.07700e+03	2.86579e+00	2.49000e+02
1079	2.50137e+02	1.07900e+03	2.86551e+00	2.49667e+02
1081	2.50814e+02	1.08100e+03	2.86524e+00	2.50333e+02
1083	2.51484e+02	1.08300e+03	2.86497e+00	2.51000e+02
1085	2.52166e+02	1.08500e+03	2.86469e+00	2.51667e+02
1087	2.52845e+02	1.08700e+03	2.86440e+00	2.52333e+02
1089	2.53534e+02	1.08900e+03	2.86410e+00	2.53000e+02
1091	2.54184e+02	1.09100e+03	2.86382e+00	2.53667e+02
1093	2.54836e+02	1.09300e+03	2.86354e+00	2.54333e+02
1095	2.55489e+02	1.09500e+03	2.86326e+00	2.55000e+02
1097	2.56139e+02	1.09700e+03	2.86298e+00	2.55667e+02
1099	2.56792e+02	1.09900e+03	2.86269e+00	2.56333e+02
1101	2.57466e+02	1.10100e+03	2.86241e+00	2.57000e+02
1103	2.58115e+02	1.10300e+03	2.86215e+00	2.57667e+02
1105	2.58780e+02	1.10500e+03	2.86189e+00	2.58333e+02
1107	2.59429e+02	1.10700e+03	2.86161e+00	2.59000e+02
1109	2.60089e+02	1.10900e+03	2.86132e+00	2.59667e+02
1111	2.60764e+02	1.11100e+03	2.86102e+00	2.60333e+02
1113	2.61416e+02	1.11300e+03	2.86070e+00	2.61000e+02
1115	2.62090e+02	1.11500e+03	2.86039e+00	2.61667e+02
1117	2.62764e+02	1.11700e+03	2.86008e+00	2.62333e+02
1119	2.63442e+02	1.11900e+03	2.85976e+00	2.63000e+02
1121	2.64115e+02	1.12100e+03	2.85945e+00	2.63667e+02
1123	2.64768e+02	1.12300e+03	2.85912e+00	2.64333e+02
1125	2.65441e+02	1.12500e+03	2.85880e+00	2.65000e+02
1127	2.66108e+02	1.12700e+03	2.85847e+00	2.65667e+02
1129	2.66793e+02	1.12900e+03	2.85812e+00	2.66333e+02
1131	2.67469e+02	1.13100e+03	2.85776e+00	2.67000e+02
1133	2.68135e+02	1.13300e+03	2.85736e+00	2.67667e+02
1135	2.68817e+02	1.13500e+03	2.85696e+00	2.68333e+02
1137	2.69487e+02	1.13700e+03	2.85654e+00	2.69000e+02
1139	2.70155e+02	1.13900e+03	2.85612e+00	2.69667e+02
1141	2.70817e+02	1.14100e+03	2.85569e+00	2.70333e+02
1143	2.71473e+02	1.14300e+03	2.85523e+00	2.71000e+02
1145	2.72157e+02	1.14500e+03	2.85473e+00	2.71667e+02
1147	2.72816e+02	1.14700e+03	2.85422e+00	2.72333e+02
1149	2.73470e+02	1.14900e+03	2.85370e+00	2.73000e+02
1151	2.74149e+02	1.15100e+03	2.85318e+00	2.73667e+02
1153	2.74836e+02	1.15300e+03	2.85265e+00	2.74333e+02
1155	2.75505e+02	1.15500e+03	2.85211e+00	2.75000e+02
1157	2.76180e+02	1.15700e+03	2.85155e+00	2.75667e+02
1159	2.76872e+02	1.15900e+03	2.85096e+00	2.76333e+02
1161	2.77550e+02	1.16100e+03	2.85034e+00	2.77000e+02
1163	2.78214e+02	1.16300e+03	2.84968e+00	2.77667e+02
1165	2.78897e+02	1.16500e+03	2.84897e+00	2.78333e+02
1167	2.79578e+02	1.16700e+03	2.84823e+00	2.79000e+02
1169	2.80252e+02	1.16900e+03	2.84744e+00	2.79667e+02
1171	2.80924e+02	1.17100e+03	2.84664e+00	2.80333e+02
1173	2.81602e+02	1.17300e+03	2.84578e+00	2.81000e+02
1175	2.82282e+02	1.17500e+03	2.84490e+00	2.81667e+02
1177	2.82948e+02	1.17700e+03	2.84396e+00	2.82333e+02
1179	2.83628e+02	1.17900e+03	2.84300e+00	2.83000e+02
1181	2.84292e+02	1.18100e+03	2.84198e+00	2.83667e+02
1183	2.84991e+02	1.18300e+03	2.84094e+00	2.84333e+02
1185	2.85671e+02	1.18500e+03	2.83985e+00	2.85000e+02
1187	2.86367e+02	1.18700e+03	2.83874e+00	2.85667e+02
1189	2.87060e+02	1.18900e+03	2.83756e+00	2.86333e+02
1191	2.87740e+02	1.19100e+03	2.83635e+00	2.87000e+02
1193	2.88445e+02	1.19300e+03	2.83505e+00	2.87667e+02
1195	2.89146e+02	1.19500e+03	2.83373e+00	2.88333e+02
1197	2.89853e+02	1.19700e+03	2.83230e+00	2.89000e+02
1199	2.90538e+02	1.19900e+03	2.83085e+00	2.89667e+02
1201	2.91213e+02	1.20100e+03	2.82929e+00	2.90333e+02
1203	2.91898e+02	1.20300e+03	2.82772e+00	2.91000e+02
1205	2.92585e+02	1.20500e+03	2.82606e+00	2.91667e+02
1207	2.93255e+02	1.20700e+03	2.82438e+00	2.92333e+02
1209	2.93943e+02	1.20900e+03	2.82260e+00	2.93000e+02
1211	2.94624e+02	1.21100e+03	2.82079e+00	2.93667e+02
1213	2.95328e+02	1.21300e+03	2.81888e+00	2.94333e+02
1215	2.96016e+02	1.21500e+03	2.81696e+00	2.95000e+02
1217	2.96690e+02	1.21700e+03	2.81493e+00	2.95667e+02
1219	2.97387e+02	1.21900e+03	2.81287e+00	2.96333e+02
1221	2.98087e+02	1.22100e+03	2.81067e+00	2.97000e+02
1223	2.98772e+02	1.22300e+03	2.80847e+00	2.97667e+02
1225	2.99480e+02	1.22500e+03	2.80615e+00	2.98333e+02
1227	3.00181e+02	1.22700e+03	2.80383e+00	2.99000e+02
1229	3.00864e+02	1.22900e+03	2.80142e+00	2.99667e+02
1231	3.01573e+02	1.23100e+03	2.79900e+00	3.00333e+02
1233	3.02246e+02	1.23300e+03	2.79649e+00	3.01000e+02
1235	3.02920e+02	1.23500e+03	2.79396e+00	3.01667e+02
1237	3.03585e+02	1.23700e+03	2.79134e+00	3.02333e+02
1239	3.04266e+02	1.23900e+03	2.78870e+00	3.03000e+02
1241	3.04933e+02	1.24100e+03	2.78598e+00	3.03667e+02
1243	3.05636e+02	1.24300e+03	2.78325e+00	3.04333e+02
1245	3.06330e+02	1.24500e+03	2.78045e+00	3.05000e+02
1247	3.07002e+02	1.24700e+03	2.77762e+00	3.05667e+02
1249	3.07679e+02	1.24900e+03	2.77471e+00	3.06333e+02
1251	3.08355e+02	1.25100e+03	2.77179e+00	3.07000e+02
1253	3.09029e+02	1.25300e+03	2.76882e+00	3.07667e+02
1255	3.09709e+02	1.25500e+03	2.76585e+00	3.08333e+02
1257	3.10393e+02	1.25700e+03	2.76287e+00	3.09000e+02
1259	3.11051e+02	1.25900e+03	2.75989e+00	3.09667e+02
1261	3.11726e+02	1.26100e+03	2.75692e+00	3.10333e+02
1263	3.12414e+02	1.26300e+03	2.75394e+00	3.11000e+02
1265	3.13092e+02	1.26500e+03	2.75094e+00	3.11667e+02
1267	3.13768e+02	1.26700e+03	2.74794e+00	3.12333e+02
1269	3.14444e+02	1.26900e+03	2.74491e+00	3.13000e+02
1271	3.15130e+02	1.27100e+03	2.74189e+00	3.13667e+02
1273	3.15825e+02	1.27300e+03	2.73884e+00	3.14333e+02
1275	3.16498e+02	1.27500e+03	2.73580e+00	3.15000e+02
1277	3.17200e+02	1.27700e+03	2.73273e+00	3.15667e+02
1279	3.17888e+02	1.27900e+03	2.72966e+00	3.16333e+02
1281	3.18578e+02	1.28100e+03	2.72654e+00	3.17000e+02
1283	3.19259e+02	1.28300e+03	2.72342e+00	3.17667e+02
1285	3.19922e+02	1.28500e+03	2.72026e+00	3.18333e+02
1287	3.20596e+02	1.28700e+03	2.71708e+00	3.19000e+02
1289	3.21260e+02	1.28900e+03	2.71383e+00	3.19667e+02
1291	3.21922e+02	1.29100e+03	2.71053e+00	3.20333e+02
1293	3.22595e+02	1.29300e+03	2.70712e+00	3.21000e+02
1295	3.23258e+02	1.29500e+03	2.70369e+00	3.21667e+02
1297	3.23927e+02	1.29700e+03	2.70015e+00	3.22333e+02
1299	3.24587e+02	1.29900e+03	2.69658e+00	3.23000e+02
1301	3.25237e+02	1.30100e+03	2.69286e+00	3.23667e+02
1303	3.25902e+02	1.30300e+03	2.68908e+00	3.24333e+02
1305	3.26557e+02	1.30500e+03	2.68511e+00	3.25000e+02
1307	3.27213e+02	1.30700e+03	2.68108e+00	3.25667e+02
1309	3.27866e+02	1.30900e+03	2.67681e+00	3.26333e+02
1311	3.28516e+02	1.31100e+03	2.67248e+00	3.27000e+02
1313	3.29188e+02	1.31300e+03	2.66787e+00	3.27667e+02
1315	3.29850e+02	1.31500e+03	2.66317e+00	3.28333e+02
1317	3.30500e+02	1.31700e+03	2.65816e+00	3.29000e+02
1319	3.31161e+02	1.31900e+03	2.65305e+00	3.29667e+02
1321	3.31818e+02	1.32100e+03	2.64761e+00	3.30333e+02
1323	3.32468e+02	1.32300e+03	2.64208e+00	3.31000e+02
1325	3.33122e+02	1.32500e+03	2.63618e+00	3.31667e+02
1327	3.33792e+02	1.32700e+03	2.63018e+00	3.32333e+02
1329	3.34474e+02	1.32900e+03	2.62378e+00	3.33000e+02
1331	3.35154e+02	1.33100e+03	2.61727e+00	3.33667e+02
1333	3.35821e+02	1.33300e+03	2.61031e+00	3.34333e+02
1335	3.36484e+02	1.33500e+03	2.60321e+00	3.35000e+02
1337	3.37142e+02	1.33700e+03	2.59560e+00	3.35667e+02
1339	3.37803e+02	1.33900e+03	2.58785e+00	3.36333e+02
1341	3.38464e+02	1.34100e+03	2.57956e+00	3.37000e+02
1343	3.39134e+02	1.34300e+03	2.57113e+00	3.37667e+02
1345	3.39810e+02	1.34500e+03	2.56213e+00	3.38333e+02
1347	3.40485e+02	1.34700e+03	2.55296e+00	3.39000e+02
1349	3.41155e+02	1.34900e+03	2.54315e+00	3.39667e+02
1351	3.41830e+02	1.35100e+03	2.53318e+00	3.40333e+02
1353	3.42502e+02	1.35300e+03	2.52256e+00	3.41000e+02
1355	3.43180e+02	1.35500e+03	2.51177e+00	3.41667e+02
1357	3.43857e+02	1.35700e+03	2.50029e+00	3.42333e+02
1359	3.44525e+02	1.35900e+03	2.48863e+00	3.43000e+02
1361	3.45187e+02	1.36100e+03	2.47623e+00	3.43667e+02
1363	3.45852e+02	1.36300e+03	2.46366e+00	3.44333e+02
1365	3.46517e+02	1.36500e+03	2.45032e+00	3.45000e+02
1367	3.47170e+02	1.36700e+03	2.43678e+00	3.45667e+02
1369	3.47837e+02	1.36900e+03	2.42244e+00	3.46333e+02
1371	3.48496e+02	1.37100e+03	2.40790e+00	3.47000e+02
1373	3.49190e+02	1.37300e+03	2.39253e+00	3.47667e+02
1375	3.49864e+02	1.37500e+03	2.37695e+00	3.48333e+02
1377	3.50538e+02	1.37700e+03	2.36053e+00	3.49000e+02
1379	3.51223e+02	1.37900e+03	2.34391e+00	3.49667e+02
1381	3.51899e+02	1.38100e+03	2.32642e+00	3.50333e+02
1383	3.52577e+02	1.38300e+03	2.30872e+00	3.51000e+02
1385	3.53265e+02	1.38500e+03	2.29012e+00	3.51667e+02
1387	3.53935e+02	1.38700e+03	2.27133e+00	3.52333e+02
1389	3.54649e+02	1.38900e+03	2.25164e+00	3.53000e+02
1391	3.55327e+02	1.39100e+03	2.23174e+00	3.53667e+02
1393	3.56025e+02	1.39300e+03	2.21093e+00	3.54333e+02
1395	3.56685e+02	1.39500e+03	2.18992e+00	3.55000e+02
1397	3.57344e+02	1.39700e+03	2.16804e+00	3.55667e+02
1399	3.58007e+02	1.39900e+03	2.14595e+00	3.56333e+02
1401	3.58656e+02	1.40100e+03	2.12301e+00	3.57000e+02
1403	3.59326e+02	1.40300e+03	2.09989e+00	3.57667e+02
1405	3.59974e+02	1.40500e+03	2.07597e+00	3.58333e+02
1407	3.60628e+02	1.40700e+03	2.05189e+00	3.59000e+02
1409	3.61284e+02	1.40900e+03	2.02702e+00	3.59667e+02
1411	3.61941e+02	1.41100e+03	2.00195e+00	3.60333e+02
1413	3.62608e+02	1.41300e+03	1.97609e+00	3.61000e+02
1415	3.63250e+02	1.41500e+03	1.95009e+00	3.61667e+02
1417	3.63897e+02	1.41700e+03	1.92335e+00	3.62333e+02
1419	3.64525e+02	1.41900e+03	1.89644e+00	3.63000e+02
1421	3.65180e+02	1.42100e+03	1.86880e+00	3.63667e+02
1423	3.65819e+02	1.42300e+03	1.84100e+00	3.64333e+02
1425	3.66467e+02	1.42500e+03	1.81250e+00	3.65000e+02
1427	3.67125e+02	1.42700e+03	1.78385e+00	3.65667e+02
1429	3.67763e+02	1.42900e+03	1.75456e+00	3.66333e+02
1431	3.68413e+02	1.43100e+03	1.72517e+00	3.67000e+02
1433	3.69065e+02	1.43300e+03	1.69522e+00	3.67667e+02
1435	3.69722e+02	1.43500e+03	1.66515e+00	3.68333e+02
1437	3.70368e+02	1.43700e+03	1.63460e+00	3.69000e+02
1439	3.71003e+02	1.43900e+03	1.60398e+00	3.69667e+02
1441	3.71650e+02	1.44100e+03	1.57305e+00	3.70333e+02
1443	3.72303e+02	1.44300e+03	1.54211e+00	3.71000e+02
1445	3.72957e+02	1.44500e+03	1.51101e+00	3.71667e+02
1447	3.73611e+02	1.44700e+03	1.47988e+00	3.72333e+02
1449	3.74265e+02	1.44900e+03	1.44848e+00	3.73000e+02
1451	3.74907e+02	1.45100e+03	1.41686e+00	3.73667e+02
1453	3.75570e+02	1.45300e+03	1.38479e+00	3.74333e+02
1455	3.76196e+02	1.45500e+03	1.35258e+00	3.75000e+02
1457	3.76832e+02	1.45700e+03	1.31966e+00	3.75667e+02
1459	3.77481e+02	1.45900e+03	1.28639e+00	3.76333e+02
1461	3.78106e+02	1.46100e+03	1.25229e+00	3.77000e+02
1463	3.78748e+02	1.46300e+03	1.21831e+00	3.77667e+02
1465	3.79402e+02	1.46500e+03	1.18419e+00	3.78333e+02
1467	3.80056e+02	1.46700e+03	1.15043e+00	3.79000e+02
1469	3.80737e+02	1.46900e+03	1.11714e+00	3.79667e+02
1471	3.81397e+02	1.47100e+03	1.08396e+00	3.80333e+02
1473	3.82071e+02	1.47300e+03	1.05123e+00	3.81000e+02
1475	3.82732e+02	1.47500e+03	1.01855e+00	3.81667e+02
1477	3.83388e+02	1.47700e+03	9.86218e-01	3.82333e+02
1479	3.84083e+02	1.47900e+03	9.53980e-01	3.83000e+02
1481	3.84747e+02	1.48100e+03	9.22151e-01	3.83667e+02
1483	3.85423e+02	1.48300e+03	8.90453e-01	3.84333e+02
1485	3.86110e+02	1.48500e+03	8.59259e-01	3.85000e+02
1487	3.86819e+02	1.48700e+03	8.28224e-01	3.85667e+02
1489	3.87530e+02	1.48900e+03	7.97843e-01	3.86333e+02
1491	3.88244e+02	1.49100e+03	7.67706e-01	3.87000e+02
1493	3.88912e+02	1.49300e+03	7.38387e-01	3.87667e+02
1495	3.89621e+02	1.49500e+03	7.09298e-01	3.88333e+02
1497	3.90290e+02	1.49700e+03	6.81131e-01	3.89000e+02
1499	3.90990e+02	1.49900e+03	6.53227e-01	3.89667e+02
1501	3.91674e+02	1.50100e+03	6.26312e-01	3.90333e+02
1503	3.92368e+02	1.50300e+03	5.99640e-01	3.91000e+02
1505	3.93061e+02	1.50500e+03	5.73999e-01	3.91667e+02
1507	3.93741e+02	1.50700e+03	5.48638e-01	3.92333e+02
1509	3.94406e+02	1.50900e+03	5.24371e-01	3.93000e+02
1511	3.95108e+02	1.51100e+03	5.00385e-01	3.93667e+02
1513	3.95849e+02	1.51300e+03	4.77535e-01	3.94333e+02
1515	3.96558e+02	1.51500e+03	4.54961e-01	3.95000e+02
1517	3.97268e+02	1.51700e+03	4.33542e-01	3.95667e+02
1519	3.97996e+02	1.51900e+03	4.12404e-01	3.96333e+02
1521	3.98722e+02	1.52100e+03	3.92436e-01	3.97000e+02
1523	3.99462e+02	1.52300e+03	3.72742e-01	3.97667e+02
1525	4.00181e+02	1.52500e+03	3.54222e-01	3.98333e+02
1527	4.00859e+02	1.52700e+03	3.35982e-01	3.99000e+02
1529	4.01566e+02	1.52900e+03	3.18902e-01	3.99667e+02
1531	4.02241e+02	1.53100e+03	3.02064e-01	4.00333e+02
1533	4.02905e+02	1.53300e+03	2.86339e-01	4.01000e+02
1535	4.03584e+02	1.53500e+03	2.70866e-01	4.01667e+02
1537	4.04228e+02	1.53700e+03	2.56481e-01	4.02333e+02
1539	4.04891e+02	1.53900e+03	2.42332e-01	4.03000e+02
1541	4.05575e+02	1.54100e+03	2.29233e-01	4.03667e+02
1543	4.06226e+02	1.54300e+03	2.16351e-01	4.04333e+02
1545	4.06909e+02	1.54500e+03	2.04439e-01	4.05000e+02
1547	4.07574e+02	1.54700e+03	1.92709e-01	4.05667e+02
1549	4.08262e+02	1.54900e+03	1.81868e-01	4.06333e+02
1551	4.08931e+02	1.55100e+03	1.71216e-01	4.07000e+02
1553	4.09626e+02	1.55300e+03	1.61407e-01	4.07667e+02
1555	4.10289e+02	1.55500e+03	1.51781e-01	4.08333e+02
1557	4.10960e+02	1.55700e+03	1.42956e-01	4.09000e+02
1559	4.11623e+02	1.55900e+03	1.34303e-01	4.09667e+02
1561	4.12296e+02	1.56100e+03	1.26413e-01	4.10333e+02
1563	4.12945e+02	1.56300e+03	1.18689e-01	4.11000e+02
1565	4.13607e+02	1.56500e+03	1.11693e-01	4.11667e+02
1567	4.14247e+02	1.56700e+03	1.04857e-01	4.12333e+02
1569	4.14889e+02	1.56900e+03	9.87214e-02	4.13000e+02
1571	4.15558e+02	1.57100e+03	9.27244e-02	4.13667e+02
1573	4.16228e+02	1.57300e+03	8.73613e-02	4.14333e+02
1575	4.16922e+02	1.57500e+03	8.21010e-02	4.15000e+02
1577	4.17603e+02	1.57700e+03	7.73916e-02	4.15667e+02
1579	4.18298e+02	1.57900e+03	7.27907e-02	4.16333e+02
1581	4.18999e+02	1.58100e+03	6.87027e-02	4.17000e+02
1583	4.19711e+02	1.58300e+03	6.47204e-02	4.17667e+02
1585	4.20417e+02	1.58500e+03	6.12055e-02	4.18333e+02
1587	4.21126e+02	1.58700e+03	5.77669e-02	4.19000e+02
1589	4.21809e+02	1.58900e+03	5.47264e-02	4.19667e+02
1591	4.22472e+02	1.59100e+03	5.17577e-02	4.20333e+02
1593	4.23150e+02	1.59300e+03	4.91459e-02	4.21000e+02
1595	4.23829e+02	1.59500e+03	4.66039e-02	4.21667e+02
1597	4.24511e+02	1.59700e+03	4.43845e-02	4.22333e+02
1599	4.25161e+02	1.59900e+03	4.22175e-02	4.23000e+02
1601	4.25819e+02	1.60100e+03	4.03215e-02	4.23667e+02
1603	4.26469e+02	1.60300e+03	3.84697e-02	4.24333e+02
1605	4.27127e+02	1.60500e+03	3.68484e-02	4.25000e+02
1607	4.27756e+02	1.60700e+03	3.52679e-02	4.25667e+02
1609	4.28402e+02	1.60900e+03	3.38896e-02	4.26333e+02
1611	4.29072e+02	1.61100e+03	3.25533e-02	4.27000e+02
1613	4.29729e+02	1.61300e+03	3.13995e-02	4.27667e+02
1615	4.30355e+02	1.61500e+03	3.02748e-02	4.28333e+02
1617	4.30988e+02	1.61700e+03	2.93085e-02	4.29000e+02
1619	4.31656e+02	1.61900e+03	2.83667e-02	4.29667e+02
1621	4.32301e+02	1.62100e+03	2.75540e-02	4.30333e+02
1623	4.32941e+02	1.62300e+03	2.67595e-02	4.31000e+02
1625	4.33586e+02	1.62500e+03	2.60696e-02	4.31667e+02
1627	4.34228e+02	1.62700e+03	2.53981e-02	4.32333e+02
1629	4.34887e+02	1.62900e+03	2.48040e-02	4.33000e+02
1631	4.35543e+02	1.63100e+03	2.42128e-02	4.33667e+02
1633	4.36199e+02	1.63300e+03	2.36912e-02	4.34333e+02
1635	4.36840e+02	1.63500e+03	2.32000e-02	4.35000e+02
1637	4.37491e+02	1.63700e+03	2.27891e-02	4.35667e+02
1639	4.38133e+02	1.63900e+03	2.23807e-02	4.36333e+02
1641	4.38774e+02	1.64100e+03	2.20257e-02	4.37000e+02
1643	4.39400e+02	1.64300e+03	2.16701e-02	4.37667e+02
1645	4.40059e+02	1.64500e+03	2.13533e-02	4.38333e+02
1647	4.40716e+02	1.64700e+03	2.10593e-02	4.39000e+02
1649	4.41351e+02	1.64900e+03	2.08297e-02	4.39667e+02
1651	4.42000e+02	1.65100e+03	2.06057e-02	4.40333e+02
1653	4.42635e+02	1.65300e+03	2.04229e-02	4.41000e+02
1655	4.43282e+02	1.65500e+03	2.02277e-02	4.41667e+02
1657	4.43968e+02	1.65700e+03	2.00472e-02	4.42333e+02
1659	4.44605e+02	1.65900e+03	1.98677e-02	4.43000e+02
1661	4.45263e+02	1.66100e+03	1.97110e-02	4.43667e+02
1663	4.45899e+02	1.66300e+03	1.95636e-02	4.44333e+02
1665	4.46582e+02	1.66500e+03	1.94464e-02	4.45000e+02
1667	4.47263e+02	1.66700e+03	1.93331e-02	4.45667e+02
1669	4.47924e+02	1.66900e+03	1.92378e-02	4.46333e+02
1671	4.48563e+02	1.67100e+03	1.91372e-02	4.47000e+02
1673	4.49222e+02	1.67300e+03	1.90416e-02	4.47667e+02
1675	4.49896e+02	1.67500e+03	1.89510e-02	4.48333e+02
1677	4.50538e+02	1.67700e+03	1.88798e-02	4.49000e+02
1679	4.51159e+02	1.67900e+03	1.88281e-02	4.49667e+02
1681	4.51789e+02	1.68100e+03	1.88112e-02	4.50333e+02
1683	4.52441e+02	1.68300e+03	1.87889e-02	4.51000e+02
1685	4.53100e+02	1.68500e+03	1.87718e-02	4.51667e+02
1687	4.53771e+02	1.68700e+03	1.87417e-02	4.52333e+02
1689	4.54423e+02	1.68900e+03	1.87018e-02	4.53000e+02
1691	4.55087e+02	1.69100e+03	1.86729e-02	4.53667e+02
1693	4.55737e+02	1.69300e+03	1.86569e-02	4.54333e+02
1695	4.56406e+02	1.69500e+03	1.86392e-02	4.55000e+02
1697	4.57049e+02	1.69700e+03	1.86259e-02	4.55667e+02
1699	4.57689e+02	1.69900e+03	1.86109e-02	4.56333e+02
1701	4.58329e+02	1.70100e+03	1.85871e-02	4.57000e+02
1703	4.58995e+02	1.70300e+03	1.85449e-02	4.57667e+02
1705	4.59677e+02	1.70500e+03	1.84735e-02	4.58333e+02
1707	4.60348e+02	1.70700e+03	1.84127e-02	4.59000e+02
1709	4.61018e+02	1.70900e+03	1.83562e-02	4.59667e+02
1711	4.61687e+02	1.71100e+03	1.83139e-02	4.60333e+02
1713	4.62377e+02	1.71300e+03	1.82939e-02	4.61000e+02
1715	4.63043e+02	1.71500e+03	1.82675e-02	4.61667e+02
1717	4.63700e+02	1.71700e+03	1.82440e-02	4.62333e+02
1719	4.64324e+02	1.71900e+03	1.82156e-02	4.63000e+02
1721	4.64976e+02	1.72100e+03	1.81767e-02	4.63667e+02
1723	4.65620e+02	1.72300e+03	1.81360e-02	4.64333e+02
1725	4.66283e+02	1.72500e+03	1.80885e-02	4.65000e+02
1727	4.66942e+02	1.72700e+03	1.80517e-02	4.65667e+02
1729	4.67607e+02	1.72900e+03	1.80398e-02	4.66333e+02
1731	4.68252e+02	1.73100e+03	1.80370e-02	4.67000e+02
1733	4.68922e+02	1.73300e+03	1.80490e-02	4.67667e+02
1735	4.69586e+02	1.73500e+03	1.80470e-02	4.68333e+02
1737	4.70250e+02	1.73700e+03	1.80393e-02	4.69000e+02
1739	4.70896e+02	1.73900e+03	1.80351e-02	4.69667e+02
1741	4.71548e+02	1.74100e+03	1.80240e-02	4.70333e+02
1743	4.72195e+02	1.74300e+03	1.80030e-02	4.71000e+02
1745	4.72844e+02	1.74500e+03	1.79772e-02	4.71667e+02
1747	4.73509e+02	1.74700e+03	1.79592e-02	4.72333e+02
1749	4.74165e+02	1.74900e+03	1.79410e-02	4.73000e+02
1751	4.74821e+02	1.75100e+03	1.79257e-02	4.73667e+02
1753	4.75488e+02	1.75300e+03	1.79169e-02	4.74333e+02
1755	4.76151e+02	1.75500e+03	1.79029e-02	4.75000e+02
1757	4.76821e+02	1.75700e+03	1.78734e-02	4.75667e+02
1759	4.77495e+02	1.75900e+03	1.78311e-02	4.76333e+02
1761	4.78172e+02	1.76100e+03	1.77798e-02	4.77000e+02
1763	4.78823e+02	1.76300e+03	1.77438e-02	4.77667e+02
1765	4.79485e+02	1.76500e+03	1.77202e-02	4.78333e+02
1767	4.80183e+02	1.76700e+03	1.76906e-02	4.79000e+02
1769	4.80821e+02	1.76900e+03	1.76651e-02	4.79667e+02
1771	4.81489e+02	1.77100e+03	1.76370e-02	4.80333e+02
1773	4.82144e+02	1.77300e+03	1.76070e-02	4.81000e+02
1775	4.82804e+02	1.77500e+03	1.75844e-02	4.81667e+02
1777	4.83436e+02	1.77700e+03	1.75945e-02	4.82333e+02
1779	4.84081e+02	1.77900e+03	1.76206e-02	4.83000e+02
1781	4.84720e+02	1.78100e+03	1.76647e-02	4.83667e+02
1783	4.85377e+02	1.78300e+03	1.76744e-02	4.84333e+02
1785	4.86010e+02	1.78500e+03	1.76533e-02	4.85000e+02
1787	4.86622e+02	1.78700e+03	1.76386e-02	4.85667e+02
1789	4.87234e+02	1.78900e+03	1.76226e-02	4.86333e+02
1791	4.87832e+02	1.79100e+03	1.76174e-02	4.87000e+02
1793	4.88444e+02	1.79300e+03	1.76201e-02	4.87667e+02
1795	4.89047e+02	1.79500e+03	1.76176e-02	4.88333e+02
1797	4.89686e+02	1.79700e+03	1.76116e-02	4.89000e+02
1799	4.90315e+02	1.79900e+03	1.76084e-02	4.89667e+02
1801	4.90951e+02	1.80100e+03	1.76069e-02	4.90333e+02
1803	4.91583e+02	1.80300e+03	1.76081e-02	4.91000e+02
1805	4.92236e+02	1.80500e+03	1.76185e-02	4.91667e+02
1807	4.92890e+02	1.80700e+03	1.76301e-02	4.92333e+02
1809	4.93547e+02	1.80900e+03	1.76328e-02	4.93000e+02
1811	4.94199e+02	1.81100e+03	1.76146e-02	4.93667e+02
1813	4.94843e+02	1.81300e+03	1.75817e-02	4.94333e+02
1815	4.95506e+02	1.81500e+03	1.75685e-02	4.95000e+02
1817	4.96139e+02	1.81700e+03	1.75736e-02	4.95667e+02
1819	4.96798e+02	1.81900e+03	1.75851e-02	4.96333e+02
1821	4.97449e+02	1.82100e+03	1.76032e-02	4.97000e+02
1823	4.98084e+02	1.82300e+03	1.76078e-02	4.97667e+02
1825	4.98720e+02	1.82500e+03	1.75876e-02	4.98333e+02
1827	4.99348e+02	1.82700e+03	1.75595e-02	4.99000e+02
1829	5.00007e+02	1.82900e+03	1.75028e-02	4.99667e+02
1831	5.00636e+02	1.83100e+03	1.74434e-02	5.00333e+02
1833	5.01290e+02	1.83300e+03	1.73761e-02	5.01000e+02
1835	5.01946e+02	1.83500e+03	1.73290e-02	5.01667e+02
1837	5.02596e+02	1.83700e+03	1.73142e-02	5.02333e+02
1839	5.03253e+02	1.83900e+03	1.73081e-02	5.03000e+02
1841	5.03890e+02	1.84100e+03	1.73269e-02	5.03667e+02
1843	5.04524e+02	1.84300e+03	1.73389e-02	5.04333e+02
1845	5.05172e+02	1.84500e+03	1.73474e-02	5.05000e+02
1847	5.05815e+02	1.84700e+03	1.73498e-02	5.05667e+02
1849	5.06452e+02	1.84900e+03	1.73414e-02	5.06333e+02
1851	5.07097e+02	1.85100e+03	1.73329e-02	5.07000e+02
1853	5.07720e+02	1.85300e+03	1.73114e-02	5.07667e+02
1855	5.08373e+02	1.85500e+03	1.72828e-02	5.08333e+02
1857	5.09017e+02	1.85700e+03	1.72571e-02	5.09000e+02
1859	5.09653e+02	1.85900e+03	1.72437e-02	5.09667e+02
1861	5.10292e+02	1.86100e+03	1.72517e-02	5.10333e+02
1863	5.10937e+02	1.86300e+03	1.72603e-02	5.11000e+02
1865	5.11579e+02	1.86500e+03	1.72841e-02	5.11667e+02
1867	5.12217e+02	1.86700e+03	1.73065e-02	5.12333e+02
1869	5.12843e+02	1.86900e+03	1.73287e-02	5.13000e+02
1871	5.13491e+02	1.87100e+03	1.73334e-02	5.13667e+02
1873	5.14135e+02	1.87300e+03	1.73119e-02	5.14333e+02
1875	5.14776e+02	1.87500e+03	1.72906e-02	5.15000e+02
1877	5.15425e+02	1.87700e+03	1.72576e-02	5.15667e+02
1879	5.16066e+02	1.87900e+03	1.72350e-02	5.16333e+02
1881	5.16705e+02	1.88100e+03	1.72225e-02	5.17000e+02
1883	5.17355e+02	1.88300e+03	1.72086e-02	5.17667e+02
1885	5.18004e+02	1.88500e+03	1.71979e-02	5.18333e+02
1887	5.18657e+02	1.88700e+03	1.71917e-02	5.19000e+02
1889	5.19296e+02	1.88900e+03	1.71934e-02	5.19667e+02
1891	5.19939e+02	1.89100e+03	1.71968e-02	5.20333e+02
1893	5.20590e+02	1.89300e+03	1.72103e-02	5.21000e+02
1895	5.21233e+02	1.89500e+03	1.72261e-02	5.21667e+02
1897	5.21884e+02	1.89700e+03	1.72368e-02	5.22333e+02
1899	5.22532e+02	1.89900e+03	1.72342e-02	5.23000e+02
1901	5.23182e+02	1.90100e+03	1.72138e-02	5.23667e+02
1903	5.23833e+02	1.90300e+03	1.72009e-02	5.24333e+02
1905	5.24485e+02	1.90500e+03	1.71951e-02	5.25000e+02
1907	5.25141e+02	1.90700e+03	1.71900e-02	5.25667e+02
1909	5.25783e+02	1.90900e+03	1.71731e-02	5.26333e+02
1911	5.26434e+02	1.91100e+03	1.71487e-02	5.27000e+02
1913	5.27091e+02	1.91300e+03	1.71191e-02	5.27667e+02
1915	5.27740e+02	1.91500e+03	1.71039e-02	5.28333e+02
1917	5.28380e+02	1.91700e+03	1.71020e-02	5.29000e+02
1919	5.29049e+02	1.91900e+03	1.70932e-02	5.29667e+02
1921	5.29714e+02	1.92100e+03	1.70818e-02	5.30333e+02
1923	5.30380e+02	1.92300e+03	1.70708e-02	5.31000e+02
1925	5.31034e+02	1.92500e+03	1.70629e-02	5.31667e+02
1927	5.31706e+02	1.92700e+03	1.70595e-02	5.32333e+02
1929	5.32362e+02	1.92900e+03	1.70553e-02	5.33000e+02
1931	5.33014e+02	1.93100e+03	1.70397e-02	5.33667e+02
1933	5.33677e+02	1.93300e+03	1.70185e-02	5.34333e+02
1935	5.34345e+02	1.93500e+03	1.70109e-02	5.35000e+02
1937	5.35004e+02	1.93700e+03	1.70102e-02	5.35667e+02
1939	5.35658e+02	1.93900e+03	1.70079e-02	5.36333e+02
1941	5.36327e+02	1.94100e+03	1.70075e-02	5.37000e+02
1943	5.36983e+02	1.94300e+03	1.70041e-02	5.37667e+02
1945	5.37652e+02	1.94500e+03	1.69994e-02	5.38333e+02
1947	5.38308e+02	1.94700e+03	1.70030e-02	5.39000e+02
1949	5.38967e+02	1.94900e+03	1.70164e-02	5.39667e+02
1951	5.39616e+02	1.95100e+03	1.70282e-02	5.40333e+02
1953	5.40279e+02	1.95300e+03	1.70424e-02	5.41000e+02
1955	5.40930e+02	1.95500e+03	1.70530e-02	5.41667e+02
1957	5.41592e+02	1.95700e+03	1.70508e-02	5.42333e+02
1959	5.42241e+02	1.95900e+03	1.70407e-02	5.43000e+02
1961	5.42917e+02	1.96100e+03	1.70296e-02	5.43667e+02
1963	5.43560e+02	1.96300e+03	1.70307e-02	5.44333e+02
1965	5.44229e+02	1.96500e+03	1.70417e-02	5.45000e+02
1967	5.44882e+02	1.96700e+03	1.70458e-02	5.45667e+02
1969	5.45545e+02	1.96900e+03	1.70444e-02	5.46333e+02
1971	5.46199e+02	1.97100e+03	1.70438e-02	5.47000e+02
1973	5.46873e+02	1.97300e+03	1.70438e-02	5.47667e+02
1975	5.47528e+02	1.97500e+03	1.70446e-02	5.48333e+02
1977	5.48193e+02	1.97700e+03	1.70362e-02	5.49000e+02
1979	5.48849e+02	1.97900e+03	1.70140e-02	5.49667e+02
1981	5.49516e+02	1.98100e+03	1.69848e-02	5.50333e+02
1983	5.50183e+02	1.98300e+03	1.69625e-02	5.51000e+02
1985	5.50847e+02	1.98500e+03	1.69269e-02	5.51667e+02
1987	5.51516e+02	1.98700e+03	1.68820e-02	5.52333e+02
1989	5.52188e+02	1.98900e+03	1.68340e-02	5.53000e+02
1991	5.52851e+02	1.99100e+03	1.68037e-02	5.53667e+02
1993	5.53513e+02	1.99300e+03	1.67891e-02	5.54333e+02
1995	5.54178e+02	1.99500e+03	1.67584e-02	5.55000e+02
1997	5.54844e+02	1.99700e+03	1.67171e-02	5.55667e+02
1999	5.55492e+02	1.99900e+03	1.66778e-02	5.56333e+02
2001	5.56155e+02	2.00100e+03	1.66471e-02	5.57000e+02
2003	5.56820e+02	2.00300e+03	1.66398e-02	5.57667e+02
2005	5.57471e+02	2.00500e+03	1.66597e-02	5.58333e+02
2007	5.58125e+02	2.00700e+03	1.66733e-02	5.59000e+02
2009	5.58795e+02	2.00900e+03	1.66944e-02	5.59667e+02
2011	5.59447e+02	2.01100e+03	1.67136e-02	5.60333e+02
2013	5.60116e+02	2.01300e+03	1.67288e-02	5.61000e+02
2015	5.60774e+02	2.01500e+03	1.67354e-02	5.61667e+02
2017	5.61431e+02	2.01700e+03	1.67233e-02	5.62333e+02
2019	5.62103e+02	2.01900e+03	1.67065e-02	5.63000e+02
2021	5.62771e+02	2.02100e+03	1.66960e-02	5.63667e+02
2023	5.63451e+02	2.02300e+03	1.66979e-02	5.64333e+02
2025	5.64120e+02	2.02500e+03	1.67182e-02	5.65000e+02
2027	5.64801e+02	2.02700e+03	1.67294e-02	5.65667e+02
2029	5.65492e+02	2.02900e+03	1.67416e-02	5.66333e+02
2031	5.66173e+02	2.03100e+03	1.67557e-02	5.67000e+02
2033	5.66856e+02	2.03300e+03	1.67710e-02	5.67667e+02
2035	5.67547e+02	2.03500e+03	1.67833e-02	5.68333e+02
2037	5.68205e+02	2.03700e+03	1.67899e-02	5.69000e+02
2039	5.68884e+02	2.03900e+03	1.67821e-02	5.69667e+02
2041	5.69578e+02	2.04100e+03	1.67469e-02	5.70333e+02
2043	5.70248e+02	2.04300e+03	1.67081e-02	5.71000e+02
2045	5.70904e+02	2.04500e+03	1.66534e-02	5.71667e+02
2047	5.71578e+02	2.04700e+03	1.66189e-02	5.72333e+02
2049	5.72229e+02	2.04900e+03	1.66029e-02	5.73000e+02
2051	5.72902e+02	2.05100e+03	1.65897e-02	5.73667e+02
2053	5.73611e+02	2.05300e+03	1.65892e-02	5.74333e+02
2055	5.74260e+02	2.05500e+03	1.65855e-02	5.75000e+02
2057	5.74923e+02	2.05700e+03	1.65774e-02	5.75667e+02
2059	5.75584e+02	2.05900e+03	1.65699e-02	5.76333e+02
2061	5.76250e+02	2.06100e+03	1.65641e-02	5.77000e+02
2063	5.76898e+02	2.06300e+03	1.65659e-02	5.77667e+02
2065	5.77533e+02	2.06500e+03	1.65755e-02	5.78333e+02
2067	5.78167e+02	2.06700e+03	1.65696e-02	5.79000e+02
2069	5.78800e+02	2.06900e+03	1.65453e-02	5.79667e+02
2071	5.79446e+02	2.07100e+03	1.65220e-02	5.80333e+02
2073	5.80090e+02	2.07300e+03	1.64873e-02	5.81000e+02
2075	5.80750e+02	2.07500e+03	1.64529e-02	5.81667e+02
2077	5.81415e+02	2.07700e+03	1.64311e-02	5.82333e+02
2079	5.82082e+02	2.07900e+03	1.64242e-02	5.83000e+02
2081	5.82762e+02	2.08100e+03	1.64380e-02	5.83667e+02
2083	5.83427e+02	2.08300e+03	1.64469e-02	5.84333e+02
2085	5.84093e+02	2.08500e+03	1.64505e-02	5.85000e+02
2087	5.84782e+02	2.08700e+03	1.64520e-02	5.85667e+02
2089	5.85471e+02	2.08900e+03	1.64537e-02	5.86333e+02
2091	5.86172e+02	2.09100e+03	1.64685e-02	5.87000e+02
2093	5.86872e+02	2.09300e+03	1.65010e-02	5.87667e+02
2095	5.87591e+02	2.09500e+03	1.65337e-02	5.88333e+02
2097	5.88256e+02	2.09700e+03	1.65724e-02	5.89000e+02
2099	5.88959e+02	2.09900e+03	1.65953e-02	5.89667e+02
2101	5.89637e+02	2.10100e+03	1.65900e-02	5.90333e+02
2103	5.90260e+02	2.10300e+03	1.65740e-02	5.91000e+02
2105	5.90883e+02	2.10500e+03	1.65378e-02	5.91667e+02
2107	5.91524e+02	2.10700e+03	1.65207e-02	5.92333e+02
2109	5.92168e+02	2.10900e+03	1.65076e-02	5.93000e+02
2111	5.92797e+02	2.11100e+03	1.64750e-02	5.93667e+02
2113	5.93445e+02	2.11300e+03	1.64267e-02	5.94333e+02
2115	5.94097e+02	2.11500e+03	1.63990e-02	5.95000e+02
2117	5.94743e+02	2.11700e+03	1.63907e-02	5.95667e+02
2119	5.95400e+02	2.11900e+03	1.63855e-02	5.96333e+02
2121	5.96056e+02	2.12100e+03	1.63949e-02	5.97000e+02
2123	5.96726e+02	2.12300e+03	1.64021e-02	5.97667e+02
2125	5.97385e+02	2.12500e+03	1.64136e-02	5.98333e+02
2127	5.98028e+02	2.12700e+03	1.64214e-02	5.99000e+02
2129	5.98685e+02	2.12900e+03	1.64202e-02	5.99667e+02
2131	5.99310e+02	2.13100e+03	1.64126e-02	6.00333e+02
2133	5.99995e+02	2.13300e+03	1.64046e-02	6.01000e+02
2135	6.00696e+02	2.13500e+03	1.64146e-02	6.01667e+02
2137	6.01400e+02	2.13700e+03	1.64432e-02	6.02333e+02
2139	6.02286e+02	2.13900e+03	1.64558e-02	6.03000e+02
2141	6.02994e+02	2.14100e+03	1.64394e-02	6.03667e+02
2143	6.03989e+02	2.14300e+03	1.64023e-02	6.04333e+02
2145	6.04489e+02	2.14500e+03	1.63258e-02	6.05000e+02
2147	6.05031e+02	2.14700e+03	1.62620e-02	6.05667e+02
2149	6.05625e+02	2.14900e+03	1.62204e-02	6.06333e+02
2151	6.06279e+02	2.15100e+03	1.62069e-02	6.07000e+02
2153	6.06910e+02	2.15300e+03	1.62406e-02	6.07667e+02
2155	6.07491e+02	2.15500e+03	1.62692e-02	6.08333e+02
2157	6.08085e+02	2.15700e+03	1.63093e-02	6.09000e+02
2159	6.08683e+02	2.15900e+03	1.63268e-02	6.09667e+02
2161	6.09298e+02	2.16100e+03	1.63339e-02	6.10333e+02
2163	6.09925e+02	2.16300e+03	1.63509e-02	6.11000e+02
2165	6.10575e+02	2.16500e+03	1.63704e-02	6.11667e+02
2167	6.11227e+02	2.16700e+03	1.63883e-02	6.12333e+02
2169	6.11879e+02	2.16900e+03	1.63887e-02	6.13000e+02
2171	6.12524e+02	2.17100e+03	1.63771e-02	6.13667e+02
2173	6.13172e+02	2.17300e+03	1.63427e-02	6.14333e+02
2175	6.13822e+02	2.17500e+03	1.63172e-02	6.15000e+02
2177	6.14469e+02	2.17700e+03	1.62890e-02	6.15667e+02
2179	6.15126e+02	2.17900e+03	1.62604e-02	6.16333e+02
2181	6.15772e+02	2.18100e+03	1.62424e-02	6.17000e+02
2183	6.16434e+02	2.18300e+03	1.62368e-02	6.17667e+02
2185	6.17093e+02	2.18500e+03	1.62379e-02	6.18333e+02
2187	6.17755e+02	2.18700e+03	1.62123e-02	6.19000e+02
2189	6.18414e+02	2.18900e+03	1.61602e-02	6.19667e+02
2191	6.19081e+02	2.19100e+03	1.61163e-02	6.20333e+02
2193	6.19730e+02	2.19300e+03	1.60815e-02	6.21000e+02
2195	6.20414e+02	2.19500e+03	1.60611e-02	6.21667e+02
2197	6.21076e+02	2.19700e+03	1.60714e-02	6.22333e+02
2199	6.21746e+02	2.19900e+03	1.60879e-02	6.23000e+02
2201	6.22406e+02	2.20100e+03	1.61249e-02	6.23667e+02
2203	6.23062e+02	2.20300e+03	1.61554e-02	6.24333e+02
2205	6.23714e+02	2.20500e+03	1.61781e-02	6.25000e+02
2207	6.24382e+02	2.20700e+03	1.61894e-02	6.25667e+02
2209	6.25035e+02	2.20900e+03	1.61816e-02	6.26333e+02
2211	6.25678e+02	2.21100e+03	1.61757e-02	6.27000e+02
2213	6.26347e+02	2.21300e+03	1.61542e-02	6.27667e+02
2215	6.26992e+02	2.21500e+03	1.61262e-02	6.28333e+02
2217	6.27637e+02	2.21700e+03	1.60834e-02	6.29000e+02
2219	6.28285e+02	2.21900e+03	1.60559e-02	6.29667e+02
2221	6.28927e+02	2.22100e+03	1.60417e-02	6.30333e+02
2223	6.29583e+02	2.22300e+03	1.60325e-02	6.31000e+02
2225	6.30221e+02	2.22500e+03	1.60443e-02	6.31667e+02
2227	6.30873e+02	2.22700e+03	1.60657e-02	6.32333e+02
2229	6.31513e+02	2.22900e+03	1.60990e-02	6.33000e+02
2231	6.32134e+02	2.23100e+03	1.61238e-02	6.33667e+02
2233	6.32762e+02	2.23300e+03	1.61298e-02	6.34333e+02
2235	6.33392e+02	2.23500e+03	1.61297e-02	6.35000e+02
2237	6.34019e+02	2.23700e+03	1.61047e-02	6.35667e+02
2239	6.34664e+02	2.23900e+03	1.60810e-02	6.36333e+02
2241	6.35310e+02	2.24100e+03	1.60500e-02	6.37000e+02
2243	6.35953e+02	2.24300e+03	1.60277e-02	6.37667e+02
2245	6.36584e+02	2.24500e+03	1.60284e-02	6.38333e+02
2247	6.37238e+02	2.24700e+03	1.60415e-02	6.39000e+02
2249	6.37889e+02	2.24900e+03	1.60721e-02	6.39667e+02
2251	6.38542e+02	2.25100e+03	1.60739e-02	6.40333e+02
2253	6.39185e+02	2.25300e+03	1.60478e-02	6.41000e+02
2255	6.39835e+02	2.25500e+03	1.60163e-02	6.41667e+02
2257	6.40488e+02	2.25700e+03	1.59705e-02	6.42333e+02
2259	6.41139e+02	2.25900e+03	1.59417e-02	6.43000e+02
2261	6.41770e+02	2.26100e+03	1.59391e-02	6.43667e+02
2263	6.42433e+02	2.26300e+03	1.59426e-02	6.44333e+02
2265	6.43087e+02	2.26500e+03	1.59685e-02	6.45000e+02
2267	6.43734e+02	2.26700e+03	1.59798e-02	6.45667e+02
2269	6.44383e+02	2.26900e+03	1.59699e-02	6.46333e+02
2271	6.45028e+02	2.27100e+03	1.59516e-02	6.47000e+02
2273	6.45697e+02	2.27300e+03	1.59222e-02	6.47667e+02
2275	6.46350e+02	2.27500e+03	1.59115e-02	6.48333e+02
2277	6.47008e+02	2.27700e+03	1.59027e-02	6.49000e+02
2279	6.47662e+02	2.27900e+03	1.58853e-02	6.49667e+02
2281	6.48328e+02	2.28100e+03	1.58817e-02	6.50333e+02
2283	6.48970e+02	2.28300e+03	1.59007e-02	6.51000e+02
2285	6.49643e+02	2.28500e+03	1.59413e-02	6.51667e+02
2287	6.50286e+02	2.28700e+03	1.59607e-02	6.52333e+02
2289	6.50946e+02	2.28900e+03	1.59731e-02	6.53000e+02
2291	6.51598e+02	2.29100e+03	1.59964e-02	6.53667e+02
2293	6.52258e+02	2.29300e+03	1.60292e-02	6.54333e+02
2295	6.52922e+02	2.29500e+03	1.60579e-02	6.55000e+02
2297	6.53575e+02	2.29700e+03	1.60832e-02	6.55667e+02
2299	6.54236e+02	2.29900e+03	1.60989e-02	6.56333e+02
2301	6.54899e+02	2.30100e+03	1.60897e-02	6.57000e+02
2303	6.55548e+02	2.30300e+03	1.60819e-02	6.57667e+02
2305	6.56219e+02	2.30500e+03	1.60732e-02	6.58333e+02
2307	6.56874e+02	2.30700e+03	1.60832e-02	6.59000e+02
2309	6.57536e+02	2.30900e+03	1.61085e-02	6.59667e+02
2311	6.58191e+02	2.31100e+03	1.61289e-02	6.60333e+02
2313	6.58852e+02	2.31300e+03	1.61537e-02	6.61000e+02
2315	6.59520e+02	2.31500e+03	1.61783e-02	6.61667e+02
2317	6.60189e+02	2.31700e+03	1.62057e-02	6.62333e+02
2319	6.60846e+02	2.31900e+03	1.62256e-02	6.63000e+02
2321	6.61502e+02	2.32100e+03	1.62268e-02	6.63667e+02
2323	6.62164e+02	2.32300e+03	1.62093e-02	6.64333e+02
2325	6.62828e+02	2.32500e+03	1.61539e-02	6.65000e+02
2327	6.63483e+02	2.32700e+03	1.61062e-02	6.65667e+02
2329	6.64136e+02	2.32900e+03	1.60600e-02	6.66333e+02
2331	6.64807e+02	2.33100e+03	1.60301e-02	6.67000e+02
2333	6.65455e+02	2.33300e+03	1.60238e-02	6.67667e+02
2335	6.66118e+02	2.33500e+03	1.60087e-02	6.68333e+02
2337	6.66782e+02	2.33700e+03	1.60063e-02	6.69000e+02
2339	6.67451e+02	2.33900e+03	1.59992e-02	6.69667e+02
2341	6.68107e+02	2.34100e+03	1.59928e-02	6.70333e+02
2343	6.68771e+02	2.34300e+03	1.59879e-02	6.71000e+02
2345	6.69427e+02	2.34500e+03	1.59911e-02	6.71667e+02
2347	6.70082e+02	2.34700e+03	1.59932e-02	6.72333e+02
2349	6.70748e+02	2.34900e+03	1.59939e-02	6.73000e+02
2351	6.71410e+02	2.35100e+03	1.59914e-02	6.73667e+02
2353	6.72062e+02	2.35300e+03	1.59836e-02	6.74333e+02
2355	6.72729e+02	2.35500e+03	1.59712e-02	6.75000e+02
2357	6.73385e+02	2.35700e+03	1.59518e-02	6.75667e+02
2359	6.74052e+02	2.35900e+03	1.59320e-02	6.76333e+02
2361	6.74713e+02	2.36100e+03	1.59139e-02	6.77000e+02
2363	6.75376e+02	2.36300e+03	1.59136e-02	6.77667e+02
2365	6.76024e+02	2.36500e+03	1.59292e-02	6.78333e+02
2367	6.76690e+02	2.36700e+03	1.59329e-02	6.79000e+02
2369	6.77348e+02	2.36900e+03	1.59298e-02	6.79667e+02
2371	6.78011e+02	2.37100e+03	1.59182e-02	6.80333e+02
2373	6.78680e+02	2.37300e+03	1.58913e-02	6.81000e+02
2375	6.79336e+02	2.37500e+03	1.58636e-02	6.81667e+02
2377	6.79992e+02	2.37700e+03	1.58355e-02	6.82333e+02
2379	6.80654e+02	2.37900e+03	1.58243e-02	6.83000e+02
2381	6.81323e+02	2.38100e+03	1.58341e-02	6.83667e+02
2383	6.81978e+02	2.38300e+03	1.58374e-02	6.84333e+02
2385	6.82646e+02	2.38500e+03	1.58413e-02	6.85000e+02
2387	6.83306e+02	2.38700e+03	1.58335e-02	6.85667e+02
2389	6.83976e+02	2.38900e+03	1.58128e-02	6.86333e+02
2391	6.84626e+02	2.39100e+03	1.58013e-02	6.87000e+02
2393	6.85302e+02	2.39300e+03	1.57934e-02	6.87667e+02
2395	6.85960e+02	2.39500e+03	1.57815e-02	6.88333e+02
2397	6.86623e+02	2.39700e+03	1.57773e-02	6.89000e+02
2399	6.87282e+02	2.39900e+03	1.57913e-02	6.89667e+02
2401	6.87934e+02	2.40100e+03	1.58204e-02	6.90333e+02
2403	6.88596e+02	2.40300e+03	1.58389e-02	6.91000e+02
2405	6.89055e+02	2.40500e+03	1.58614e-02	6.91667e+02
2407	6.89392e+02	2.40700e+03	1.58910e-02	6.92333e+02
2409	6.89872e+02	2.40900e+03	1.59175e-02	6.93000e+02
2411	6.90341e+02	2.41100e+03	1.59428e-02	6.93667e+02
2413	6.90784e+02	2.41300e+03	1.59490e-02	6.94333e+02
2415	6.91194e+02	2.41500e+03	1.59415e-02	6.95000e+02
2417	6.91567e+02	2.41700e+03	1.59128e-02	6.95667e+02
2419	6.91930e+02	2.41900e+03	1.58901e-02	6.96333e+02
2421	6.92269e+02	2.42100e+03	1.58667e-02	6.97000e+02
2423	6.92587e+02	2.42300e+03	1.58457e-02	6.97667e+02
2425	6.92884e+02	2.42500e+03	1.58316e-02	6.98333e+02
2427	6.93174e+02	2.42700e+03	1.58271e-02	6.99000e+02
2429	6.93428e+02	2.42900e+03	1.58342e-02	6.99667e+02
2430	6.93561e+02	2.43000e+03	1.58369e-02	7.00000e+02