File: Experiments/TUBS/tga_nonisotherm/tga_dynamic_n2_dyn45_piece_3mg_r3.txt
index	ts	t	weight	tr
[#]	[°C]	[s]	[mg]	[°C]
657	1.32269e+02	6.57000e+02	3.04336e+00	1.32752e+02
658	1.33053e+02	6.58000e+02	3.04337e+00	1.33502e+02
659	1.33822e+02	6.59000e+02	3.04339e+00	1.34252e+02
660	1.34584e+02	6.60000e+02	3.04340e+00	1.35002e+02
661	1.35346e+02	6.61000e+02	3.04340e+00	1.35752e+02
662	1.36125e+02	6.62000e+02	3.04340e+00	1.36502e+02
663	1.36897e+02	6.63000e+02	3.04340e+00	1.37252e+02
664	1.37655e+02	6.64000e+02	3.04341e+00	1.38002e+02
665	1.38431e+02	6.65000e+02	3.04344e+00	1.38752e+02
666	1.39195e+02	6.66000e+02	3.04349e+00	1.39502e+02
667	1.39956e+02	6.67000e+02	3.04355e+00	1.40252e+02
668	1.40719e+02	6.68000e+02	3.04366e+00	1.41002e+02
669	1.41480e+02	6.69000e+02	3.04372e+00	1.41752e+02
670	1.42256e+02	6.70000e+02	3.04374e+00	1.42502e+02
671	1.43003e+02	6.71000e+02	3.04372e+00	1.43252e+02
672	1.43767e+02	6.72000e+02	3.04360e+00	1.44002e+02
673	1.44544e+02	6.73000e+02	3.04346e+00	1.44752e+02
674	1.45309e+02	6.74000e+02	3.04329e+00	1.45502e+02
675	1.46058e+02	6.75000e+02	3.04309e+00	1.46252e+02
676	1.46818e+02	6.76000e+02	3.04275e+00	1.47002e+02
677	1.47582e+02	6.77000e+02	3.04249e+00	1.47752e+02
678	1.48350e+02	6.78000e+02	3.04225e+00	1.48502e+02
679	1.49108e+02	6.79000e+02	3.04203e+00	1.49252e+02
680	1.49872e+02	6.80000e+02	3.04188e+00	1.50002e+02
681	1.50640e+02	6.81000e+02	3.04177e+00	1.50752e+02
682	1.51392e+02	6.82000e+02	3.04170e+00	1.51503e+02
683	1.52171e+02	6.83000e+02	3.04166e+00	1.52253e+02
684	1.52927e+02	6.84000e+02	3.04178e+00	1.53003e+02
685	1.53695e+02	6.85000e+02	3.04184e+00	1.53753e+02
686	1.54459e+02	6.86000e+02	3.04190e+00	1.54503e+02
687	1.55215e+02	6.87000e+02	3.04197e+00	1.55253e+02
688	1.55981e+02	6.88000e+02	3.04208e+00	1.56003e+02
689	1.56743e+02	6.89000e+02	3.04215e+00	1.56753e+02
690	1.57497e+02	6.90000e+02	3.04221e+00	1.57503e+02
691	1.58269e+02	6.91000e+02	3.04226e+00	1.58253e+02
692	1.59034e+02	6.92000e+02	3.04225e+00	1.59003e+02
693	1.59790e+02	6.93000e+02	3.04225e+00	1.59753e+02
694	1.60556e+02	6.94000e+02	3.04223e+00	1.60503e+02
695	1.61308e+02	6.95000e+02	3.04220e+00	1.61253e+02
696	1.62082e+02	6.96000e+02	3.04210e+00	1.62003e+02
697	1.62839e+02	6.97000e+02	3.04202e+00	1.62753e+02
698	1.63583e+02	6.98000e+02	3.04194e+00	1.63503e+02
699	1.64371e+02	6.99000e+02	3.04186e+00	1.64253e+02
700	1.65124e+02	7.00000e+02	3.04174e+00	1.65003e+02
701	1.65889e+02	7.01000e+02	3.04165e+00	1.65753e+02
702	1.66651e+02	7.02000e+02	3.04157e+00	1.66503e+02
703	1.67390e+02	7.03000e+02	3.04149e+00	1.67253e+02
704	1.68156e+02	7.04000e+02	3.04144e+00	1.68003e+02
705	1.68928e+02	7.05000e+02	3.04139e+00	1.68753e+02
706	1.69695e+02	7.06000e+02	3.04134e+00	1.69503e+02
707	1.70458e+02	7.07000e+02	3.04129e+00	1.70253e+02
708	1.71216e+02	7.08000e+02	3.04126e+00	1.71003e+02
709	1.71981e+02	7.09000e+02	3.04121e+00	1.71753e+02
710	1.72739e+02	7.10000e+02	3.04115e+00	1.72503e+02
711	1.73499e+02	7.11000e+02	3.04109e+00	1.73253e+02
712	1.74257e+02	7.12000e+02	3.04098e+00	1.74003e+02
713	1.75018e+02	7.13000e+02	3.04088e+00	1.74753e+02
714	1.75789e+02	7.14000e+02	3.04076e+00	1.75503e+02
715	1.76537e+02	7.15000e+02	3.04063e+00	1.76254e+02
716	1.77303e+02	7.16000e+02	3.04047e+00	1.77004e+02
717	1.78075e+02	7.17000e+02	3.04035e+00	1.77754e+02
718	1.78828e+02	7.18000e+02	3.04025e+00	1.78504e+02
719	1.79577e+02	7.19000e+02	3.04017e+00	1.79254e+02
720	1.80349e+02	7.20000e+02	3.04013e+00	1.80004e+02
721	1.81120e+02	7.21000e+02	3.04009e+00	1.80754e+02
722	1.81880e+02	7.22000e+02	3.04006e+00	1.81504e+02
723	1.82638e+02	7.23000e+02	3.04003e+00	1.82254e+02
724	1.83394e+02	7.24000e+02	3.04004e+00	1.83004e+02
725	1.84162e+02	7.25000e+02	3.04001e+00	1.83754e+02
726	1.84922e+02	7.26000e+02	3.03997e+00	1.84504e+02
727	1.85690e+02	7.27000e+02	3.03993e+00	1.85254e+02
728	1.86436e+02	7.28000e+02	3.03985e+00	1.86004e+02
729	1.87198e+02	7.29000e+02	3.03978e+00	1.86754e+02
730	1.87977e+02	7.30000e+02	3.03970e+00	1.87504e+02
731	1.88743e+02	7.31000e+02	3.03961e+00	1.88254e+02
732	1.89501e+02	7.32000e+02	3.03949e+00	1.89004e+02
733	1.90262e+02	7.33000e+02	3.03937e+00	1.89754e+02
734	1.91018e+02	7.34000e+02	3.03924e+00	1.90504e+02
735	1.91785e+02	7.35000e+02	3.03909e+00	1.91254e+02
736	1.92548e+02	7.36000e+02	3.03888e+00	1.92004e+02
737	1.93314e+02	7.37000e+02	3.03867e+00	1.92754e+02
738	1.94074e+02	7.38000e+02	3.03845e+00	1.93504e+02
739	1.94831e+02	7.39000e+02	3.03821e+00	1.94254e+02
740	1.95591e+02	7.40000e+02	3.03789e+00	1.95004e+02
741	1.96355e+02	7.41000e+02	3.03760e+00	1.95754e+02
742	1.97116e+02	7.42000e+02	3.03731e+00	1.96504e+02
743	1.97887e+02	7.43000e+02	3.03702e+00	1.97254e+02
744	1.98641e+02	7.44000e+02	3.03670e+00	1.98004e+02
745	1.99407e+02	7.45000e+02	3.03640e+00	1.98754e+02
746	2.00166e+02	7.46000e+02	3.03610e+00	1.99504e+02
747	2.00933e+02	7.47000e+02	3.03581e+00	2.00255e+02
748	2.01703e+02	7.48000e+02	3.03551e+00	2.01005e+02
749	2.02467e+02	7.49000e+02	3.03520e+00	2.01755e+02
750	2.03215e+02	7.50000e+02	3.03489e+00	2.02505e+02
751	2.03983e+02	7.51000e+02	3.03456e+00	2.03255e+02
752	2.04750e+02	7.52000e+02	3.03420e+00	2.04005e+02
753	2.05506e+02	7.53000e+02	3.03384e+00	2.04755e+02
754	2.06279e+02	7.54000e+02	3.03347e+00	2.05505e+02
755	2.07030e+02	7.55000e+02	3.03309e+00	2.06255e+02
756	2.07801e+02	7.56000e+02	3.03268e+00	2.07005e+02
757	2.08565e+02	7.57000e+02	3.03229e+00	2.07755e+02
758	2.09324e+02	7.58000e+02	3.03190e+00	2.08505e+02
759	2.10084e+02	7.59000e+02	3.03151e+00	2.09255e+02
760	2.10859e+02	7.60000e+02	3.03111e+00	2.10005e+02
761	2.11622e+02	7.61000e+02	3.03070e+00	2.10755e+02
762	2.12386e+02	7.62000e+02	3.03028e+00	2.11505e+02
763	2.13146e+02	7.63000e+02	3.02985e+00	2.12255e+02
764	2.13906e+02	7.64000e+02	3.02936e+00	2.13005e+02
765	2.14672e+02	7.65000e+02	3.02887e+00	2.13755e+02
766	2.15435e+02	7.66000e+02	3.02836e+00	2.14505e+02
767	2.16202e+02	7.67000e+02	3.02783e+00	2.15255e+02
768	2.16962e+02	7.68000e+02	3.02721e+00	2.16005e+02
769	2.17726e+02	7.69000e+02	3.02662e+00	2.16755e+02
770	2.18487e+02	7.70000e+02	3.02602e+00	2.17505e+02
771	2.19249e+02	7.71000e+02	3.02543e+00	2.18255e+02
772	2.20019e+02	7.72000e+02	3.02481e+00	2.19005e+02
773	2.20788e+02	7.73000e+02	3.02423e+00	2.19755e+02
774	2.21562e+02	7.74000e+02	3.02367e+00	2.20505e+02
775	2.22317e+02	7.75000e+02	3.02313e+00	2.21255e+02
776	2.23091e+02	7.76000e+02	3.02266e+00	2.22005e+02
777	2.23851e+02	7.77000e+02	3.02217e+00	2.22755e+02
778	2.24605e+02	7.78000e+02	3.02170e+00	2.23505e+02
779	2.25365e+02	7.79000e+02	3.02123e+00	2.24255e+02
780	2.26125e+02	7.80000e+02	3.02080e+00	2.25006e+02
781	2.26893e+02	7.81000e+02	3.02034e+00	2.25756e+02
782	2.27644e+02	7.82000e+02	3.01986e+00	2.26506e+02
783	2.28405e+02	7.83000e+02	3.01938e+00	2.27256e+02
784	2.29170e+02	7.84000e+02	3.01886e+00	2.28006e+02
785	2.29939e+02	7.85000e+02	3.01834e+00	2.28756e+02
786	2.30702e+02	7.86000e+02	3.01781e+00	2.29506e+02
787	2.31444e+02	7.87000e+02	3.01728e+00	2.30256e+02
788	2.32221e+02	7.88000e+02	3.01671e+00	2.31006e+02
789	2.32977e+02	7.89000e+02	3.01615e+00	2.31756e+02
790	2.33754e+02	7.90000e+02	3.01560e+00	2.32506e+02
791	2.34543e+02	7.91000e+02	3.01503e+00	2.33256e+02
792	2.35314e+02	7.92000e+02	3.01445e+00	2.34006e+02
793	2.36084e+02	7.93000e+02	3.01386e+00	2.34756e+02
794	2.36875e+02	7.94000e+02	3.01326e+00	2.35506e+02
795	2.37647e+02	7.95000e+02	3.01265e+00	2.36256e+02
796	2.38402e+02	7.96000e+02	3.01201e+00	2.37006e+02
797	2.39163e+02	7.97000e+02	3.01138e+00	2.37756e+02
798	2.39932e+02	7.98000e+02	3.01075e+00	2.38506e+02
799	2.40700e+02	7.99000e+02	3.01013e+00	2.39256e+02
800	2.41460e+02	8.00000e+02	3.00950e+00	2.40006e+02
801	2.42268e+02	8.01000e+02	3.00889e+00	2.40756e+02
802	2.43017e+02	8.02000e+02	3.00830e+00	2.41506e+02
803	2.43781e+02	8.03000e+02	3.00772e+00	2.42256e+02
804	2.44565e+02	8.04000e+02	3.00719e+00	2.43006e+02
805	2.45339e+02	8.05000e+02	3.00664e+00	2.43756e+02
806	2.46102e+02	8.06000e+02	3.00610e+00	2.44506e+02
807	2.46859e+02	8.07000e+02	3.00556e+00	2.45256e+02
808	2.47637e+02	8.08000e+02	3.00504e+00	2.46006e+02
809	2.48377e+02	8.09000e+02	3.00450e+00	2.46756e+02
810	2.49163e+02	8.10000e+02	3.00394e+00	2.47506e+02
811	2.49923e+02	8.11000e+02	3.00338e+00	2.48256e+02
812	2.50679e+02	8.12000e+02	3.00275e+00	2.49007e+02
813	2.51436e+02	8.13000e+02	3.00212e+00	2.49757e+02
814	2.52217e+02	8.14000e+02	3.00146e+00	2.50507e+02
815	2.52975e+02	8.15000e+02	3.00078e+00	2.51257e+02
816	2.53743e+02	8.16000e+02	3.00001e+00	2.52007e+02
817	2.54506e+02	8.17000e+02	2.99929e+00	2.52757e+02
818	2.55275e+02	8.18000e+02	2.99858e+00	2.53507e+02
819	2.56040e+02	8.19000e+02	2.99787e+00	2.54257e+02
820	2.56811e+02	8.20000e+02	2.99719e+00	2.55007e+02
821	2.57573e+02	8.21000e+02	2.99653e+00	2.55757e+02
822	2.58339e+02	8.22000e+02	2.99588e+00	2.56507e+02
823	2.59113e+02	8.23000e+02	2.99523e+00	2.57257e+02
824	2.59875e+02	8.24000e+02	2.99462e+00	2.58007e+02
825	2.60638e+02	8.25000e+02	2.99395e+00	2.58757e+02
826	2.61421e+02	8.26000e+02	2.99326e+00	2.59507e+02
827	2.62175e+02	8.27000e+02	2.99255e+00	2.60257e+02
828	2.62927e+02	8.28000e+02	2.99177e+00	2.61007e+02
829	2.63708e+02	8.29000e+02	2.99102e+00	2.61757e+02
830	2.64457e+02	8.30000e+02	2.99029e+00	2.62507e+02
831	2.65210e+02	8.31000e+02	2.98956e+00	2.63257e+02
832	2.65964e+02	8.32000e+02	2.98883e+00	2.64007e+02
833	2.66696e+02	8.33000e+02	2.98812e+00	2.64757e+02
834	2.67440e+02	8.34000e+02	2.98741e+00	2.65507e+02
835	2.68179e+02	8.35000e+02	2.98670e+00	2.66257e+02
836	2.68932e+02	8.36000e+02	2.98601e+00	2.67007e+02
837	2.69688e+02	8.37000e+02	2.98529e+00	2.67757e+02
838	2.70454e+02	8.38000e+02	2.98457e+00	2.68507e+02
839	2.71195e+02	8.39000e+02	2.98385e+00	2.69257e+02
840	2.71934e+02	8.40000e+02	2.98312e+00	2.70007e+02
841	2.72678e+02	8.41000e+02	2.98240e+00	2.70757e+02
842	2.73436e+02	8.42000e+02	2.98170e+00	2.71507e+02
843	2.74188e+02	8.43000e+02	2.98099e+00	2.72257e+02
844	2.74938e+02	8.44000e+02	2.98031e+00	2.73007e+02
845	2.75701e+02	8.45000e+02	2.97961e+00	2.73758e+02
846	2.76455e+02	8.46000e+02	2.97890e+00	2.74508e+02
847	2.77221e+02	8.47000e+02	2.97818e+00	2.75258e+02
848	2.78017e+02	8.48000e+02	2.97740e+00	2.76008e+02
849	2.78770e+02	8.49000e+02	2.97659e+00	2.76758e+02
850	2.79533e+02	8.50000e+02	2.97576e+00	2.77508e+02
851	2.80282e+02	8.51000e+02	2.97489e+00	2.78258e+02
852	2.81023e+02	8.52000e+02	2.97390e+00	2.79008e+02
853	2.81799e+02	8.53000e+02	2.97294e+00	2.79758e+02
854	2.82551e+02	8.54000e+02	2.97198e+00	2.80508e+02
855	2.83307e+02	8.55000e+02	2.97102e+00	2.81258e+02
856	2.84065e+02	8.56000e+02	2.97005e+00	2.82008e+02
857	2.84821e+02	8.57000e+02	2.96913e+00	2.82758e+02
858	2.85581e+02	8.58000e+02	2.96825e+00	2.83508e+02
859	2.86348e+02	8.59000e+02	2.96739e+00	2.84258e+02
860	2.87105e+02	8.60000e+02	2.96664e+00	2.85008e+02
861	2.87873e+02	8.61000e+02	2.96585e+00	2.85758e+02
862	2.88660e+02	8.62000e+02	2.96504e+00	2.86508e+02
863	2.89457e+02	8.63000e+02	2.96423e+00	2.87258e+02
864	2.90264e+02	8.64000e+02	2.96342e+00	2.88008e+02
865	2.91027e+02	8.65000e+02	2.96257e+00	2.88758e+02
866	2.91794e+02	8.66000e+02	2.96170e+00	2.89508e+02
867	2.92542e+02	8.67000e+02	2.96081e+00	2.90258e+02
868	2.93333e+02	8.68000e+02	2.95982e+00	2.91008e+02
869	2.94098e+02	8.69000e+02	2.95885e+00	2.91758e+02
870	2.94881e+02	8.70000e+02	2.95785e+00	2.92508e+02
871	2.95635e+02	8.71000e+02	2.95684e+00	2.93258e+02
872	2.96401e+02	8.72000e+02	2.95573e+00	2.94008e+02
873	2.97155e+02	8.73000e+02	2.95462e+00	2.94758e+02
874	2.97926e+02	8.74000e+02	2.95350e+00	2.95508e+02
875	2.98695e+02	8.75000e+02	2.95235e+00	2.96258e+02
876	2.99434e+02	8.76000e+02	2.95112e+00	2.97008e+02
877	3.00200e+02	8.77000e+02	2.94993e+00	2.97759e+02
878	3.00959e+02	8.78000e+02	2.94873e+00	2.98509e+02
879	3.01760e+02	8.79000e+02	2.94753e+00	2.99259e+02
880	3.02530e+02	8.80000e+02	2.94631e+00	3.00009e+02
881	3.03321e+02	8.81000e+02	2.94510e+00	3.00759e+02
882	3.04062e+02	8.82000e+02	2.94388e+00	3.01509e+02
883	3.04822e+02	8.83000e+02	2.94267e+00	3.02259e+02
884	3.05571e+02	8.84000e+02	2.94142e+00	3.03009e+02
885	3.06358e+02	8.85000e+02	2.94015e+00	3.03759e+02
886	3.07114e+02	8.86000e+02	2.93884e+00	3.04509e+02
887	3.07878e+02	8.87000e+02	2.93750e+00	3.05259e+02
888	3.08653e+02	8.88000e+02	2.93604e+00	3.06009e+02
889	3.09407e+02	8.89000e+02	2.93458e+00	3.06759e+02
890	3.10183e+02	8.90000e+02	2.93310e+00	3.07509e+02
891	3.10975e+02	8.91000e+02	2.93159e+00	3.08259e+02
892	3.11741e+02	8.92000e+02	2.92994e+00	3.09009e+02
893	3.12483e+02	8.93000e+02	2.92832e+00	3.09759e+02
894	3.13267e+02	8.94000e+02	2.92667e+00	3.10509e+02
895	3.14022e+02	8.95000e+02	2.92500e+00	3.11259e+02
896	3.14796e+02	8.96000e+02	2.92320e+00	3.12009e+02
897	3.15568e+02	8.97000e+02	2.92140e+00	3.12759e+02
898	3.16347e+02	8.98000e+02	2.91956e+00	3.13509e+02
899	3.17144e+02	8.99000e+02	2.91769e+00	3.14259e+02
900	3.17930e+02	9.00000e+02	2.91566e+00	3.15009e+02
901	3.18748e+02	9.01000e+02	2.91365e+00	3.15759e+02
902	3.19523e+02	9.02000e+02	2.91162e+00	3.16509e+02
903	3.20274e+02	9.03000e+02	2.90957e+00	3.17259e+02
904	3.21029e+02	9.04000e+02	2.90741e+00	3.18009e+02
905	3.21850e+02	9.05000e+02	2.90531e+00	3.18759e+02
906	3.22614e+02	9.06000e+02	2.90321e+00	3.19509e+02
907	3.23349e+02	9.07000e+02	2.90111e+00	3.20259e+02
908	3.24091e+02	9.08000e+02	2.89901e+00	3.21009e+02
909	3.24828e+02	9.09000e+02	2.89691e+00	3.21759e+02
910	3.25568e+02	9.10000e+02	2.89479e+00	3.22510e+02
911	3.26343e+02	9.11000e+02	2.89266e+00	3.23260e+02
912	3.27096e+02	9.12000e+02	2.89048e+00	3.24010e+02
913	3.27853e+02	9.13000e+02	2.88827e+00	3.24760e+02
914	3.28630e+02	9.14000e+02	2.88604e+00	3.25510e+02
915	3.29387e+02	9.15000e+02	2.88378e+00	3.26260e+02
916	3.30145e+02	9.16000e+02	2.88141e+00	3.27010e+02
917	3.30916e+02	9.17000e+02	2.87908e+00	3.27760e+02
918	3.31668e+02	9.18000e+02	2.87675e+00	3.28510e+02
919	3.32422e+02	9.19000e+02	2.87442e+00	3.29260e+02
920	3.33205e+02	9.20000e+02	2.87202e+00	3.30010e+02
921	3.33966e+02	9.21000e+02	2.86962e+00	3.30760e+02
922	3.34749e+02	9.22000e+02	2.86718e+00	3.31510e+02
923	3.35510e+02	9.23000e+02	2.86472e+00	3.32260e+02
924	3.36286e+02	9.24000e+02	2.86214e+00	3.33010e+02
925	3.37040e+02	9.25000e+02	2.85955e+00	3.33760e+02
926	3.37818e+02	9.26000e+02	2.85692e+00	3.34510e+02
927	3.38548e+02	9.27000e+02	2.85426e+00	3.35260e+02
928	3.39290e+02	9.28000e+02	2.85140e+00	3.36010e+02
929	3.40045e+02	9.29000e+02	2.84856e+00	3.36760e+02
930	3.40833e+02	9.30000e+02	2.84567e+00	3.37510e+02
931	3.41602e+02	9.31000e+02	2.84273e+00	3.38260e+02
932	3.42324e+02	9.32000e+02	2.83955e+00	3.39010e+02
933	3.43075e+02	9.33000e+02	2.83638e+00	3.39760e+02
934	3.43820e+02	9.34000e+02	2.83314e+00	3.40510e+02
935	3.44573e+02	9.35000e+02	2.82983e+00	3.41260e+02
936	3.45324e+02	9.36000e+02	2.82619e+00	3.42010e+02
937	3.46072e+02	9.37000e+02	2.82257e+00	3.42760e+02
938	3.46820e+02	9.38000e+02	2.81884e+00	3.43510e+02
939	3.47564e+02	9.39000e+02	2.81502e+00	3.44260e+02
940	3.48314e+02	9.40000e+02	2.81075e+00	3.45010e+02
941	3.49082e+02	9.41000e+02	2.80650e+00	3.45760e+02
942	3.49828e+02	9.42000e+02	2.80213e+00	3.46510e+02
943	3.50571e+02	9.43000e+02	2.79765e+00	3.47261e+02
944	3.51328e+02	9.44000e+02	2.79260e+00	3.48011e+02
945	3.52070e+02	9.45000e+02	2.78759e+00	3.48761e+02
946	3.52809e+02	9.46000e+02	2.78242e+00	3.49511e+02
947	3.53564e+02	9.47000e+02	2.77711e+00	3.50261e+02
948	3.54306e+02	9.48000e+02	2.77107e+00	3.51011e+02
949	3.55048e+02	9.49000e+02	2.76504e+00	3.51761e+02
950	3.55806e+02	9.50000e+02	2.75877e+00	3.52511e+02
951	3.56550e+02	9.51000e+02	2.75230e+00	3.53261e+02
952	3.57287e+02	9.52000e+02	2.74477e+00	3.54011e+02
953	3.58063e+02	9.53000e+02	2.73726e+00	3.54761e+02
954	3.58811e+02	9.54000e+02	2.72941e+00	3.55511e+02
955	3.59563e+02	9.55000e+02	2.72126e+00	3.56261e+02
956	3.60338e+02	9.56000e+02	2.71160e+00	3.57011e+02
957	3.61180e+02	9.57000e+02	2.70200e+00	3.57761e+02
958	3.61894e+02	9.58000e+02	2.69195e+00	3.58511e+02
959	3.62615e+02	9.59000e+02	2.68150e+00	3.59261e+02
960	3.63338e+02	9.60000e+02	2.66909e+00	3.60011e+02
961	3.64094e+02	9.61000e+02	2.65716e+00	3.60761e+02
962	3.64864e+02	9.62000e+02	2.64483e+00	3.61511e+02
963	3.65605e+02	9.63000e+02	2.63101e+00	3.62261e+02
964	3.66360e+02	9.64000e+02	2.61576e+00	3.63011e+02
965	3.67082e+02	9.65000e+02	2.60100e+00	3.63761e+02
966	3.67801e+02	9.66000e+02	2.58579e+00	3.64511e+02
967	3.68518e+02	9.67000e+02	2.56906e+00	3.65261e+02
968	3.69253e+02	9.68000e+02	2.55115e+00	3.66011e+02
969	3.69994e+02	9.69000e+02	2.53379e+00	3.66761e+02
970	3.70743e+02	9.70000e+02	2.51534e+00	3.67511e+02
971	3.71474e+02	9.71000e+02	2.49628e+00	3.68261e+02
972	3.72213e+02	9.72000e+02	2.47482e+00	3.69011e+02
973	3.72951e+02	9.73000e+02	2.45346e+00	3.69761e+02
974	3.73694e+02	9.74000e+02	2.43115e+00	3.70511e+02
975	3.74427e+02	9.75000e+02	2.40771e+00	3.71262e+02
976	3.75178e+02	9.76000e+02	2.38308e+00	3.72012e+02
977	3.75917e+02	9.77000e+02	2.35879e+00	3.72762e+02
978	3.76647e+02	9.78000e+02	2.33399e+00	3.73512e+02
979	3.77368e+02	9.79000e+02	2.30762e+00	3.74262e+02
980	3.78098e+02	9.80000e+02	2.28064e+00	3.75012e+02
981	3.78851e+02	9.81000e+02	2.25310e+00	3.75762e+02
982	3.79590e+02	9.82000e+02	2.22472e+00	3.76512e+02
983	3.80317e+02	9.83000e+02	2.19575e+00	3.77262e+02
984	3.81055e+02	9.84000e+02	2.16419e+00	3.78012e+02
985	3.81806e+02	9.85000e+02	2.13274e+00	3.78762e+02
986	3.82538e+02	9.86000e+02	2.10040e+00	3.79512e+02
987	3.83294e+02	9.87000e+02	2.06699e+00	3.80262e+02
988	3.84065e+02	9.88000e+02	2.03254e+00	3.81012e+02
989	3.84852e+02	9.89000e+02	1.99829e+00	3.81762e+02
990	3.85645e+02	9.90000e+02	1.96366e+00	3.82512e+02
991	3.86417e+02	9.91000e+02	1.92871e+00	3.83262e+02
992	3.87157e+02	9.92000e+02	1.89223e+00	3.84012e+02
993	3.87890e+02	9.93000e+02	1.85600e+00	3.84762e+02
994	3.88603e+02	9.94000e+02	1.81951e+00	3.85512e+02
995	3.89316e+02	9.95000e+02	1.78277e+00	3.86262e+02
996	3.90040e+02	9.96000e+02	1.74477e+00	3.87012e+02
997	3.90803e+02	9.97000e+02	1.70707e+00	3.87762e+02
998	3.91577e+02	9.98000e+02	1.66923e+00	3.88512e+02
999	3.92305e+02	9.99000e+02	1.63125e+00	3.89262e+02
1000	3.93037e+02	1.00000e+03	1.59246e+00	3.90012e+02
1001	3.93793e+02	1.00100e+03	1.55386e+00	3.90762e+02
1002	3.94517e+02	1.00200e+03	1.51518e+00	3.91512e+02
1003	3.95290e+02	1.00300e+03	1.47643e+00	3.92262e+02
1004	3.96068e+02	1.00400e+03	1.43725e+00	3.93012e+02
1005	3.96878e+02	1.00500e+03	1.39824e+00	3.93762e+02
1006	3.97680e+02	1.00600e+03	1.35923e+00	3.94512e+02
1007	3.98482e+02	1.00700e+03	1.32019e+00	3.95262e+02
1008	3.99236e+02	1.00800e+03	1.28106e+00	3.96013e+02
1009	3.99945e+02	1.00900e+03	1.24200e+00	3.96763e+02
1010	4.00694e+02	1.01000e+03	1.20299e+00	3.97513e+02
1011	4.01447e+02	1.01100e+03	1.16403e+00	3.98263e+02
1012	4.02196e+02	1.01200e+03	1.12529e+00	3.99013e+02
1013	4.02954e+02	1.01300e+03	1.08666e+00	3.99763e+02
1014	4.03720e+02	1.01400e+03	1.04822e+00	4.00513e+02
1015	4.04477e+02	1.01500e+03	1.00991e+00	4.01263e+02
1016	4.05218e+02	1.01600e+03	9.72252e-01	4.02013e+02
1017	4.05992e+02	1.01700e+03	9.34531e-01	4.02763e+02
1018	4.06764e+02	1.01800e+03	8.96944e-01	4.03513e+02
1019	4.07554e+02	1.01900e+03	8.59478e-01	4.04263e+02
1020	4.08288e+02	1.02000e+03	8.22711e-01	4.05013e+02
1021	4.09048e+02	1.02100e+03	7.85845e-01	4.05763e+02
1022	4.09822e+02	1.02200e+03	7.49158e-01	4.06513e+02
1023	4.10584e+02	1.02300e+03	7.12654e-01	4.07263e+02
1024	4.11335e+02	1.02400e+03	6.77040e-01	4.08013e+02
1025	4.12150e+02	1.02500e+03	6.41557e-01	4.08763e+02
1026	4.12951e+02	1.02600e+03	6.06539e-01	4.09513e+02
1027	4.13728e+02	1.02700e+03	5.71910e-01	4.10263e+02
1028	4.14514e+02	1.02800e+03	5.38868e-01	4.11013e+02
1029	4.15273e+02	1.02900e+03	5.05431e-01	4.11763e+02
1030	4.16150e+02	1.03000e+03	4.73259e-01	4.12513e+02
1031	4.17016e+02	1.03100e+03	4.41876e-01	4.13263e+02
1032	4.17776e+02	1.03200e+03	4.13258e-01	4.14013e+02
1033	4.18584e+02	1.03300e+03	3.84182e-01	4.14763e+02
1034	4.19314e+02	1.03400e+03	3.57283e-01	4.15513e+02
1035	4.20052e+02	1.03500e+03	3.32302e-01	4.16263e+02
1036	4.20819e+02	1.03600e+03	3.09301e-01	4.17013e+02
1037	4.21543e+02	1.03700e+03	2.86555e-01	4.17763e+02
1038	4.22304e+02	1.03800e+03	2.64830e-01	4.18513e+02
1039	4.23068e+02	1.03900e+03	2.43867e-01	4.19263e+02
1040	4.23808e+02	1.04000e+03	2.26051e-01	4.20014e+02
1041	4.24557e+02	1.04100e+03	2.08151e-01	4.20764e+02
1042	4.25292e+02	1.04200e+03	1.91118e-01	4.21514e+02
1043	4.26066e+02	1.04300e+03	1.74808e-01	4.22264e+02
1044	4.26772e+02	1.04400e+03	1.61243e-01	4.23014e+02
1045	4.27520e+02	1.04500e+03	1.47535e-01	4.23764e+02
1046	4.28244e+02	1.04600e+03	1.34876e-01	4.24514e+02
1047	4.29018e+02	1.04700e+03	1.23499e-01	4.25264e+02
1048	4.29818e+02	1.04800e+03	1.13412e-01	4.26014e+02
1049	4.30596e+02	1.04900e+03	1.02919e-01	4.26764e+02
1050	4.31339e+02	1.05000e+03	9.29112e-02	4.27514e+02
1051	4.32172e+02	1.05100e+03	8.44147e-02	4.28264e+02
1052	4.32945e+02	1.05200e+03	7.73276e-02	4.29014e+02
1053	4.33696e+02	1.05300e+03	6.99176e-02	4.29764e+02
1054	4.34439e+02	1.05400e+03	6.29131e-02	4.30514e+02
1055	4.35218e+02	1.05500e+03	5.62851e-02	4.31264e+02
1056	4.35964e+02	1.05600e+03	5.13843e-02	4.32014e+02
1057	4.36723e+02	1.05700e+03	4.61365e-02	4.32764e+02
1058	4.37521e+02	1.05800e+03	4.11540e-02	4.33514e+02
1059	4.38316e+02	1.05900e+03	3.64357e-02	4.34264e+02
1060	4.39072e+02	1.06000e+03	3.30672e-02	4.35014e+02
1061	4.39836e+02	1.06100e+03	2.94262e-02	4.35764e+02
1062	4.40624e+02	1.06200e+03	2.59782e-02	4.36514e+02
1063	4.41461e+02	1.06300e+03	2.27264e-02	4.37264e+02
1064	4.42192e+02	1.06400e+03	2.04915e-02	4.38014e+02
1065	4.42987e+02	1.06500e+03	1.80415e-02	4.38764e+02
1066	4.43855e+02	1.06600e+03	1.57240e-02	4.39514e+02
1067	4.44671e+02	1.06700e+03	1.35423e-02	4.40264e+02
1068	4.45454e+02	1.06800e+03	1.20699e-02	4.41014e+02
1069	4.46374e+02	1.06900e+03	1.04236e-02	4.41764e+02
1070	4.47282e+02	1.07000e+03	8.85160e-03	4.42514e+02
1071	4.48057e+02	1.07100e+03	7.36341e-03	4.43264e+02
1072	4.48829e+02	1.07200e+03	6.31480e-03	4.44014e+02
1073	4.49585e+02	1.07300e+03	5.16174e-03	4.44765e+02
1074	4.50284e+02	1.07400e+03	4.06080e-03	4.45515e+02
1075	4.51068e+02	1.07500e+03	3.01776e-03	4.46265e+02
1076	4.51758e+02	1.07600e+03	2.26327e-03	4.47015e+02
1077	4.52550e+02	1.07700e+03	1.44916e-03	4.47765e+02
1078	4.53354e+02	1.07800e+03	6.73817e-04	4.48515e+02
1079	4.54213e+02	1.07900e+03	-6.17302e-05	4.49265e+02
1080	4.54970e+02	1.08000e+03	-5.92090e-04	4.50015e+02
1081	4.55895e+02	1.08100e+03	-1.17311e-03	4.50765e+02
1082	4.56573e+02	1.08200e+03	-1.73257e-03	4.51515e+02
1083	4.57331e+02	1.08300e+03	-2.26786e-03	4.52265e+02
1084	4.58110e+02	1.08400e+03	-2.67780e-03	4.53015e+02
1085	4.58850e+02	1.08500e+03	-3.11823e-03	4.53765e+02
1086	4.59578e+02	1.08600e+03	-3.54362e-03	4.54515e+02
1087	4.60330e+02	1.08700e+03	-3.95223e-03	4.55265e+02
1088	4.61096e+02	1.08800e+03	-4.27566e-03	4.56015e+02
1089	4.61867e+02	1.08900e+03	-4.61016e-03	4.56765e+02
1090	4.62566e+02	1.09000e+03	-4.92514e-03	4.57515e+02
1091	4.63200e+02	1.09100e+03	-5.22307e-03	4.58265e+02
1092	4.63855e+02	1.09200e+03	-5.43915e-03	4.59015e+02
1093	4.64584e+02	1.09300e+03	-5.66567e-03	4.59765e+02
1094	4.65209e+02	1.09400e+03	-5.87360e-03	4.60515e+02
1095	4.65799e+02	1.09500e+03	-6.06515e-03	4.61265e+02
1096	4.66475e+02	1.09600e+03	-6.17636e-03	4.62015e+02
1097	4.67160e+02	1.09700e+03	-6.30374e-03	4.62765e+02
1098	4.67854e+02	1.09800e+03	-6.42111e-03	4.63515e+02
1099	4.68610e+02	1.09900e+03	-6.52800e-03	4.64265e+02
1100	4.69329e+02	1.10000e+03	-6.57590e-03	4.65015e+02
1101	4.70070e+02	1.10100e+03	-6.64049e-03	4.65765e+02
1102	4.70777e+02	1.10200e+03	-6.69948e-03	4.66515e+02
1103	4.71355e+02	1.10300e+03	-6.75094e-03	4.67265e+02
1104	4.72066e+02	1.10400e+03	-6.76934e-03	4.68015e+02
1105	4.72752e+02	1.10500e+03	-6.79627e-03	4.68766e+02
1106	4.73478e+02	1.10600e+03	-6.82116e-03	4.69516e+02
1107	4.74182e+02	1.10700e+03	-6.84345e-03	4.70266e+02
1108	4.74911e+02	1.10800e+03	-6.85011e-03	4.71016e+02
1109	4.75652e+02	1.10900e+03	-6.86619e-03	4.71766e+02
1110	4.76411e+02	1.11000e+03	-6.88405e-03	4.72516e+02
1111	4.77153e+02	1.11100e+03	-6.90156e-03	4.73266e+02
1112	4.77893e+02	1.11200e+03	-6.91864e-03	4.74016e+02
1113	4.78602e+02	1.11300e+03	-6.93333e-03	4.74766e+02
1114	4.79339e+02	1.11400e+03	-6.94730e-03	4.75516e+02
1115	4.80049e+02	1.11500e+03	-6.96114e-03	4.76266e+02
1116	4.80876e+02	1.11600e+03	-6.97374e-03	4.77016e+02
1117	4.81611e+02	1.11700e+03	-6.99171e-03	4.77766e+02
1118	4.82319e+02	1.11800e+03	-7.01381e-03	4.78516e+02
1119	4.83044e+02	1.11900e+03	-7.03774e-03	4.79266e+02
1120	4.83756e+02	1.12000e+03	-7.06958e-03	4.80016e+02
1121	4.84285e+02	1.12100e+03	-7.09874e-03	4.80766e+02
1122	4.85052e+02	1.12200e+03	-7.12886e-03	4.81516e+02
1123	4.85787e+02	1.12300e+03	-7.15998e-03	4.82266e+02
1124	4.86468e+02	1.12400e+03	-7.19778e-03	4.83016e+02
1125	4.87181e+02	1.12500e+03	-7.23767e-03	4.83766e+02
1126	4.87920e+02	1.12600e+03	-7.28240e-03	4.84516e+02
1127	4.88655e+02	1.12700e+03	-7.33084e-03	4.85266e+02
1128	4.89323e+02	1.12800e+03	-7.39383e-03	4.86016e+02
1129	4.90104e+02	1.12900e+03	-7.45523e-03	4.86766e+02
1130	4.90865e+02	1.13000e+03	-7.51704e-03	4.87516e+02
1131	4.91582e+02	1.13100e+03	-7.57814e-03	4.88266e+02
1132	4.92370e+02	1.13200e+03	-7.63923e-03	4.89016e+02
1133	4.93240e+02	1.13300e+03	-7.68763e-03	4.89766e+02
1134	4.94307e+02	1.13400e+03	-7.72639e-03	4.90516e+02
1135	4.94878e+02	1.13500e+03	-7.75899e-03	4.91266e+02
1136	4.95527e+02	1.13600e+03	-7.75858e-03	4.92016e+02
1137	4.96214e+02	1.13700e+03	-7.76191e-03	4.92766e+02
1138	4.96952e+02	1.13800e+03	-7.75694e-03	4.93517e+02
1139	4.97625e+02	1.13900e+03	-7.74434e-03	4.94267e+02
1140	4.98352e+02	1.14000e+03	-7.69650e-03	4.95017e+02
1141	4.99021e+02	1.14100e+03	-7.65908e-03	4.95767e+02
1142	4.99771e+02	1.14200e+03	-7.62515e-03	4.96517e+02
1143	5.00576e+02	1.14300e+03	-7.59311e-03	4.97267e+02
1144	5.01268e+02	1.14400e+03	-7.55932e-03	4.98017e+02
1145	5.02015e+02	1.14500e+03	-7.54444e-03	4.98767e+02
1146	5.02734e+02	1.14600e+03	-7.54235e-03	4.99517e+02
1147	5.03484e+02	1.14700e+03	-7.54693e-03	5.00267e+02
1148	5.04221e+02	1.14800e+03	-7.58730e-03	5.01017e+02
1149	5.04978e+02	1.14900e+03	-7.61026e-03	5.01767e+02
1150	5.05738e+02	1.15000e+03	-7.62811e-03	5.02517e+02
1151	5.06519e+02	1.15100e+03	-7.64362e-03	5.03267e+02
1152	5.07257e+02	1.15200e+03	-7.65013e-03	5.04017e+02
1153	5.08025e+02	1.15300e+03	-7.64447e-03	5.04767e+02
1154	5.08803e+02	1.15400e+03	-7.62611e-03	5.05517e+02
1155	5.09508e+02	1.15500e+03	-7.59974e-03	5.06267e+02
1156	5.10275e+02	1.15600e+03	-7.53859e-03	5.07017e+02
1157	5.10996e+02	1.15700e+03	-7.49454e-03	5.07767e+02
1158	5.11766e+02	1.15800e+03	-7.45948e-03	5.08517e+02
1159	5.12589e+02	1.15900e+03	-7.43088e-03	5.09267e+02
1160	5.13350e+02	1.16000e+03	-7.42120e-03	5.10017e+02
1161	5.14057e+02	1.16100e+03	-7.42802e-03	5.10767e+02
1162	5.14841e+02	1.16200e+03	-7.45072e-03	5.11517e+02
1163	5.15641e+02	1.16300e+03	-7.48328e-03	5.12267e+02
1164	5.16448e+02	1.16400e+03	-7.57696e-03	5.13017e+02
1165	5.17363e+02	1.16500e+03	-7.65152e-03	5.13767e+02
1166	5.18142e+02	1.16600e+03	-7.72729e-03	5.14517e+02
1167	5.18994e+02	1.16700e+03	-7.80569e-03	5.15267e+02
1168	5.19718e+02	1.16800e+03	-7.89806e-03	5.16017e+02
1169	5.20256e+02	1.16900e+03	-7.97294e-03	5.16767e+02
1170	5.20820e+02	1.17000e+03	-8.03587e-03	5.17518e+02
1171	5.21414e+02	1.17100e+03	-8.09119e-03	5.18268e+02
1172	5.21933e+02	1.17200e+03	-8.11575e-03	5.19018e+02
1173	5.22564e+02	1.17300e+03	-8.14640e-03	5.19768e+02
1174	5.23197e+02	1.17400e+03	-8.17746e-03	5.20518e+02
1175	5.23867e+02	1.17500e+03	-8.20849e-03	5.21268e+02
1176	5.24597e+02	1.17600e+03	-8.22041e-03	5.22018e+02
1177	5.25304e+02	1.17700e+03	-8.24119e-03	5.22768e+02
1178	5.26019e+02	1.17800e+03	-8.25732e-03	5.23518e+02
1179	5.26718e+02	1.17900e+03	-8.26720e-03	5.24268e+02
1180	5.27444e+02	1.18000e+03	-8.26217e-03	5.25018e+02
1181	5.28165e+02	1.18100e+03	-8.24454e-03	5.25768e+02
1182	5.28878e+02	1.18200e+03	-8.21656e-03	5.26518e+02
1183	5.29575e+02	1.18300e+03	-8.18446e-03	5.27268e+02
1184	5.30282e+02	1.18400e+03	-8.13500e-03	5.28018e+02
1185	5.31008e+02	1.18500e+03	-8.12484e-03	5.28768e+02
1186	5.31728e+02	1.18600e+03	-8.14202e-03	5.29518e+02
1187	5.32428e+02	1.18700e+03	-8.17397e-03	5.30268e+02
1188	5.33132e+02	1.18800e+03	-8.25329e-03	5.31018e+02
1189	5.33853e+02	1.18900e+03	-8.29860e-03	5.31768e+02
1190	5.34570e+02	1.19000e+03	-8.32329e-03	5.32518e+02
1191	5.35305e+02	1.19100e+03	-8.33483e-03	5.33268e+02
1192	5.36036e+02	1.19200e+03	-8.31195e-03	5.34018e+02
1193	5.36760e+02	1.19300e+03	-8.27573e-03	5.34768e+02
1194	5.37497e+02	1.19400e+03	-8.22756e-03	5.35518e+02
1195	5.38228e+02	1.19500e+03	-8.17366e-03	5.36268e+02
1196	5.38954e+02	1.19600e+03	-8.07430e-03	5.37018e+02
1197	5.39677e+02	1.19700e+03	-8.02809e-03	5.37768e+02
1198	5.40397e+02	1.19800e+03	-8.01196e-03	5.38518e+02
1199	5.41113e+02	1.19900e+03	-8.01251e-03	5.39268e+02
1200	5.41838e+02	1.20000e+03	-8.08148e-03	5.40018e+02
1201	5.42571e+02	1.20100e+03	-8.12477e-03	5.40768e+02
1202	5.43297e+02	1.20200e+03	-8.15686e-03	5.41518e+02
1203	5.44025e+02	1.20300e+03	-8.18114e-03	5.42268e+02
1204	5.44756e+02	1.20400e+03	-8.20263e-03	5.43019e+02
1205	5.45489e+02	1.20500e+03	-8.19635e-03	5.43769e+02
1206	5.46221e+02	1.20600e+03	-8.17539e-03	5.44519e+02
1207	5.46936e+02	1.20700e+03	-8.14786e-03	5.45269e+02
1208	5.47675e+02	1.20800e+03	-8.06411e-03	5.46019e+02
1209	5.48443e+02	1.20900e+03	-8.01601e-03	5.46769e+02
1210	5.49185e+02	1.21000e+03	-7.97861e-03	5.47519e+02
1211	5.49930e+02	1.21100e+03	-7.94558e-03	5.48269e+02
1212	5.50708e+02	1.21200e+03	-7.93884e-03	5.49019e+02
1213	5.51524e+02	1.21300e+03	-7.93285e-03	5.49769e+02
1214	5.52256e+02	1.21400e+03	-7.93735e-03	5.50519e+02
1215	5.52960e+02	1.21500e+03	-7.95124e-03	5.51269e+02
1216	5.53844e+02	1.21600e+03	-8.01249e-03	5.52019e+02
1217	5.54684e+02	1.21700e+03	-8.07167e-03	5.52769e+02
1218	5.55242e+02	1.21800e+03	-8.13942e-03	5.53519e+02
1219	5.55882e+02	1.21900e+03	-8.21353e-03	5.54269e+02
1220	5.56505e+02	1.22000e+03	-8.32276e-03	5.55019e+02
1221	5.57167e+02	1.22100e+03	-8.40421e-03	5.55769e+02
1222	5.57875e+02	1.22200e+03	-8.47061e-03	5.56519e+02
1223	5.58581e+02	1.22300e+03	-8.52796e-03	5.57269e+02
1224	5.59311e+02	1.22400e+03	-8.54839e-03	5.58019e+02
1225	5.60006e+02	1.22500e+03	-8.56342e-03	5.58769e+02
1226	5.60693e+02	1.22600e+03	-8.56473e-03	5.59519e+02
1227	5.61393e+02	1.22700e+03	-8.55575e-03	5.60269e+02
1228	5.62089e+02	1.22800e+03	-8.48754e-03	5.61019e+02
1229	5.62789e+02	1.22900e+03	-8.43843e-03	5.61769e+02
1230	5.63511e+02	1.23000e+03	-8.38838e-03	5.62519e+02
1231	5.64253e+02	1.23100e+03	-8.33545e-03	5.63269e+02
1232	5.64968e+02	1.23200e+03	-8.26346e-03	5.64019e+02
1233	5.65663e+02	1.23300e+03	-8.20430e-03	5.64769e+02
1234	5.66374e+02	1.23400e+03	-8.15157e-03	5.65519e+02
1235	5.67092e+02	1.23500e+03	-8.10259e-03	5.66269e+02
1236	5.67815e+02	1.23600e+03	-8.07507e-03	5.67020e+02
1237	5.68527e+02	1.23700e+03	-8.05638e-03	5.67770e+02
1238	5.69225e+02	1.23800e+03	-8.05429e-03	5.68520e+02
1239	5.69971e+02	1.23900e+03	-8.06520e-03	5.69270e+02
1240	5.70667e+02	1.24000e+03	-8.12698e-03	5.70020e+02
1241	5.71385e+02	1.24100e+03	-8.17549e-03	5.70770e+02
1242	5.72145e+02	1.24200e+03	-8.22528e-03	5.71520e+02
1243	5.72899e+02	1.24300e+03	-8.27806e-03	5.72270e+02
1244	5.73665e+02	1.24400e+03	-8.36177e-03	5.73020e+02
1245	5.74439e+02	1.24500e+03	-8.43024e-03	5.73770e+02
1246	5.75242e+02	1.24600e+03	-8.49315e-03	5.74520e+02
1247	5.76079e+02	1.24700e+03	-8.55178e-03	5.75270e+02
1248	5.76888e+02	1.24800e+03	-8.58524e-03	5.76020e+02
1249	5.77723e+02	1.24900e+03	-8.60474e-03	5.76770e+02
1250	5.78427e+02	1.25000e+03	-8.60517e-03	5.77520e+02
1251	5.79155e+02	1.25100e+03	-8.59302e-03	5.78270e+02
1252	5.79885e+02	1.25200e+03	-8.52409e-03	5.79020e+02
1253	5.80595e+02	1.25300e+03	-8.47601e-03	5.79770e+02
1254	5.81325e+02	1.25400e+03	-8.43404e-03	5.80520e+02
1255	5.82049e+02	1.25500e+03	-8.39628e-03	5.81270e+02
1256	5.82793e+02	1.25600e+03	-8.36161e-03	5.82020e+02
1257	5.83544e+02	1.25700e+03	-8.34790e-03	5.82770e+02
1258	5.84318e+02	1.25800e+03	-8.34598e-03	5.83520e+02
1259	5.85094e+02	1.25900e+03	-8.34903e-03	5.84270e+02
1260	5.85869e+02	1.26000e+03	-8.38633e-03	5.85020e+02
1261	5.86663e+02	1.26100e+03	-8.39067e-03	5.85770e+02
1262	5.87431e+02	1.26200e+03	-8.37655e-03	5.86520e+02
1263	5.88217e+02	1.26300e+03	-8.35106e-03	5.87270e+02
1264	5.89013e+02	1.26400e+03	-8.27204e-03	5.88020e+02
1265	5.89811e+02	1.26500e+03	-8.19289e-03	5.88770e+02
1266	5.90612e+02	1.26600e+03	-8.10605e-03	5.89520e+02
1267	5.91576e+02	1.26700e+03	-8.01588e-03	5.90270e+02
1268	5.92396e+02	1.26800e+03	-7.89942e-03	5.91021e+02
1269	5.93415e+02	1.26900e+03	-7.83428e-03	5.91771e+02
1270	5.94466e+02	1.27000e+03	-7.80373e-03	5.92521e+02
1271	5.95322e+02	1.27100e+03	-7.79282e-03	5.93271e+02
1272	5.96284e+02	1.27200e+03	-7.87661e-03	5.94021e+02
1273	5.96910e+02	1.27300e+03	-7.94479e-03	5.94771e+02
1274	5.97594e+02	1.27400e+03	-8.01943e-03	5.95521e+02
1275	5.98362e+02	1.27500e+03	-8.09841e-03	5.96271e+02
1276	5.98970e+02	1.27600e+03	-8.23811e-03	5.97021e+02
1277	5.99708e+02	1.27700e+03	-8.34912e-03	5.97771e+02
1278	6.00435e+02	1.27800e+03	-8.46116e-03	5.98521e+02
1279	6.01212e+02	1.27900e+03	-8.57904e-03	5.99271e+02
1280	6.01931e+02	1.28000e+03	-8.70740e-03	6.00021e+02
1281	6.02612e+02	1.28100e+03	-8.84371e-03	6.00771e+02
1282	6.03354e+02	1.28200e+03	-8.97949e-03	6.01521e+02
1283	6.04073e+02	1.28300e+03	-9.10929e-03	6.02271e+02
1284	6.04808e+02	1.28400e+03	-9.21684e-03	6.03021e+02
1285	6.05516e+02	1.28500e+03	-9.27373e-03	6.03771e+02
1286	6.06236e+02	1.28600e+03	-9.27795e-03	6.04521e+02
1287	6.06966e+02	1.28700e+03	-9.24493e-03	6.05271e+02
1288	6.07680e+02	1.28800e+03	-9.03949e-03	6.06021e+02
1289	6.08476e+02	1.28900e+03	-8.85858e-03	6.06771e+02
1290	6.09255e+02	1.29000e+03	-8.66082e-03	6.07521e+02
1291	6.10050e+02	1.29100e+03	-8.45110e-03	6.08271e+02
1292	6.10881e+02	1.29200e+03	-8.15421e-03	6.09021e+02
1293	6.11678e+02	1.29300e+03	-7.95393e-03	6.09771e+02
1294	6.12491e+02	1.29400e+03	-7.81174e-03	6.10521e+02
1295	6.13599e+02	1.29500e+03	-7.70479e-03	6.11271e+02
1296	6.14799e+02	1.29600e+03	-7.76192e-03	6.12021e+02
1297	6.15396e+02	1.29700e+03	-7.80723e-03	6.12771e+02
1298	6.15439e+02	1.29800e+03	-7.87368e-03	6.13521e+02
1299	6.15877e+02	1.29900e+03	-7.95284e-03	6.14271e+02
1300	6.16449e+02	1.30000e+03	-8.12775e-03	6.15021e+02
1301	6.17064e+02	1.30100e+03	-8.20047e-03	6.15772e+02
1302	6.17713e+02	1.30200e+03	-8.22640e-03	6.16522e+02
1303	6.18385e+02	1.30300e+03	-8.23080e-03	6.17272e+02
1304	6.19070e+02	1.30400e+03	-8.12545e-03	6.18022e+02
1305	6.19768e+02	1.30500e+03	-8.06612e-03	6.18772e+02
1306	6.20460e+02	1.30600e+03	-8.02164e-03	6.19522e+02
1307	6.21162e+02	1.30700e+03	-7.98615e-03	6.20272e+02
1308	6.21865e+02	1.30800e+03	-7.95934e-03	6.21022e+02
1309	6.22578e+02	1.30900e+03	-7.96627e-03	6.21772e+02
1310	6.23281e+02	1.31000e+03	-7.99433e-03	6.22522e+02
1311	6.23989e+02	1.31100e+03	-8.03342e-03	6.23272e+02
1312	6.24704e+02	1.31200e+03	-8.15112e-03	6.24022e+02
1313	6.25412e+02	1.31300e+03	-8.22516e-03	6.24772e+02
1314	6.26128e+02	1.31400e+03	-8.28577e-03	6.25522e+02
1315	6.26857e+02	1.31500e+03	-8.34123e-03	6.26272e+02
1316	6.27580e+02	1.31600e+03	-8.37932e-03	6.27022e+02
1317	6.28306e+02	1.31700e+03	-8.41692e-03	6.27772e+02
1318	6.29038e+02	1.31800e+03	-8.45319e-03	6.28522e+02
1319	6.29776e+02	1.31900e+03	-8.48823e-03	6.29272e+02
1320	6.30510e+02	1.32000e+03	-8.49757e-03	6.30022e+02
1321	6.31227e+02	1.32100e+03	-8.51217e-03	6.30772e+02
1322	6.31955e+02	1.32200e+03	-8.52078e-03	6.31522e+02
1323	6.32681e+02	1.32300e+03	-8.52478e-03	6.32272e+02
1324	6.33391e+02	1.32400e+03	-8.52242e-03	6.33022e+02
1325	6.34115e+02	1.32500e+03	-8.53136e-03	6.33772e+02
1326	6.34835e+02	1.32600e+03	-8.55448e-03	6.34522e+02
1327	6.35569e+02	1.32700e+03	-8.58821e-03	6.35272e+02
1328	6.36290e+02	1.32800e+03	-8.65533e-03	6.36022e+02
1329	6.37011e+02	1.32900e+03	-8.73188e-03	6.36772e+02
1330	6.37736e+02	1.33000e+03	-8.81958e-03	6.37522e+02
1331	6.38457e+02	1.33100e+03	-8.91398e-03	6.38272e+02
1332	6.39164e+02	1.33200e+03	-9.05694e-03	6.39022e+02
1333	6.39889e+02	1.33300e+03	-9.16412e-03	6.39773e+02
1334	6.40601e+02	1.33400e+03	-9.25098e-03	6.40523e+02
1335	6.41336e+02	1.33500e+03	-9.32400e-03	6.41273e+02
1336	6.42070e+02	1.33600e+03	-9.32925e-03	6.42023e+02
1337	6.42803e+02	1.33700e+03	-9.31048e-03	6.42773e+02
1338	6.43532e+02	1.33800e+03	-9.25214e-03	6.43523e+02
1339	6.44275e+02	1.33900e+03	-9.16545e-03	6.44273e+02
1340	6.45011e+02	1.34000e+03	-8.94331e-03	6.45023e+02
1341	6.45747e+02	1.34100e+03	-8.76854e-03	6.45773e+02
1342	6.46495e+02	1.34200e+03	-8.60712e-03	6.46523e+02
1343	6.47228e+02	1.34300e+03	-8.45451e-03	6.47273e+02
1344	6.47958e+02	1.34400e+03	-8.31247e-03	6.48023e+02
1345	6.48713e+02	1.34500e+03	-8.23236e-03	6.48773e+02
1346	6.49430e+02	1.34600e+03	-8.20153e-03	6.49523e+02
1347	6.50177e+02	1.34700e+03	-8.20220e-03	6.50273e+02
1348	6.50938e+02	1.34800e+03	-8.36781e-03	6.51023e+02
1349	6.51696e+02	1.34900e+03	-8.48382e-03	6.51773e+02
1350	6.52437e+02	1.35000e+03	-8.60190e-03	6.52523e+02
1351	6.53174e+02	1.35100e+03	-8.72604e-03	6.53273e+02
1352	6.53911e+02	1.35200e+03	-8.89846e-03	6.54023e+02
1353	6.54677e+02	1.35300e+03	-9.01764e-03	6.54773e+02
1354	6.55440e+02	1.35400e+03	-9.10665e-03	6.55523e+02
1355	6.56205e+02	1.35500e+03	-9.17730e-03	6.56273e+02
1356	6.56973e+02	1.35600e+03	-9.15109e-03	6.57023e+02
1357	6.57712e+02	1.35700e+03	-9.12466e-03	6.57773e+02
1358	6.58453e+02	1.35800e+03	-9.07297e-03	6.58523e+02
1359	6.59197e+02	1.35900e+03	-9.00348e-03	6.59273e+02
1360	6.59943e+02	1.36000e+03	-8.84308e-03	6.60023e+02
1361	6.60682e+02	1.36100e+03	-8.73689e-03	6.60773e+02
1362	6.61420e+02	1.36200e+03	-8.65613e-03	6.61523e+02
1363	6.62150e+02	1.36300e+03	-8.59044e-03	6.62273e+02
1364	6.62893e+02	1.36400e+03	-8.57349e-03	6.63023e+02
1365	6.63630e+02	1.36500e+03	-8.57454e-03	6.63773e+02
1366	6.64378e+02	1.36600e+03	-8.59420e-03	6.64523e+02
1367	6.65119e+02	1.36700e+03	-8.62195e-03	6.65274e+02
1368	6.65852e+02	1.36800e+03	-8.71976e-03	6.66024e+02
1369	6.66579e+02	1.36900e+03	-8.76948e-03	6.66774e+02
1370	6.67326e+02	1.37000e+03	-8.80859e-03	6.67524e+02
1371	6.68055e+02	1.37100e+03	-8.84669e-03	6.68274e+02
1372	6.68790e+02	1.37200e+03	-8.86262e-03	6.69024e+02
1373	6.69535e+02	1.37300e+03	-8.88942e-03	6.69774e+02
1374	6.70276e+02	1.37400e+03	-8.91375e-03	6.70524e+02
1375	6.71017e+02	1.37500e+03	-8.93458e-03	6.71274e+02
1376	6.71750e+02	1.37600e+03	-8.94708e-03	6.72024e+02
1377	6.72491e+02	1.37700e+03	-8.95504e-03	6.72774e+02
1378	6.73220e+02	1.37800e+03	-8.95664e-03	6.73524e+02
1379	6.73968e+02	1.37900e+03	-8.95299e-03	6.74274e+02
1380	6.74700e+02	1.38000e+03	-8.92252e-03	6.75024e+02
1381	6.75436e+02	1.38100e+03	-8.89673e-03	6.75774e+02
1382	6.76188e+02	1.38200e+03	-8.86802e-03	6.76524e+02
1383	6.76921e+02	1.38300e+03	-8.83700e-03	6.77274e+02
1384	6.77669e+02	1.38400e+03	-8.79525e-03	6.78024e+02
1385	6.78403e+02	1.38500e+03	-8.76835e-03	6.78774e+02
1386	6.79142e+02	1.38600e+03	-8.75169e-03	6.79524e+02
1387	6.79908e+02	1.38700e+03	-8.74128e-03	6.80274e+02
1388	6.80317e+02	1.38800e+03	-8.75653e-03	6.81024e+02
1389	6.80536e+02	1.38900e+03	-8.76569e-03	6.81774e+02
1390	6.80957e+02	1.39000e+03	-8.77173e-03	6.82524e+02
1391	6.81481e+02	1.39100e+03	-8.77648e-03	6.83274e+02
1392	6.82016e+02	1.39200e+03	-8.78325e-03	6.84024e+02
1393	6.82564e+02	1.39300e+03	-8.78174e-03	6.84774e+02
1394	6.83087e+02	1.39400e+03	-8.78755e-03	6.85524e+02
1395	6.83578e+02	1.39500e+03	-8.80228e-03	6.86274e+02
1396	6.84065e+02	1.39600e+03	-8.81534e-03	6.87024e+02
1397	6.84554e+02	1.39700e+03	-8.84599e-03	6.87774e+02
1398	6.85004e+02	1.39800e+03	-8.88355e-03	6.88524e+02
1399	6.85463e+02	1.39900e+03	-8.92164e-03	6.89275e+02
1400	6.85906e+02	1.40000e+03	-8.97124e-03	6.90025e+02
1401	6.86325e+02	1.40100e+03	-8.98363e-03	6.90775e+02
1402	6.86743e+02	1.40200e+03	-8.97084e-03	6.91525e+02
1403	6.87152e+02	1.40300e+03	-8.94288e-03	6.92275e+02
1404	6.87543e+02	1.40400e+03	-8.84487e-03	6.93025e+02
1405	6.87909e+02	1.40500e+03	-8.77302e-03	6.93775e+02
1406	6.88273e+02	1.40600e+03	-8.70914e-03	6.94525e+02
1407	6.88620e+02	1.40700e+03	-8.64976e-03	6.95275e+02
1408	6.88963e+02	1.40800e+03	-8.59297e-03	6.96025e+02
1409	6.89298e+02	1.40900e+03	-8.56564e-03	6.96775e+02
1410	6.89599e+02	1.41000e+03	-8.55216e-03	6.97525e+02
1411	6.89909e+02	1.41100e+03	-8.54680e-03	6.98275e+02
1412	6.90202e+02	1.41200e+03	-8.60064e-03	6.99025e+02
1413	6.90495e+02	1.41300e+03	-8.62195e-03	6.99775e+02
1414	6.90774e+02	1.41400e+03	-8.63050e-03	7.00000e+02