File: Experiments/TUBS/tga_nonisotherm/tga_dynamic_n2_dyn10_powder_1mg_r3.txt
index	ts	t	weight	tr
[#]	[°C]	[s]	[mg]	[°C]
843	1.30984e+02	8.43000e+02	9.59850e-01	1.30500e+02
847	1.31648e+02	8.47000e+02	9.59872e-01	1.31167e+02
851	1.32342e+02	8.51000e+02	9.59904e-01	1.31833e+02
855	1.33011e+02	8.55000e+02	9.59946e-01	1.32500e+02
859	1.33689e+02	8.59000e+02	9.59982e-01	1.33167e+02
863	1.34358e+02	8.63000e+02	9.59946e-01	1.33833e+02
867	1.35034e+02	8.67000e+02	9.59866e-01	1.34500e+02
871	1.35709e+02	8.71000e+02	9.59755e-01	1.35167e+02
875	1.36388e+02	8.75000e+02	9.59620e-01	1.35833e+02
879	1.37048e+02	8.79000e+02	9.59469e-01	1.36500e+02
883	1.37740e+02	8.83000e+02	9.59369e-01	1.37167e+02
887	1.38413e+02	8.87000e+02	9.59330e-01	1.37833e+02
891	1.39094e+02	8.91000e+02	9.59280e-01	1.38500e+02
895	1.39758e+02	8.95000e+02	9.59265e-01	1.39167e+02
899	1.40428e+02	8.99000e+02	9.59250e-01	1.39833e+02
903	1.41109e+02	9.03000e+02	9.59171e-01	1.40500e+02
907	1.41778e+02	9.07000e+02	9.59059e-01	1.41167e+02
911	1.42462e+02	9.11000e+02	9.58966e-01	1.41833e+02
915	1.43139e+02	9.15000e+02	9.58917e-01	1.42500e+02
919	1.43814e+02	9.19000e+02	9.58808e-01	1.43167e+02
923	1.44483e+02	9.23000e+02	9.58504e-01	1.43833e+02
927	1.45166e+02	9.27000e+02	9.58334e-01	1.44500e+02
931	1.45845e+02	9.31000e+02	9.58606e-01	1.45167e+02
935	1.46519e+02	9.35000e+02	9.58793e-01	1.45833e+02
939	1.47199e+02	9.39000e+02	9.58524e-01	1.46500e+02
943	1.47876e+02	9.43000e+02	9.58095e-01	1.47167e+02
947	1.48554e+02	9.47000e+02	9.57797e-01	1.47833e+02
951	1.49233e+02	9.51000e+02	9.57669e-01	1.48500e+02
955	1.49896e+02	9.55000e+02	9.57661e-01	1.49167e+02
959	1.50579e+02	9.59000e+02	9.57611e-01	1.49833e+02
963	1.51253e+02	9.63000e+02	9.57383e-01	1.50500e+02
967	1.51929e+02	9.67000e+02	9.57136e-01	1.51167e+02
971	1.52605e+02	9.71000e+02	9.56974e-01	1.51833e+02
975	1.53285e+02	9.75000e+02	9.56877e-01	1.52500e+02
979	1.53956e+02	9.79000e+02	9.56708e-01	1.53167e+02
983	1.54636e+02	9.83000e+02	9.56445e-01	1.53833e+02
987	1.55305e+02	9.87000e+02	9.56154e-01	1.54500e+02
991	1.55981e+02	9.91000e+02	9.55878e-01	1.55167e+02
995	1.56665e+02	9.95000e+02	9.55809e-01	1.55833e+02
999	1.57336e+02	9.99000e+02	9.55807e-01	1.56500e+02
1003	1.58014e+02	1.00300e+03	9.55615e-01	1.57167e+02
1007	1.58694e+02	1.00700e+03	9.55405e-01	1.57833e+02
1011	1.59362e+02	1.01100e+03	9.55269e-01	1.58500e+02
1015	1.60049e+02	1.01500e+03	9.55004e-01	1.59167e+02
1019	1.60718e+02	1.01900e+03	9.54648e-01	1.59833e+02
1023	1.61393e+02	1.02300e+03	9.54370e-01	1.60500e+02
1027	1.62069e+02	1.02700e+03	9.54229e-01	1.61167e+02
1031	1.62738e+02	1.03100e+03	9.54155e-01	1.61833e+02
1035	1.63416e+02	1.03500e+03	9.53904e-01	1.62500e+02
1039	1.64091e+02	1.03900e+03	9.53470e-01	1.63167e+02
1043	1.64772e+02	1.04300e+03	9.53060e-01	1.63833e+02
1047	1.65441e+02	1.04700e+03	9.52765e-01	1.64500e+02
1051	1.66115e+02	1.05100e+03	9.52500e-01	1.65167e+02
1055	1.66804e+02	1.05500e+03	9.52245e-01	1.65833e+02
1059	1.67463e+02	1.05900e+03	9.51957e-01	1.66500e+02
1063	1.68129e+02	1.06300e+03	9.51510e-01	1.67167e+02
1067	1.68815e+02	1.06700e+03	9.51021e-01	1.67833e+02
1071	1.69499e+02	1.07100e+03	9.50623e-01	1.68500e+02
1075	1.70166e+02	1.07500e+03	9.50177e-01	1.69167e+02
1079	1.70854e+02	1.07900e+03	9.49584e-01	1.69833e+02
1083	1.71520e+02	1.08300e+03	9.48972e-01	1.70500e+02
1087	1.72198e+02	1.08700e+03	9.48381e-01	1.71167e+02
1091	1.72881e+02	1.09100e+03	9.47651e-01	1.71833e+02
1095	1.73556e+02	1.09500e+03	9.46871e-01	1.72500e+02
1099	1.74217e+02	1.09900e+03	9.46255e-01	1.73167e+02
1103	1.74900e+02	1.10300e+03	9.45686e-01	1.73833e+02
1107	1.75563e+02	1.10700e+03	9.45015e-01	1.74500e+02
1111	1.76250e+02	1.11100e+03	9.44249e-01	1.75167e+02
1115	1.76919e+02	1.11500e+03	9.43403e-01	1.75833e+02
1119	1.77597e+02	1.11900e+03	9.42640e-01	1.76500e+02
1123	1.78274e+02	1.12300e+03	9.41990e-01	1.77167e+02
1127	1.78946e+02	1.12700e+03	9.41204e-01	1.77833e+02
1131	1.79616e+02	1.13100e+03	9.40305e-01	1.78500e+02
1135	1.80298e+02	1.13500e+03	9.39414e-01	1.79167e+02
1139	1.80984e+02	1.13900e+03	9.38453e-01	1.79833e+02
1143	1.81641e+02	1.14300e+03	9.37426e-01	1.80500e+02
1147	1.82322e+02	1.14700e+03	9.36500e-01	1.81167e+02
1151	1.82997e+02	1.15100e+03	9.35671e-01	1.81833e+02
1155	1.83675e+02	1.15500e+03	9.34798e-01	1.82500e+02
1159	1.84348e+02	1.15900e+03	9.33833e-01	1.83167e+02
1163	1.85010e+02	1.16300e+03	9.32855e-01	1.83833e+02
1167	1.85694e+02	1.16700e+03	9.32025e-01	1.84500e+02
1171	1.86363e+02	1.17100e+03	9.31213e-01	1.85167e+02
1175	1.87033e+02	1.17500e+03	9.30307e-01	1.85833e+02
1179	1.87714e+02	1.17900e+03	9.29538e-01	1.86500e+02
1183	1.88378e+02	1.18300e+03	9.28891e-01	1.87167e+02
1187	1.89063e+02	1.18700e+03	9.28178e-01	1.87833e+02
1191	1.89728e+02	1.19100e+03	9.27448e-01	1.88500e+02
1195	1.90416e+02	1.19500e+03	9.26783e-01	1.89167e+02
1199	1.91074e+02	1.19900e+03	9.26156e-01	1.89833e+02
1203	1.91742e+02	1.20300e+03	9.25630e-01	1.90500e+02
1207	1.92425e+02	1.20700e+03	9.25161e-01	1.91167e+02
1211	1.93095e+02	1.21100e+03	9.24572e-01	1.91833e+02
1215	1.93765e+02	1.21500e+03	9.23931e-01	1.92500e+02
1219	1.94438e+02	1.21900e+03	9.23408e-01	1.93167e+02
1223	1.95112e+02	1.22300e+03	9.22969e-01	1.93833e+02
1227	1.95776e+02	1.22700e+03	9.22458e-01	1.94500e+02
1231	1.96446e+02	1.23100e+03	9.21874e-01	1.95167e+02
1235	1.97121e+02	1.23500e+03	9.21356e-01	1.95833e+02
1239	1.97798e+02	1.23900e+03	9.21153e-01	1.96500e+02
1243	1.98468e+02	1.24300e+03	9.21137e-01	1.97167e+02
1247	1.99141e+02	1.24700e+03	9.20948e-01	1.97833e+02
1251	1.99826e+02	1.25100e+03	9.20674e-01	1.98500e+02
1255	2.00495e+02	1.25500e+03	9.20400e-01	1.99167e+02
1259	2.01160e+02	1.25900e+03	9.20039e-01	1.99833e+02
1263	2.01835e+02	1.26300e+03	9.19707e-01	2.00500e+02
1267	2.02492e+02	1.26700e+03	9.19538e-01	2.01167e+02
1271	2.03176e+02	1.27100e+03	9.19428e-01	2.01833e+02
1275	2.03838e+02	1.27500e+03	9.19224e-01	2.02500e+02
1279	2.04510e+02	1.27900e+03	9.18933e-01	2.03167e+02
1283	2.05188e+02	1.28300e+03	9.18706e-01	2.03833e+02
1287	2.05869e+02	1.28700e+03	9.18508e-01	2.04500e+02
1291	2.06537e+02	1.29100e+03	9.18240e-01	2.05167e+02
1295	2.07204e+02	1.29500e+03	9.18035e-01	2.05833e+02
1299	2.07861e+02	1.29900e+03	9.17962e-01	2.06500e+02
1303	2.08524e+02	1.30300e+03	9.17858e-01	2.07167e+02
1307	2.09183e+02	1.30700e+03	9.17700e-01	2.07833e+02
1311	2.09865e+02	1.31100e+03	9.17469e-01	2.08500e+02
1315	2.10523e+02	1.31500e+03	9.17107e-01	2.09167e+02
1319	2.11190e+02	1.31900e+03	9.17023e-01	2.09833e+02
1323	2.11856e+02	1.32300e+03	9.17294e-01	2.10500e+02
1327	2.12522e+02	1.32700e+03	9.17308e-01	2.11167e+02
1331	2.13191e+02	1.33100e+03	9.16955e-01	2.11833e+02
1335	2.13867e+02	1.33500e+03	9.16613e-01	2.12500e+02
1339	2.14535e+02	1.33900e+03	9.16433e-01	2.13167e+02
1343	2.15208e+02	1.34300e+03	9.16326e-01	2.13833e+02
1347	2.15875e+02	1.34700e+03	9.16184e-01	2.14500e+02
1351	2.16556e+02	1.35100e+03	9.16051e-01	2.15167e+02
1355	2.17227e+02	1.35500e+03	9.15916e-01	2.15833e+02
1359	2.17915e+02	1.35900e+03	9.15709e-01	2.16500e+02
1363	2.18584e+02	1.36300e+03	9.15452e-01	2.17167e+02
1367	2.19251e+02	1.36700e+03	9.15208e-01	2.17833e+02
1371	2.19930e+02	1.37100e+03	9.15027e-01	2.18500e+02
1375	2.20610e+02	1.37500e+03	9.15015e-01	2.19167e+02
1379	2.21263e+02	1.37900e+03	9.14913e-01	2.19833e+02
1383	2.21948e+02	1.38300e+03	9.14655e-01	2.20500e+02
1387	2.22620e+02	1.38700e+03	9.14632e-01	2.21167e+02
1391	2.23295e+02	1.39100e+03	9.14612e-01	2.21833e+02
1395	2.23973e+02	1.39500e+03	9.14394e-01	2.22500e+02
1399	2.24641e+02	1.39900e+03	9.14181e-01	2.23167e+02
1403	2.25317e+02	1.40300e+03	9.14019e-01	2.23833e+02
1407	2.25983e+02	1.40700e+03	9.13837e-01	2.24500e+02
1411	2.26653e+02	1.41100e+03	9.13692e-01	2.25167e+02
1415	2.27334e+02	1.41500e+03	9.13629e-01	2.25833e+02
1419	2.28036e+02	1.41900e+03	9.13501e-01	2.26500e+02
1423	2.28724e+02	1.42300e+03	9.13287e-01	2.27167e+02
1427	2.29399e+02	1.42700e+03	9.13077e-01	2.27833e+02
1431	2.30089e+02	1.43100e+03	9.13097e-01	2.28500e+02
1435	2.30752e+02	1.43500e+03	9.13071e-01	2.29167e+02
1439	2.31433e+02	1.43900e+03	9.12698e-01	2.29833e+02
1443	2.32105e+02	1.44300e+03	9.12527e-01	2.30500e+02
1447	2.32792e+02	1.44700e+03	9.12528e-01	2.31167e+02
1451	2.33469e+02	1.45100e+03	9.12555e-01	2.31833e+02
1455	2.34165e+02	1.45500e+03	9.12647e-01	2.32500e+02
1459	2.34852e+02	1.45900e+03	9.12560e-01	2.33167e+02
1463	2.35534e+02	1.46300e+03	9.12371e-01	2.33833e+02
1467	2.36212e+02	1.46700e+03	9.12246e-01	2.34500e+02
1471	2.36899e+02	1.47100e+03	9.12155e-01	2.35167e+02
1475	2.37574e+02	1.47500e+03	9.12129e-01	2.35833e+02
1479	2.38239e+02	1.47900e+03	9.12150e-01	2.36500e+02
1483	2.38915e+02	1.48300e+03	9.12045e-01	2.37167e+02
1487	2.39593e+02	1.48700e+03	9.11901e-01	2.37833e+02
1491	2.40282e+02	1.49100e+03	9.11836e-01	2.38500e+02
1495	2.40944e+02	1.49500e+03	9.11880e-01	2.39167e+02
1499	2.41633e+02	1.49900e+03	9.11968e-01	2.39833e+02
1503	2.42305e+02	1.50300e+03	9.11902e-01	2.40500e+02
1507	2.42973e+02	1.50700e+03	9.11733e-01	2.41167e+02
1511	2.43658e+02	1.51100e+03	9.11581e-01	2.41833e+02
1515	2.44352e+02	1.51500e+03	9.11454e-01	2.42500e+02
1519	2.45052e+02	1.51900e+03	9.11297e-01	2.43167e+02
1523	2.45730e+02	1.52300e+03	9.11223e-01	2.43833e+02
1527	2.46425e+02	1.52700e+03	9.11336e-01	2.44500e+02
1531	2.47108e+02	1.53100e+03	9.11296e-01	2.45167e+02
1535	2.47777e+02	1.53500e+03	9.11106e-01	2.45833e+02
1539	2.48450e+02	1.53900e+03	9.10962e-01	2.46500e+02
1543	2.49139e+02	1.54300e+03	9.10838e-01	2.47167e+02
1547	2.49812e+02	1.54700e+03	9.10776e-01	2.47833e+02
1551	2.50492e+02	1.55100e+03	9.10753e-01	2.48500e+02
1555	2.51173e+02	1.55500e+03	9.10683e-01	2.49167e+02
1559	2.51844e+02	1.55900e+03	9.10577e-01	2.49833e+02
1563	2.52516e+02	1.56300e+03	9.10446e-01	2.50500e+02
1567	2.53192e+02	1.56700e+03	9.10363e-01	2.51167e+02
1571	2.53895e+02	1.57100e+03	9.10307e-01	2.51833e+02
1575	2.54556e+02	1.57500e+03	9.10187e-01	2.52500e+02
1579	2.55244e+02	1.57900e+03	9.09996e-01	2.53167e+02
1583	2.55926e+02	1.58300e+03	9.09858e-01	2.53833e+02
1587	2.56604e+02	1.58700e+03	9.09851e-01	2.54500e+02
1591	2.57282e+02	1.59100e+03	9.09796e-01	2.55167e+02
1595	2.57972e+02	1.59500e+03	9.09664e-01	2.55833e+02
1599	2.58650e+02	1.59900e+03	9.09570e-01	2.56500e+02
1603	2.59326e+02	1.60300e+03	9.09470e-01	2.57167e+02
1607	2.60001e+02	1.60700e+03	9.09334e-01	2.57833e+02
1611	2.60676e+02	1.61100e+03	9.09163e-01	2.58500e+02
1615	2.61357e+02	1.61500e+03	9.08980e-01	2.59167e+02
1619	2.62021e+02	1.61900e+03	9.08852e-01	2.59833e+02
1623	2.62712e+02	1.62300e+03	9.08756e-01	2.60500e+02
1627	2.63386e+02	1.62700e+03	9.08643e-01	2.61167e+02
1631	2.64062e+02	1.63100e+03	9.08487e-01	2.61833e+02
1635	2.64723e+02	1.63500e+03	9.08325e-01	2.62500e+02
1639	2.65403e+02	1.63900e+03	9.08214e-01	2.63167e+02
1643	2.66061e+02	1.64300e+03	9.08127e-01	2.63833e+02
1647	2.66747e+02	1.64700e+03	9.07955e-01	2.64500e+02
1651	2.67404e+02	1.65100e+03	9.07718e-01	2.65167e+02
1655	2.68078e+02	1.65500e+03	9.07524e-01	2.65833e+02
1659	2.68758e+02	1.65900e+03	9.07368e-01	2.66500e+02
1663	2.69432e+02	1.66300e+03	9.07155e-01	2.67167e+02
1667	2.70094e+02	1.66700e+03	9.06890e-01	2.67833e+02
1671	2.70769e+02	1.67100e+03	9.06613e-01	2.68500e+02
1675	2.71430e+02	1.67500e+03	9.06290e-01	2.69167e+02
1679	2.72101e+02	1.67900e+03	9.05957e-01	2.69833e+02
1683	2.72777e+02	1.68300e+03	9.05692e-01	2.70500e+02
1687	2.73439e+02	1.68700e+03	9.05436e-01	2.71167e+02
1691	2.74104e+02	1.69100e+03	9.05213e-01	2.71833e+02
1695	2.74775e+02	1.69500e+03	9.05073e-01	2.72500e+02
1699	2.75438e+02	1.69900e+03	9.04859e-01	2.73167e+02
1703	2.76112e+02	1.70300e+03	9.04496e-01	2.73833e+02
1707	2.76772e+02	1.70700e+03	9.04092e-01	2.74500e+02
1711	2.77441e+02	1.71100e+03	9.03659e-01	2.75167e+02
1715	2.78109e+02	1.71500e+03	9.03172e-01	2.75833e+02
1719	2.78771e+02	1.71900e+03	9.02775e-01	2.76500e+02
1723	2.79459e+02	1.72300e+03	9.02488e-01	2.77167e+02
1727	2.80122e+02	1.72700e+03	9.02167e-01	2.77833e+02
1731	2.80788e+02	1.73100e+03	9.01799e-01	2.78500e+02
1735	2.81452e+02	1.73500e+03	9.01391e-01	2.79167e+02
1739	2.82130e+02	1.73900e+03	9.00898e-01	2.79833e+02
1743	2.82791e+02	1.74300e+03	9.00376e-01	2.80500e+02
1747	2.83442e+02	1.74700e+03	8.99855e-01	2.81167e+02
1751	2.84121e+02	1.75100e+03	8.99269e-01	2.81833e+02
1755	2.84776e+02	1.75500e+03	8.98680e-01	2.82500e+02
1759	2.85431e+02	1.75900e+03	8.98188e-01	2.83167e+02
1763	2.86098e+02	1.76300e+03	8.97729e-01	2.83833e+02
1767	2.86768e+02	1.76700e+03	8.97218e-01	2.84500e+02
1771	2.87427e+02	1.77100e+03	8.96555e-01	2.85167e+02
1775	2.88103e+02	1.77500e+03	8.95782e-01	2.85833e+02
1779	2.88773e+02	1.77900e+03	8.95047e-01	2.86500e+02
1783	2.89433e+02	1.78300e+03	8.94293e-01	2.87167e+02
1787	2.90100e+02	1.78700e+03	8.93529e-01	2.87833e+02
1791	2.90756e+02	1.79100e+03	8.92847e-01	2.88500e+02
1795	2.91428e+02	1.79500e+03	8.92095e-01	2.89167e+02
1799	2.92081e+02	1.79900e+03	8.91197e-01	2.89833e+02
1803	2.92745e+02	1.80300e+03	8.90347e-01	2.90500e+02
1807	2.93419e+02	1.80700e+03	8.89539e-01	2.91167e+02
1811	2.94070e+02	1.81100e+03	8.88622e-01	2.91833e+02
1815	2.94729e+02	1.81500e+03	8.87600e-01	2.92500e+02
1819	2.95407e+02	1.81900e+03	8.86703e-01	2.93167e+02
1823	2.96072e+02	1.82300e+03	8.85843e-01	2.93833e+02
1827	2.96737e+02	1.82700e+03	8.84781e-01	2.94500e+02
1831	2.97403e+02	1.83100e+03	8.83731e-01	2.95167e+02
1835	2.98059e+02	1.83500e+03	8.82750e-01	2.95833e+02
1839	2.98720e+02	1.83900e+03	8.81707e-01	2.96500e+02
1843	2.99406e+02	1.84300e+03	8.80672e-01	2.97167e+02
1847	3.00064e+02	1.84700e+03	8.79713e-01	2.97833e+02
1851	3.00718e+02	1.85100e+03	8.78754e-01	2.98500e+02
1855	3.01367e+02	1.85500e+03	8.77703e-01	2.99167e+02
1859	3.02030e+02	1.85900e+03	8.76566e-01	2.99833e+02
1863	3.02683e+02	1.86300e+03	8.75454e-01	3.00500e+02
1867	3.03345e+02	1.86700e+03	8.74369e-01	3.01167e+02
1871	3.04016e+02	1.87100e+03	8.73218e-01	3.01833e+02
1875	3.04675e+02	1.87500e+03	8.72052e-01	3.02500e+02
1879	3.05349e+02	1.87900e+03	8.70986e-01	3.03167e+02
1883	3.06012e+02	1.88300e+03	8.69945e-01	3.03833e+02
1887	3.06678e+02	1.88700e+03	8.68840e-01	3.04500e+02
1891	3.07324e+02	1.89100e+03	8.67694e-01	3.05167e+02
1895	3.08007e+02	1.89500e+03	8.66500e-01	3.05833e+02
1899	3.08672e+02	1.89900e+03	8.65266e-01	3.06500e+02
1903	3.09341e+02	1.90300e+03	8.64135e-01	3.07167e+02
1907	3.09997e+02	1.90700e+03	8.62985e-01	3.07833e+02
1911	3.10659e+02	1.91100e+03	8.61625e-01	3.08500e+02
1915	3.11331e+02	1.91500e+03	8.60474e-01	3.09167e+02
1919	3.12007e+02	1.91900e+03	8.59641e-01	3.09833e+02
1923	3.12681e+02	1.92300e+03	8.58644e-01	3.10500e+02
1927	3.13351e+02	1.92700e+03	8.57432e-01	3.11167e+02
1931	3.14024e+02	1.93100e+03	8.56202e-01	3.11833e+02
1935	3.14685e+02	1.93500e+03	8.55049e-01	3.12500e+02
1939	3.15344e+02	1.93900e+03	8.53987e-01	3.13167e+02
1943	3.16015e+02	1.94300e+03	8.52797e-01	3.13833e+02
1947	3.16680e+02	1.94700e+03	8.51416e-01	3.14500e+02
1951	3.17358e+02	1.95100e+03	8.50063e-01	3.15167e+02
1955	3.18030e+02	1.95500e+03	8.48727e-01	3.15833e+02
1959	3.18703e+02	1.95900e+03	8.47267e-01	3.16500e+02
1963	3.19371e+02	1.96300e+03	8.45760e-01	3.17167e+02
1967	3.20048e+02	1.96700e+03	8.44228e-01	3.17833e+02
1971	3.20743e+02	1.97100e+03	8.42627e-01	3.18500e+02
1975	3.21447e+02	1.97500e+03	8.40993e-01	3.19167e+02
1979	3.22153e+02	1.97900e+03	8.39291e-01	3.19833e+02
1983	3.22872e+02	1.98300e+03	8.37508e-01	3.20500e+02
1987	3.23609e+02	1.98700e+03	8.35626e-01	3.21167e+02
1991	3.24331e+02	1.99100e+03	8.33763e-01	3.21833e+02
1995	3.25023e+02	1.99500e+03	8.31847e-01	3.22500e+02
1999	3.25721e+02	1.99900e+03	8.29692e-01	3.23167e+02
2003	3.26441e+02	2.00300e+03	8.27427e-01	3.23833e+02
2007	3.27108e+02	2.00700e+03	8.25169e-01	3.24500e+02
2011	3.27805e+02	2.01100e+03	8.22838e-01	3.25167e+02
2015	3.28523e+02	2.01500e+03	8.20319e-01	3.25833e+02
2019	3.29176e+02	2.01900e+03	8.17742e-01	3.26500e+02
2023	3.29836e+02	2.02300e+03	8.15066e-01	3.27167e+02
2027	3.30521e+02	2.02700e+03	8.12213e-01	3.27833e+02
2031	3.31185e+02	2.03100e+03	8.09328e-01	3.28500e+02
2035	3.31877e+02	2.03500e+03	8.06279e-01	3.29167e+02
2039	3.32566e+02	2.03900e+03	8.03019e-01	3.29833e+02
2043	3.33230e+02	2.04300e+03	7.99821e-01	3.30500e+02
2047	3.33901e+02	2.04700e+03	7.96501e-01	3.31167e+02
2051	3.34548e+02	2.05100e+03	7.92676e-01	3.31833e+02
2055	3.35198e+02	2.05500e+03	7.88423e-01	3.32500e+02
2059	3.35879e+02	2.05900e+03	7.84202e-01	3.33167e+02
2063	3.36546e+02	2.06300e+03	7.80400e-01	3.33833e+02
2067	3.37207e+02	2.06700e+03	7.76575e-01	3.34500e+02
2071	3.37879e+02	2.07100e+03	7.72146e-01	3.35167e+02
2075	3.38565e+02	2.07500e+03	7.67206e-01	3.35833e+02
2079	3.39246e+02	2.07900e+03	7.62007e-01	3.36500e+02
2083	3.39937e+02	2.08300e+03	7.56737e-01	3.37167e+02
2087	3.40625e+02	2.08700e+03	7.51381e-01	3.37833e+02
2091	3.41287e+02	2.09100e+03	7.45844e-01	3.38500e+02
2095	3.41968e+02	2.09500e+03	7.40114e-01	3.39167e+02
2099	3.42660e+02	2.09900e+03	7.34187e-01	3.39833e+02
2103	3.43360e+02	2.10300e+03	7.28065e-01	3.40500e+02
2107	3.44044e+02	2.10700e+03	7.21697e-01	3.41167e+02
2111	3.44717e+02	2.11100e+03	7.15100e-01	3.41833e+02
2115	3.45409e+02	2.11500e+03	7.08239e-01	3.42500e+02
2119	3.46084e+02	2.11900e+03	7.01089e-01	3.43167e+02
2123	3.46773e+02	2.12300e+03	6.93813e-01	3.43833e+02
2127	3.47442e+02	2.12700e+03	6.86330e-01	3.44500e+02
2131	3.48131e+02	2.13100e+03	6.78582e-01	3.45167e+02
2135	3.48840e+02	2.13500e+03	6.70854e-01	3.45833e+02
2139	3.49561e+02	2.13900e+03	6.63185e-01	3.46500e+02
2143	3.50266e+02	2.14300e+03	6.55156e-01	3.47167e+02
2147	3.50982e+02	2.14700e+03	6.46516e-01	3.47833e+02
2151	3.51674e+02	2.15100e+03	6.37645e-01	3.48500e+02
2155	3.52402e+02	2.15500e+03	6.28747e-01	3.49167e+02
2159	3.53201e+02	2.15900e+03	6.19611e-01	3.49833e+02
2163	3.53855e+02	2.16300e+03	6.10219e-01	3.50500e+02
2167	3.54550e+02	2.16700e+03	6.00736e-01	3.51167e+02
2171	3.55193e+02	2.17100e+03	5.91129e-01	3.51833e+02
2175	3.55826e+02	2.17500e+03	5.81337e-01	3.52500e+02
2179	3.56478e+02	2.17900e+03	5.71419e-01	3.53167e+02
2183	3.57129e+02	2.18300e+03	5.61300e-01	3.53833e+02
2187	3.57798e+02	2.18700e+03	5.50977e-01	3.54500e+02
2191	3.58599e+02	2.19100e+03	5.40536e-01	3.55167e+02
2195	3.59314e+02	2.19500e+03	5.29975e-01	3.55833e+02
2199	3.60041e+02	2.19900e+03	5.19250e-01	3.56500e+02
2203	3.60726e+02	2.20300e+03	5.08326e-01	3.57167e+02
2207	3.61490e+02	2.20700e+03	4.97187e-01	3.57833e+02
2211	3.62120e+02	2.21100e+03	4.85911e-01	3.58500e+02
2215	3.62746e+02	2.21500e+03	4.74692e-01	3.59167e+02
2219	3.63383e+02	2.21900e+03	4.63553e-01	3.59833e+02
2223	3.64023e+02	2.22300e+03	4.52340e-01	3.60500e+02
2227	3.64685e+02	2.22700e+03	4.41005e-01	3.61167e+02
2231	3.65331e+02	2.23100e+03	4.29672e-01	3.61833e+02
2235	3.65997e+02	2.23500e+03	4.18364e-01	3.62500e+02
2239	3.66671e+02	2.23900e+03	4.07067e-01	3.63167e+02
2243	3.67334e+02	2.24300e+03	3.95866e-01	3.63833e+02
2247	3.67999e+02	2.24700e+03	3.84542e-01	3.64500e+02
2251	3.68656e+02	2.25100e+03	3.72841e-01	3.65167e+02
2255	3.69311e+02	2.25500e+03	3.61097e-01	3.65833e+02
2259	3.69995e+02	2.25900e+03	3.49692e-01	3.66500e+02
2263	3.70690e+02	2.26300e+03	3.38528e-01	3.67167e+02
2267	3.71361e+02	2.26700e+03	3.27261e-01	3.67833e+02
2271	3.72050e+02	2.27100e+03	3.15741e-01	3.68500e+02
2275	3.72791e+02	2.27500e+03	3.04096e-01	3.69167e+02
2279	3.73536e+02	2.27900e+03	2.92569e-01	3.69833e+02
2283	3.74225e+02	2.28300e+03	2.81254e-01	3.70500e+02
2287	3.74902e+02	2.28700e+03	2.69995e-01	3.71167e+02
2291	3.75598e+02	2.29100e+03	2.58823e-01	3.71833e+02
2295	3.76257e+02	2.29500e+03	2.47966e-01	3.72500e+02
2299	3.76955e+02	2.29900e+03	2.37401e-01	3.73167e+02
2303	3.77682e+02	2.30300e+03	2.26964e-01	3.73833e+02
2307	3.78310e+02	2.30700e+03	2.16688e-01	3.74500e+02
2311	3.78948e+02	2.31100e+03	2.06620e-01	3.75167e+02
2315	3.79600e+02	2.31500e+03	1.96796e-01	3.75833e+02
2319	3.80278e+02	2.31900e+03	1.87245e-01	3.76500e+02
2323	3.80949e+02	2.32300e+03	1.77918e-01	3.77167e+02
2327	3.81613e+02	2.32700e+03	1.68764e-01	3.77833e+02
2331	3.82261e+02	2.33100e+03	1.59741e-01	3.78500e+02
2335	3.82982e+02	2.33500e+03	1.50900e-01	3.79167e+02
2339	3.83707e+02	2.33900e+03	1.42310e-01	3.79833e+02
2343	3.84378e+02	2.34300e+03	1.34010e-01	3.80500e+02
2347	3.85083e+02	2.34700e+03	1.26054e-01	3.81167e+02
2351	3.85777e+02	2.35100e+03	1.18382e-01	3.81833e+02
2355	3.86432e+02	2.35500e+03	1.11010e-01	3.82500e+02
2359	3.87092e+02	2.35900e+03	1.03886e-01	3.83167e+02
2363	3.87805e+02	2.36300e+03	9.67990e-02	3.83833e+02
2367	3.88484e+02	2.36700e+03	8.97626e-02	3.84500e+02
2371	3.89157e+02	2.37100e+03	8.31572e-02	3.85167e+02
2375	3.89803e+02	2.37500e+03	7.72728e-02	3.85833e+02
2379	3.90468e+02	2.37900e+03	7.16384e-02	3.86500e+02
2383	3.91119e+02	2.38300e+03	6.58410e-02	3.87167e+02
2387	3.91805e+02	2.38700e+03	6.02665e-02	3.87833e+02
2391	3.92516e+02	2.39100e+03	5.51099e-02	3.88500e+02
2395	3.93087e+02	2.39500e+03	5.01315e-02	3.89167e+02
2399	3.93706e+02	2.39900e+03	4.52640e-02	3.89833e+02
2403	3.94364e+02	2.40300e+03	4.05941e-02	3.90500e+02
2407	3.95028e+02	2.40700e+03	3.61902e-02	3.91167e+02
2411	3.95704e+02	2.41100e+03	3.20479e-02	3.91833e+02
2415	3.96446e+02	2.41500e+03	2.80613e-02	3.92500e+02
2419	3.97139e+02	2.41900e+03	2.41942e-02	3.93167e+02
2423	3.97812e+02	2.42300e+03	2.05609e-02	3.93833e+02
2427	3.98529e+02	2.42700e+03	1.72069e-02	3.94500e+02
2431	3.99266e+02	2.43100e+03	1.40288e-02	3.95167e+02
2435	3.99940e+02	2.43500e+03	1.09400e-02	3.95833e+02
2439	4.00617e+02	2.43900e+03	8.03102e-03	3.96500e+02
2443	4.01394e+02	2.44300e+03	5.34675e-03	3.97167e+02
2447	4.02068e+02	2.44700e+03	2.78964e-03	3.97833e+02
2451	4.02718e+02	2.45100e+03	3.49019e-04	3.98500e+02
2455	4.03357e+02	2.45500e+03	-1.87646e-03	3.99167e+02
2459	4.04031e+02	2.45900e+03	-3.87987e-03	3.99833e+02
2463	4.04672e+02	2.46300e+03	-5.87345e-03	4.00500e+02
2467	4.05271e+02	2.46700e+03	-7.95718e-03	4.01167e+02
2471	4.05910e+02	2.47100e+03	-9.92832e-03	4.01833e+02
2475	4.06557e+02	2.47500e+03	-1.15568e-02	4.02500e+02
2479	4.07201e+02	2.47900e+03	-1.29421e-02	4.03167e+02
2483	4.07844e+02	2.48300e+03	-1.43040e-02	4.03833e+02
2487	4.08509e+02	2.48700e+03	-1.56212e-02	4.04500e+02
2491	4.09155e+02	2.49100e+03	-1.68419e-02	4.05167e+02
2495	4.09794e+02	2.49500e+03	-1.80436e-02	4.05833e+02
2499	4.10444e+02	2.49900e+03	-1.92767e-02	4.06500e+02
2503	4.11090e+02	2.50300e+03	-2.04658e-02	4.07167e+02
2507	4.11750e+02	2.50700e+03	-2.14854e-02	4.07833e+02
2511	4.12400e+02	2.51100e+03	-2.23421e-02	4.08500e+02
2515	4.13076e+02	2.51500e+03	-2.32464e-02	4.09167e+02
2519	4.13732e+02	2.51900e+03	-2.41337e-02	4.09833e+02
2523	4.14385e+02	2.52300e+03	-2.47846e-02	4.10500e+02
2527	4.15037e+02	2.52700e+03	-2.53094e-02	4.11167e+02
2531	4.15688e+02	2.53100e+03	-2.58435e-02	4.11833e+02
2535	4.16334e+02	2.53500e+03	-2.63584e-02	4.12500e+02
2539	4.17011e+02	2.53900e+03	-2.68211e-02	4.13167e+02
2543	4.17668e+02	2.54300e+03	-2.73321e-02	4.13833e+02
2547	4.18305e+02	2.54700e+03	-2.78050e-02	4.14500e+02
2551	4.18947e+02	2.55100e+03	-2.81476e-02	4.15167e+02
2555	4.19627e+02	2.55500e+03	-2.85175e-02	4.15833e+02
2559	4.20344e+02	2.55900e+03	-2.89350e-02	4.16500e+02
2563	4.21055e+02	2.56300e+03	-2.93254e-02	4.17167e+02
2567	4.22024e+02	2.56700e+03	-2.96317e-02	4.17833e+02
2571	4.22762e+02	2.57100e+03	-2.98273e-02	4.18500e+02
2575	4.23406e+02	2.57500e+03	-3.00205e-02	4.19167e+02
2579	4.23971e+02	2.57900e+03	-3.02656e-02	4.19833e+02
2583	4.24570e+02	2.58300e+03	-3.05098e-02	4.20500e+02
2587	4.25129e+02	2.58700e+03	-3.08208e-02	4.21167e+02
2591	4.25730e+02	2.59100e+03	-3.11566e-02	4.21833e+02
2595	4.26282e+02	2.59500e+03	-3.13603e-02	4.22500e+02
2599	4.26896e+02	2.59900e+03	-3.14236e-02	4.23167e+02
2603	4.27514e+02	2.60300e+03	-3.14808e-02	4.23833e+02
2607	4.28188e+02	2.60700e+03	-3.16732e-02	4.24500e+02
2611	4.28854e+02	2.61100e+03	-3.19864e-02	4.25167e+02
2615	4.29485e+02	2.61500e+03	-3.21195e-02	4.25833e+02
2619	4.30007e+02	2.61900e+03	-3.20559e-02	4.26500e+02
2623	4.30563e+02	2.62300e+03	-3.20317e-02	4.27167e+02
2627	4.31130e+02	2.62700e+03	-3.20594e-02	4.27833e+02
2631	4.31707e+02	2.63100e+03	-3.20471e-02	4.28500e+02
2635	4.32311e+02	2.63500e+03	-3.20355e-02	4.29167e+02
2639	4.32921e+02	2.63900e+03	-3.20993e-02	4.29833e+02
2643	4.33529e+02	2.64300e+03	-3.22387e-02	4.30500e+02
2647	4.34158e+02	2.64700e+03	-3.24375e-02	4.31167e+02
2651	4.34786e+02	2.65100e+03	-3.25537e-02	4.31833e+02
2655	4.35410e+02	2.65500e+03	-3.26078e-02	4.32500e+02
2659	4.36057e+02	2.65900e+03	-3.26780e-02	4.33167e+02
2663	4.36689e+02	2.66300e+03	-3.27524e-02	4.33833e+02
2667	4.37316e+02	2.66700e+03	-3.28164e-02	4.34500e+02
2671	4.37958e+02	2.67100e+03	-3.28315e-02	4.35167e+02
2675	4.38593e+02	2.67500e+03	-3.28108e-02	4.35833e+02
2679	4.39227e+02	2.67900e+03	-3.28343e-02	4.36500e+02
2683	4.39709e+02	2.68300e+03	-3.29007e-02	4.37167e+02
2687	4.40231e+02	2.68700e+03	-3.29377e-02	4.37833e+02
2691	4.40792e+02	2.69100e+03	-3.29512e-02	4.38500e+02
2695	4.41416e+02	2.69500e+03	-3.30214e-02	4.39167e+02
2699	4.42041e+02	2.69900e+03	-3.30837e-02	4.39833e+02
2703	4.42663e+02	2.70300e+03	-3.30637e-02	4.40500e+02
2707	4.43311e+02	2.70700e+03	-3.30330e-02	4.41167e+02
2711	4.43943e+02	2.71100e+03	-3.30780e-02	4.41833e+02
2715	4.44568e+02	2.71500e+03	-3.31866e-02	4.42500e+02
2719	4.45221e+02	2.71900e+03	-3.32212e-02	4.43167e+02
2723	4.45862e+02	2.72300e+03	-3.31350e-02	4.43833e+02
2727	4.46493e+02	2.72700e+03	-3.30847e-02	4.44500e+02
2731	4.47144e+02	2.73100e+03	-3.31154e-02	4.45167e+02
2735	4.47789e+02	2.73500e+03	-3.30953e-02	4.45833e+02
2739	4.48438e+02	2.73900e+03	-3.30939e-02	4.46500e+02
2743	4.49095e+02	2.74300e+03	-3.31817e-02	4.47167e+02
2747	4.49735e+02	2.74700e+03	-3.32619e-02	4.47833e+02
2751	4.50389e+02	2.75100e+03	-3.32227e-02	4.48500e+02
2755	4.51046e+02	2.75500e+03	-3.31534e-02	4.49167e+02
2759	4.51697e+02	2.75900e+03	-3.31838e-02	4.49833e+02
2763	4.52363e+02	2.76300e+03	-3.31890e-02	4.50500e+02
2767	4.53017e+02	2.76700e+03	-3.31489e-02	4.51167e+02
2771	4.53675e+02	2.77100e+03	-3.31095e-02	4.51833e+02
2775	4.54318e+02	2.77500e+03	-3.31451e-02	4.52500e+02
2779	4.54988e+02	2.77900e+03	-3.33188e-02	4.53167e+02
2783	4.55646e+02	2.78300e+03	-3.34845e-02	4.53833e+02
2787	4.56289e+02	2.78700e+03	-3.35349e-02	4.54500e+02
2791	4.56943e+02	2.79100e+03	-3.35240e-02	4.55167e+02
2795	4.57600e+02	2.79500e+03	-3.35121e-02	4.55833e+02
2799	4.58253e+02	2.79900e+03	-3.34261e-02	4.56500e+02
2803	4.58920e+02	2.80300e+03	-3.33577e-02	4.57167e+02
2807	4.59567e+02	2.80700e+03	-3.34075e-02	4.57833e+02
2811	4.60217e+02	2.81100e+03	-3.34708e-02	4.58500e+02
2815	4.60871e+02	2.81500e+03	-3.35246e-02	4.59167e+02
2819	4.61525e+02	2.81900e+03	-3.35476e-02	4.59833e+02
2823	4.62169e+02	2.82300e+03	-3.35560e-02	4.60500e+02
2827	4.62832e+02	2.82700e+03	-3.35673e-02	4.61167e+02
2831	4.63484e+02	2.83100e+03	-3.35815e-02	4.61833e+02
2835	4.64142e+02	2.83500e+03	-3.36269e-02	4.62500e+02
2839	4.64779e+02	2.83900e+03	-3.37039e-02	4.63167e+02
2843	4.65450e+02	2.84300e+03	-3.37803e-02	4.63833e+02
2847	4.66106e+02	2.84700e+03	-3.38145e-02	4.64500e+02
2851	4.66767e+02	2.85100e+03	-3.37906e-02	4.65167e+02
2855	4.67415e+02	2.85500e+03	-3.37754e-02	4.65833e+02
2859	4.68068e+02	2.85900e+03	-3.38150e-02	4.66500e+02
2863	4.68728e+02	2.86300e+03	-3.38519e-02	4.67167e+02
2867	4.69384e+02	2.86700e+03	-3.38078e-02	4.67833e+02
2871	4.70039e+02	2.87100e+03	-3.37020e-02	4.68500e+02
2875	4.70697e+02	2.87500e+03	-3.36919e-02	4.69167e+02
2879	4.71352e+02	2.87900e+03	-3.37480e-02	4.69833e+02
2883	4.72009e+02	2.88300e+03	-3.37679e-02	4.70500e+02
2887	4.72665e+02	2.88700e+03	-3.38954e-02	4.71167e+02
2891	4.73319e+02	2.89100e+03	-3.40865e-02	4.71833e+02
2895	4.73979e+02	2.89500e+03	-3.40622e-02	4.72500e+02
2899	4.74631e+02	2.89900e+03	-3.39517e-02	4.73167e+02
2903	4.75272e+02	2.90300e+03	-3.39833e-02	4.73833e+02
2907	4.75929e+02	2.90700e+03	-3.39716e-02	4.74500e+02
2911	4.76588e+02	2.91100e+03	-3.38358e-02	4.75167e+02
2915	4.77250e+02	2.91500e+03	-3.37553e-02	4.75833e+02
2919	4.77904e+02	2.91900e+03	-3.38567e-02	4.76500e+02
2923	4.78549e+02	2.92300e+03	-3.40389e-02	4.77167e+02
2927	4.79210e+02	2.92700e+03	-3.40782e-02	4.77833e+02
2931	4.79860e+02	2.93100e+03	-3.39756e-02	4.78500e+02
2935	4.80516e+02	2.93500e+03	-3.39137e-02	4.79167e+02
2939	4.81163e+02	2.93900e+03	-3.39340e-02	4.79833e+02
2943	4.81821e+02	2.94300e+03	-3.39020e-02	4.80500e+02
2947	4.82465e+02	2.94700e+03	-3.38335e-02	4.81167e+02
2951	4.83129e+02	2.95100e+03	-3.38526e-02	4.81833e+02
2955	4.83787e+02	2.95500e+03	-3.39052e-02	4.82500e+02
2959	4.84447e+02	2.95900e+03	-3.39429e-02	4.83167e+02
2963	4.85114e+02	2.96300e+03	-3.40205e-02	4.83833e+02
2967	4.85795e+02	2.96700e+03	-3.40699e-02	4.84500e+02
2971	4.86440e+02	2.97100e+03	-3.40713e-02	4.85167e+02
2975	4.87110e+02	2.97500e+03	-3.40765e-02	4.85833e+02
2979	4.87778e+02	2.97900e+03	-3.40998e-02	4.86500e+02
2983	4.88443e+02	2.98300e+03	-3.41801e-02	4.87167e+02
2987	4.89117e+02	2.98700e+03	-3.42423e-02	4.87833e+02
2991	4.89786e+02	2.99100e+03	-3.42534e-02	4.88500e+02
2995	4.90455e+02	2.99500e+03	-3.42662e-02	4.89167e+02
2999	4.91116e+02	2.99900e+03	-3.42058e-02	4.89833e+02
3003	4.91778e+02	3.00300e+03	-3.41120e-02	4.90500e+02
3007	4.92443e+02	3.00700e+03	-3.40933e-02	4.91167e+02
3011	4.93111e+02	3.01100e+03	-3.41151e-02	4.91833e+02
3015	4.93760e+02	3.01500e+03	-3.39962e-02	4.92500e+02
3019	4.94413e+02	3.01900e+03	-3.37613e-02	4.93167e+02
3023	4.95060e+02	3.02300e+03	-3.36777e-02	4.93833e+02
3027	4.95709e+02	3.02700e+03	-3.37652e-02	4.94500e+02
3031	4.96355e+02	3.03100e+03	-3.38387e-02	4.95167e+02
3035	4.96992e+02	3.03500e+03	-3.38848e-02	4.95833e+02
3039	4.97631e+02	3.03900e+03	-3.40275e-02	4.96500e+02
3043	4.98285e+02	3.04300e+03	-3.42069e-02	4.97167e+02
3047	4.98943e+02	3.04700e+03	-3.43534e-02	4.97833e+02
3051	4.99578e+02	3.05100e+03	-3.43906e-02	4.98500e+02
3055	5.00223e+02	3.05500e+03	-3.42879e-02	4.99167e+02
3059	5.00887e+02	3.05900e+03	-3.41651e-02	4.99833e+02
3063	5.01536e+02	3.06300e+03	-3.41301e-02	5.00500e+02
3067	5.02185e+02	3.06700e+03	-3.41774e-02	5.01167e+02
3071	5.02834e+02	3.07100e+03	-3.42192e-02	5.01833e+02
3075	5.03501e+02	3.07500e+03	-3.42281e-02	5.02500e+02
3079	5.04155e+02	3.07900e+03	-3.42355e-02	5.03167e+02
3083	5.04806e+02	3.08300e+03	-3.42761e-02	5.03833e+02
3087	5.05467e+02	3.08700e+03	-3.43031e-02	5.04500e+02
3091	5.06133e+02	3.09100e+03	-3.43810e-02	5.05167e+02
3095	5.06794e+02	3.09500e+03	-3.45001e-02	5.05833e+02
3099	5.07447e+02	3.09900e+03	-3.44460e-02	5.06500e+02
3103	5.08093e+02	3.10300e+03	-3.42640e-02	5.07167e+02
3107	5.08762e+02	3.10700e+03	-3.41170e-02	5.07833e+02
3111	5.09418e+02	3.11100e+03	-3.40574e-02	5.08500e+02
3115	5.10069e+02	3.11500e+03	-3.41343e-02	5.09167e+02
3119	5.10714e+02	3.11900e+03	-3.43375e-02	5.09833e+02
3123	5.11376e+02	3.12300e+03	-3.45403e-02	5.10500e+02
3127	5.12031e+02	3.12700e+03	-3.45821e-02	5.11167e+02
3131	5.12682e+02	3.13100e+03	-3.44824e-02	5.11833e+02
3135	5.13340e+02	3.13500e+03	-3.43519e-02	5.12500e+02
3139	5.13992e+02	3.13900e+03	-3.42342e-02	5.13167e+02
3143	5.14645e+02	3.14300e+03	-3.41789e-02	5.13833e+02
3147	5.15297e+02	3.14700e+03	-3.42113e-02	5.14500e+02
3151	5.15956e+02	3.15100e+03	-3.42142e-02	5.15167e+02
3155	5.16611e+02	3.15500e+03	-3.41525e-02	5.15833e+02
3159	5.17269e+02	3.15900e+03	-3.41644e-02	5.16500e+02
3163	5.17931e+02	3.16300e+03	-3.42539e-02	5.17167e+02
3167	5.18591e+02	3.16700e+03	-3.43613e-02	5.17833e+02
3171	5.19241e+02	3.17100e+03	-3.44549e-02	5.18500e+02
3175	5.19900e+02	3.17500e+03	-3.44348e-02	5.19167e+02
3179	5.20564e+02	3.17900e+03	-3.43578e-02	5.19833e+02
3183	5.21221e+02	3.18300e+03	-3.43552e-02	5.20500e+02
3187	5.21880e+02	3.18700e+03	-3.43884e-02	5.21167e+02
3191	5.22538e+02	3.19100e+03	-3.44282e-02	5.21833e+02
3195	5.23198e+02	3.19500e+03	-3.44505e-02	5.22500e+02
3199	5.23853e+02	3.19900e+03	-3.44016e-02	5.23167e+02
3203	5.24519e+02	3.20300e+03	-3.43162e-02	5.23833e+02
3207	5.25184e+02	3.20700e+03	-3.42474e-02	5.24500e+02
3211	5.25838e+02	3.21100e+03	-3.42039e-02	5.25167e+02
3215	5.26508e+02	3.21500e+03	-3.42306e-02	5.25833e+02
3219	5.27161e+02	3.21900e+03	-3.42878e-02	5.26500e+02
3223	5.27834e+02	3.22300e+03	-3.42941e-02	5.27167e+02
3227	5.28491e+02	3.22700e+03	-3.43775e-02	5.27833e+02
3231	5.29154e+02	3.23100e+03	-3.45526e-02	5.28500e+02
3235	5.29810e+02	3.23500e+03	-3.46558e-02	5.29167e+02
3239	5.30466e+02	3.23900e+03	-3.46628e-02	5.29833e+02
3243	5.31114e+02	3.24300e+03	-3.45912e-02	5.30500e+02
3247	5.31788e+02	3.24700e+03	-3.44713e-02	5.31167e+02
3251	5.32443e+02	3.25100e+03	-3.43896e-02	5.31833e+02
3255	5.33098e+02	3.25500e+03	-3.44233e-02	5.32500e+02
3259	5.33764e+02	3.25900e+03	-3.45371e-02	5.33167e+02
3263	5.34420e+02	3.26300e+03	-3.46037e-02	5.33833e+02
3267	5.35081e+02	3.26700e+03	-3.45691e-02	5.34500e+02
3271	5.35733e+02	3.27100e+03	-3.45262e-02	5.35167e+02
3275	5.36394e+02	3.27500e+03	-3.46070e-02	5.35833e+02
3279	5.37064e+02	3.27900e+03	-3.46557e-02	5.36500e+02
3283	5.37723e+02	3.28300e+03	-3.45925e-02	5.37167e+02
3287	5.38383e+02	3.28700e+03	-3.45723e-02	5.37833e+02
3291	5.39045e+02	3.29100e+03	-3.45778e-02	5.38500e+02
3295	5.39719e+02	3.29500e+03	-3.45301e-02	5.39167e+02
3299	5.40372e+02	3.29900e+03	-3.44949e-02	5.39833e+02
3303	5.41018e+02	3.30300e+03	-3.45229e-02	5.40500e+02
3307	5.41684e+02	3.30700e+03	-3.45281e-02	5.41167e+02
3311	5.42343e+02	3.31100e+03	-3.45455e-02	5.41833e+02
3315	5.43004e+02	3.31500e+03	-3.47038e-02	5.42500e+02
3319	5.43656e+02	3.31900e+03	-3.49430e-02	5.43167e+02
3323	5.44321e+02	3.32300e+03	-3.50078e-02	5.43833e+02
3327	5.44986e+02	3.32700e+03	-3.47777e-02	5.44500e+02
3331	5.45626e+02	3.33100e+03	-3.45430e-02	5.45167e+02
3335	5.46281e+02	3.33500e+03	-3.45732e-02	5.45833e+02
3339	5.46938e+02	3.33900e+03	-3.47365e-02	5.46500e+02
3343	5.47595e+02	3.34300e+03	-3.48169e-02	5.47167e+02
3347	5.48258e+02	3.34700e+03	-3.47627e-02	5.47833e+02
3351	5.48916e+02	3.35100e+03	-3.46807e-02	5.48500e+02
3355	5.49577e+02	3.35500e+03	-3.46850e-02	5.49167e+02
3359	5.50248e+02	3.35900e+03	-3.47090e-02	5.49833e+02
3363	5.50913e+02	3.36300e+03	-3.46623e-02	5.50500e+02
3367	5.51585e+02	3.36700e+03	-3.46075e-02	5.51167e+02
3371	5.52245e+02	3.37100e+03	-3.46253e-02	5.51833e+02
3375	5.52896e+02	3.37500e+03	-3.47130e-02	5.52500e+02
3379	5.53549e+02	3.37900e+03	-3.47628e-02	5.53167e+02
3383	5.54204e+02	3.38300e+03	-3.47583e-02	5.53833e+02
3387	5.54843e+02	3.38700e+03	-3.47957e-02	5.54500e+02
3391	5.55504e+02	3.39100e+03	-3.48025e-02	5.55167e+02
3395	5.56159e+02	3.39500e+03	-3.48056e-02	5.55833e+02
3399	5.56820e+02	3.39900e+03	-3.49154e-02	5.56500e+02
3403	5.57468e+02	3.40300e+03	-3.50125e-02	5.57167e+02
3407	5.58122e+02	3.40700e+03	-3.49841e-02	5.57833e+02
3411	5.58789e+02	3.41100e+03	-3.48902e-02	5.58500e+02
3415	5.59445e+02	3.41500e+03	-3.48646e-02	5.59167e+02
3419	5.60113e+02	3.41900e+03	-3.48610e-02	5.59833e+02
3423	5.60770e+02	3.42300e+03	-3.48322e-02	5.60500e+02
3427	5.61430e+02	3.42700e+03	-3.49035e-02	5.61167e+02
3431	5.62100e+02	3.43100e+03	-3.50565e-02	5.61833e+02
3435	5.62770e+02	3.43500e+03	-3.51698e-02	5.62500e+02
3439	5.63435e+02	3.43900e+03	-3.51699e-02	5.63167e+02
3443	5.64098e+02	3.44300e+03	-3.50602e-02	5.63833e+02
3447	5.64764e+02	3.44700e+03	-3.49009e-02	5.64500e+02
3451	5.65430e+02	3.45100e+03	-3.48156e-02	5.65167e+02
3455	5.66096e+02	3.45500e+03	-3.48742e-02	5.65833e+02
3459	5.66771e+02	3.45900e+03	-3.49467e-02	5.66500e+02
3463	5.67439e+02	3.46300e+03	-3.49648e-02	5.67167e+02
3467	5.68101e+02	3.46700e+03	-3.50005e-02	5.67833e+02
3471	5.68758e+02	3.47100e+03	-3.50756e-02	5.68500e+02
3475	5.69421e+02	3.47500e+03	-3.51147e-02	5.69167e+02
3479	5.70090e+02	3.47900e+03	-3.51088e-02	5.69833e+02
3483	5.70748e+02	3.48300e+03	-3.51183e-02	5.70500e+02
3487	5.71411e+02	3.48700e+03	-3.50463e-02	5.71167e+02
3491	5.72072e+02	3.49100e+03	-3.49004e-02	5.71833e+02
3495	5.72747e+02	3.49500e+03	-3.49180e-02	5.72500e+02
3499	5.73392e+02	3.49900e+03	-3.50402e-02	5.73167e+02
3503	5.74061e+02	3.50300e+03	-3.50652e-02	5.73833e+02
3507	5.74717e+02	3.50700e+03	-3.50843e-02	5.74500e+02
3511	5.75380e+02	3.51100e+03	-3.51937e-02	5.75167e+02
3515	5.76032e+02	3.51500e+03	-3.52918e-02	5.75833e+02
3519	5.76711e+02	3.51900e+03	-3.53179e-02	5.76500e+02
3523	5.77370e+02	3.52300e+03	-3.52680e-02	5.77167e+02
3527	5.78040e+02	3.52700e+03	-3.51837e-02	5.77833e+02
3531	5.78708e+02	3.53100e+03	-3.51572e-02	5.78500e+02
3535	5.79358e+02	3.53500e+03	-3.51472e-02	5.79167e+02
3539	5.80007e+02	3.53900e+03	-3.51458e-02	5.79833e+02
3543	5.80668e+02	3.54300e+03	-3.51769e-02	5.80500e+02
3547	5.81322e+02	3.54700e+03	-3.51925e-02	5.81167e+02
3551	5.81984e+02	3.55100e+03	-3.52054e-02	5.81833e+02
3555	5.82642e+02	3.55500e+03	-3.52459e-02	5.82500e+02
3559	5.83297e+02	3.55900e+03	-3.52953e-02	5.83167e+02
3563	5.83968e+02	3.56300e+03	-3.53107e-02	5.83833e+02
3567	5.84629e+02	3.56700e+03	-3.52472e-02	5.84500e+02
3571	5.85293e+02	3.57100e+03	-3.51327e-02	5.85167e+02
3575	5.85943e+02	3.57500e+03	-3.51448e-02	5.85833e+02
3579	5.86597e+02	3.57900e+03	-3.52235e-02	5.86500e+02
3583	5.87270e+02	3.58300e+03	-3.52084e-02	5.87167e+02
3587	5.87922e+02	3.58700e+03	-3.51518e-02	5.87833e+02
3591	5.88582e+02	3.59100e+03	-3.51378e-02	5.88500e+02
3595	5.89235e+02	3.59500e+03	-3.52546e-02	5.89167e+02
3599	5.89882e+02	3.59900e+03	-3.54029e-02	5.89833e+02
3603	5.90554e+02	3.60300e+03	-3.54508e-02	5.90500e+02
3607	5.91209e+02	3.60700e+03	-3.54426e-02	5.91167e+02
3611	5.91856e+02	3.61100e+03	-3.53944e-02	5.91833e+02
3615	5.92516e+02	3.61500e+03	-3.52845e-02	5.92500e+02
3619	5.93165e+02	3.61900e+03	-3.51883e-02	5.93167e+02
3623	5.93837e+02	3.62300e+03	-3.52420e-02	5.93833e+02
3627	5.94475e+02	3.62700e+03	-3.53798e-02	5.94500e+02
3631	5.95139e+02	3.63100e+03	-3.54243e-02	5.95167e+02
3635	5.95788e+02	3.63500e+03	-3.53415e-02	5.95833e+02
3639	5.96459e+02	3.63900e+03	-3.52646e-02	5.96500e+02
3643	5.97115e+02	3.64300e+03	-3.52675e-02	5.97167e+02
3647	5.97774e+02	3.64700e+03	-3.53258e-02	5.97833e+02
3651	5.98429e+02	3.65100e+03	-3.53851e-02	5.98500e+02
3655	5.99085e+02	3.65500e+03	-3.53546e-02	5.99167e+02
3659	5.99751e+02	3.65900e+03	-3.53298e-02	5.99833e+02
3663	6.00408e+02	3.66300e+03	-3.54014e-02	6.00500e+02
3667	6.01061e+02	3.66700e+03	-3.55022e-02	6.01167e+02
3671	6.01723e+02	3.67100e+03	-3.54738e-02	6.01833e+02
3675	6.02390e+02	3.67500e+03	-3.53298e-02	6.02500e+02
3679	6.03048e+02	3.67900e+03	-3.50078e-02	6.03167e+02
3683	6.03715e+02	3.68300e+03	-3.51365e-02	6.03833e+02
3687	6.04390e+02	3.68700e+03	-3.57276e-02	6.04500e+02
3691	6.05077e+02	3.69100e+03	-3.58922e-02	6.05167e+02
3695	6.05757e+02	3.69500e+03	-3.56450e-02	6.05833e+02
3699	6.06420e+02	3.69900e+03	-3.54567e-02	6.06500e+02
3703	6.07082e+02	3.70300e+03	-3.55006e-02	6.07167e+02
3707	6.07736e+02	3.70700e+03	-3.55315e-02	6.07833e+02
3711	6.08383e+02	3.71100e+03	-3.55370e-02	6.08500e+02
3715	6.09053e+02	3.71500e+03	-3.54947e-02	6.09167e+02
3719	6.09732e+02	3.71900e+03	-3.54223e-02	6.09833e+02
3723	6.10384e+02	3.72300e+03	-3.53999e-02	6.10500e+02
3727	6.11059e+02	3.72700e+03	-3.53117e-02	6.11167e+02
3731	6.11731e+02	3.73100e+03	-3.52146e-02	6.11833e+02
3735	6.12394e+02	3.73500e+03	-3.53048e-02	6.12500e+02
3739	6.13058e+02	3.73900e+03	-3.54998e-02	6.13167e+02
3743	6.13737e+02	3.74300e+03	-3.56116e-02	6.13833e+02
3747	6.14408e+02	3.74700e+03	-3.56215e-02	6.14500e+02
3751	6.15089e+02	3.75100e+03	-3.56245e-02	6.15167e+02
3755	6.15760e+02	3.75500e+03	-3.56185e-02	6.15833e+02
3759	6.16422e+02	3.75900e+03	-3.55788e-02	6.16500e+02
3763	6.17100e+02	3.76300e+03	-3.55590e-02	6.17167e+02
3767	6.17765e+02	3.76700e+03	-3.55445e-02	6.17833e+02
3771	6.18421e+02	3.77100e+03	-3.56477e-02	6.18500e+02
3775	6.19109e+02	3.77500e+03	-3.55243e-02	6.19167e+02
3779	6.19759e+02	3.77900e+03	-3.51952e-02	6.19833e+02
3783	6.20415e+02	3.78300e+03	-3.55884e-02	6.20500e+02
3787	6.21091e+02	3.78700e+03	-3.60058e-02	6.21167e+02
3791	6.21753e+02	3.79100e+03	-3.57538e-02	6.21833e+02
3795	6.22422e+02	3.79500e+03	-3.55643e-02	6.22500e+02
3799	6.23083e+02	3.79900e+03	-3.56539e-02	6.23167e+02
3803	6.23753e+02	3.80300e+03	-3.58269e-02	6.23833e+02
3807	6.24436e+02	3.80700e+03	-3.58331e-02	6.24500e+02
3811	6.25089e+02	3.81100e+03	-3.56730e-02	6.25167e+02
3815	6.25756e+02	3.81500e+03	-3.56266e-02	6.25833e+02
3819	6.26432e+02	3.81900e+03	-3.57213e-02	6.26500e+02
3823	6.27079e+02	3.82300e+03	-3.58211e-02	6.27167e+02
3827	6.27744e+02	3.82700e+03	-3.58611e-02	6.27833e+02
3831	6.28401e+02	3.83100e+03	-3.58898e-02	6.28500e+02
3835	6.29089e+02	3.83500e+03	-3.58770e-02	6.29167e+02
3839	6.29761e+02	3.83900e+03	-3.57337e-02	6.29833e+02
3843	6.30421e+02	3.84300e+03	-3.56249e-02	6.30500e+02
3847	6.31081e+02	3.84700e+03	-3.57073e-02	6.31167e+02
3851	6.31766e+02	3.85100e+03	-3.58937e-02	6.31833e+02
3855	6.32427e+02	3.85500e+03	-3.59482e-02	6.32500e+02
3859	6.33105e+02	3.85900e+03	-3.57900e-02	6.33167e+02
3863	6.33763e+02	3.86300e+03	-3.56825e-02	6.33833e+02
3867	6.34419e+02	3.86700e+03	-3.57430e-02	6.34500e+02
3871	6.35087e+02	3.87100e+03	-3.58936e-02	6.35167e+02
3875	6.35748e+02	3.87500e+03	-3.59448e-02	6.35833e+02
3879	6.36412e+02	3.87900e+03	-3.57965e-02	6.36500e+02
3883	6.37073e+02	3.88300e+03	-3.57038e-02	6.37167e+02
3887	6.37747e+02	3.88700e+03	-3.56674e-02	6.37833e+02
3891	6.38409e+02	3.89100e+03	-3.56426e-02	6.38500e+02
3895	6.39064e+02	3.89500e+03	-3.57806e-02	6.39167e+02
3899	6.39720e+02	3.89900e+03	-3.59579e-02	6.39833e+02
3903	6.40387e+02	3.90300e+03	-3.59809e-02	6.40500e+02
3907	6.41037e+02	3.90700e+03	-3.59138e-02	6.41167e+02
3911	6.41702e+02	3.91100e+03	-3.58970e-02	6.41833e+02
3915	6.42374e+02	3.91500e+03	-3.59034e-02	6.42500e+02
3919	6.43025e+02	3.91900e+03	-3.59391e-02	6.43167e+02
3923	6.43697e+02	3.92300e+03	-3.59935e-02	6.43833e+02
3927	6.44371e+02	3.92700e+03	-3.60009e-02	6.44500e+02
3931	6.45024e+02	3.93100e+03	-3.60204e-02	6.45167e+02
3935	6.45697e+02	3.93500e+03	-3.60483e-02	6.45833e+02
3939	6.46364e+02	3.93900e+03	-3.60388e-02	6.46500e+02
3943	6.47018e+02	3.94300e+03	-3.59898e-02	6.47167e+02
3947	6.47684e+02	3.94700e+03	-3.59275e-02	6.47833e+02
3951	6.48341e+02	3.95100e+03	-3.58805e-02	6.48500e+02
3955	6.49019e+02	3.95500e+03	-3.58762e-02	6.49167e+02
3959	6.49676e+02	3.95900e+03	-3.59317e-02	6.49833e+02
3963	6.50345e+02	3.96300e+03	-3.59749e-02	6.50500e+02
3967	6.51010e+02	3.96700e+03	-3.60250e-02	6.51167e+02
3971	6.51676e+02	3.97100e+03	-3.60974e-02	6.51833e+02
3975	6.52343e+02	3.97500e+03	-3.60634e-02	6.52500e+02
3979	6.52994e+02	3.97900e+03	-3.59888e-02	6.53167e+02
3983	6.53674e+02	3.98300e+03	-3.59861e-02	6.53833e+02
3987	6.54342e+02	3.98700e+03	-3.59873e-02	6.54500e+02
3991	6.55015e+02	3.99100e+03	-3.60109e-02	6.55167e+02
3995	6.55674e+02	3.99500e+03	-3.60858e-02	6.55833e+02
3999	6.56339e+02	3.99900e+03	-3.61880e-02	6.56500e+02
4003	6.57014e+02	4.00300e+03	-3.62272e-02	6.57167e+02
4007	6.57690e+02	4.00700e+03	-3.61444e-02	6.57833e+02
4011	6.58357e+02	4.01100e+03	-3.60648e-02	6.58500e+02
4015	6.59037e+02	4.01500e+03	-3.61260e-02	6.59167e+02
4019	6.59705e+02	4.01900e+03	-3.62395e-02	6.59833e+02
4023	6.60389e+02	4.02300e+03	-3.62427e-02	6.60500e+02
4027	6.61059e+02	4.02700e+03	-3.61993e-02	6.61167e+02
4031	6.61730e+02	4.03100e+03	-3.61914e-02	6.61833e+02
4035	6.62395e+02	4.03500e+03	-3.61753e-02	6.62500e+02
4039	6.63062e+02	4.03900e+03	-3.61589e-02	6.63167e+02
4043	6.63740e+02	4.04300e+03	-3.62115e-02	6.63833e+02
4047	6.64411e+02	4.04700e+03	-3.63053e-02	6.64500e+02
4051	6.65084e+02	4.05100e+03	-3.63338e-02	6.65167e+02
4055	6.65752e+02	4.05500e+03	-3.63748e-02	6.65833e+02
4059	6.66420e+02	4.05900e+03	-3.64295e-02	6.66500e+02
4063	6.67089e+02	4.06300e+03	-3.63300e-02	6.67167e+02
4067	6.67753e+02	4.06700e+03	-3.62298e-02	6.67833e+02
4071	6.68431e+02	4.07100e+03	-3.62053e-02	6.68500e+02
4075	6.69099e+02	4.07500e+03	-3.61605e-02	6.69167e+02
4079	6.69756e+02	4.07900e+03	-3.61833e-02	6.69833e+02
4083	6.70421e+02	4.08300e+03	-3.62590e-02	6.70500e+02
4087	6.71086e+02	4.08700e+03	-3.62709e-02	6.71167e+02
4091	6.71748e+02	4.09100e+03	-3.62794e-02	6.71833e+02
4095	6.72408e+02	4.09500e+03	-3.63824e-02	6.72500e+02
4099	6.73088e+02	4.09900e+03	-3.64847e-02	6.73167e+02
4103	6.73754e+02	4.10300e+03	-3.64443e-02	6.73833e+02
4107	6.74420e+02	4.10700e+03	-3.63455e-02	6.74500e+02
4111	6.75092e+02	4.11100e+03	-3.63342e-02	6.75167e+02
4115	6.75760e+02	4.11500e+03	-3.64082e-02	6.75833e+02
4119	6.76418e+02	4.11900e+03	-3.65016e-02	6.76500e+02
4123	6.77074e+02	4.12300e+03	-3.65400e-02	6.77167e+02
4127	6.77754e+02	4.12700e+03	-3.64936e-02	6.77833e+02
4131	6.78424e+02	4.13100e+03	-3.64064e-02	6.78500e+02
4135	6.79093e+02	4.13500e+03	-3.63362e-02	6.79167e+02
4139	6.79764e+02	4.13900e+03	-3.63318e-02	6.79833e+02
4143	6.80425e+02	4.14300e+03	-3.64529e-02	6.80500e+02
4147	6.81086e+02	4.14700e+03	-3.65923e-02	6.81167e+02
4151	6.81773e+02	4.15100e+03	-3.66543e-02	6.81833e+02
4155	6.82430e+02	4.15500e+03	-3.65934e-02	6.82500e+02
4159	6.83095e+02	4.15900e+03	-3.64766e-02	6.83167e+02
4163	6.83765e+02	4.16300e+03	-3.64744e-02	6.83833e+02
4167	6.84427e+02	4.16700e+03	-3.64787e-02	6.84500e+02
4171	6.85115e+02	4.17100e+03	-3.64666e-02	6.85167e+02
4175	6.85771e+02	4.17500e+03	-3.65238e-02	6.85833e+02
4179	6.86439e+02	4.17900e+03	-3.65354e-02	6.86500e+02
4183	6.87115e+02	4.18300e+03	-3.65072e-02	6.87167e+02
4187	6.87778e+02	4.18700e+03	-3.65824e-02	6.87833e+02
4191	6.88441e+02	4.19100e+03	-3.67736e-02	6.88500e+02
4195	6.89115e+02	4.19500e+03	-3.67239e-02	6.89167e+02
4199	6.89775e+02	4.19900e+03	-3.64040e-02	6.89833e+02
4203	6.90456e+02	4.20300e+03	-3.62369e-02	6.90500e+02
4207	6.91124e+02	4.20700e+03	-3.62699e-02	6.91167e+02
4211	6.91798e+02	4.21100e+03	-3.62834e-02	6.91833e+02
4215	6.92456e+02	4.21500e+03	-3.62671e-02	6.92500e+02
4219	6.93137e+02	4.21900e+03	-3.63007e-02	6.93167e+02
4223	6.93805e+02	4.22300e+03	-3.63163e-02	6.93833e+02
4227	6.94467e+02	4.22700e+03	-3.63617e-02	6.94500e+02
4231	6.95141e+02	4.23100e+03	-3.64543e-02	6.95167e+02
4235	6.95719e+02	4.23500e+03	-3.65006e-02	6.95833e+02
4239	6.96154e+02	4.23900e+03	-3.64477e-02	6.96500e+02
4243	6.96624e+02	4.24300e+03	-3.63703e-02	6.97167e+02
4247	6.97035e+02	4.24700e+03	-3.63818e-02	6.97833e+02
4251	6.97409e+02	4.25100e+03	-3.63917e-02	6.98500e+02
4255	6.97728e+02	4.25500e+03	-3.63704e-02	6.99167e+02
4259	6.97999e+02	4.25900e+03	-3.64615e-02	6.99833e+02
4260	6.98076e+02	4.26000e+03	-3.65126e-02	7.00000e+02