File: Experiments/TUBS/tga_nonisotherm/tga_dynamic_n2_dyn5_powder_1mg_r1.txt
index	ts	t	weight	tr
[#]	[°C]	[s]	[mg]	[°C]
1083	1.30282e+02	1.08300e+03	1.03844e+00	1.30250e+02
1091	1.30940e+02	1.09100e+03	1.03833e+00	1.30917e+02
1099	1.31617e+02	1.09900e+03	1.03837e+00	1.31583e+02
1107	1.32281e+02	1.10700e+03	1.03828e+00	1.32250e+02
1115	1.32949e+02	1.11500e+03	1.03815e+00	1.32917e+02
1123	1.33616e+02	1.12300e+03	1.03817e+00	1.33583e+02
1131	1.34284e+02	1.13100e+03	1.03805e+00	1.34250e+02
1139	1.34944e+02	1.13900e+03	1.03793e+00	1.34917e+02
1147	1.35627e+02	1.14700e+03	1.03793e+00	1.35583e+02
1155	1.36286e+02	1.15500e+03	1.03778e+00	1.36250e+02
1163	1.36948e+02	1.16300e+03	1.03777e+00	1.36917e+02
1171	1.37619e+02	1.17100e+03	1.03767e+00	1.37583e+02
1179	1.38289e+02	1.17900e+03	1.03760e+00	1.38250e+02
1187	1.38951e+02	1.18700e+03	1.03751e+00	1.38917e+02
1195	1.39629e+02	1.19500e+03	1.03736e+00	1.39583e+02
1203	1.40290e+02	1.20300e+03	1.03728e+00	1.40250e+02
1211	1.40954e+02	1.21100e+03	1.03724e+00	1.40917e+02
1219	1.41633e+02	1.21900e+03	1.03717e+00	1.41583e+02
1227	1.42298e+02	1.22700e+03	1.03691e+00	1.42250e+02
1235	1.42967e+02	1.23500e+03	1.03674e+00	1.42917e+02
1243	1.43632e+02	1.24300e+03	1.03667e+00	1.43583e+02
1251	1.44309e+02	1.25100e+03	1.03665e+00	1.44250e+02
1259	1.44970e+02	1.25900e+03	1.03671e+00	1.44917e+02
1267	1.45642e+02	1.26700e+03	1.03643e+00	1.45583e+02
1275	1.46310e+02	1.27500e+03	1.03613e+00	1.46250e+02
1283	1.46972e+02	1.28300e+03	1.03588e+00	1.46917e+02
1291	1.47642e+02	1.29100e+03	1.03574e+00	1.47583e+02
1299	1.48303e+02	1.29900e+03	1.03558e+00	1.48250e+02
1307	1.48976e+02	1.30700e+03	1.03541e+00	1.48917e+02
1315	1.49632e+02	1.31500e+03	1.03526e+00	1.49583e+02
1323	1.50310e+02	1.32300e+03	1.03510e+00	1.50250e+02
1331	1.50966e+02	1.33100e+03	1.03486e+00	1.50917e+02
1339	1.51646e+02	1.33900e+03	1.03466e+00	1.51583e+02
1347	1.52304e+02	1.34700e+03	1.03455e+00	1.52250e+02
1355	1.52978e+02	1.35500e+03	1.03431e+00	1.52917e+02
1363	1.53649e+02	1.36300e+03	1.03424e+00	1.53583e+02
1371	1.54312e+02	1.37100e+03	1.03388e+00	1.54250e+02
1379	1.54971e+02	1.37900e+03	1.03360e+00	1.54917e+02
1387	1.55656e+02	1.38700e+03	1.03344e+00	1.55583e+02
1395	1.56314e+02	1.39500e+03	1.03314e+00	1.56250e+02
1403	1.56993e+02	1.40300e+03	1.03297e+00	1.56917e+02
1411	1.57670e+02	1.41100e+03	1.03277e+00	1.57583e+02
1419	1.58323e+02	1.41900e+03	1.03246e+00	1.58250e+02
1427	1.59013e+02	1.42700e+03	1.03217e+00	1.58917e+02
1435	1.59682e+02	1.43500e+03	1.03187e+00	1.59583e+02
1443	1.60358e+02	1.44300e+03	1.03154e+00	1.60250e+02
1451	1.61020e+02	1.45100e+03	1.03102e+00	1.60917e+02
1459	1.61677e+02	1.45900e+03	1.03047e+00	1.61583e+02
1467	1.62352e+02	1.46700e+03	1.02999e+00	1.62250e+02
1475	1.63023e+02	1.47500e+03	1.02959e+00	1.62917e+02
1483	1.63680e+02	1.48300e+03	1.02904e+00	1.63583e+02
1491	1.64350e+02	1.49100e+03	1.02845e+00	1.64250e+02
1499	1.65020e+02	1.49900e+03	1.02774e+00	1.64917e+02
1507	1.65689e+02	1.50700e+03	1.02719e+00	1.65583e+02
1515	1.66381e+02	1.51500e+03	1.02650e+00	1.66250e+02
1523	1.67046e+02	1.52300e+03	1.02582e+00	1.66917e+02
1531	1.67724e+02	1.53100e+03	1.02509e+00	1.67583e+02
1539	1.68396e+02	1.53900e+03	1.02438e+00	1.68250e+02
1547	1.69067e+02	1.54700e+03	1.02342e+00	1.68917e+02
1555	1.69725e+02	1.55500e+03	1.02247e+00	1.69583e+02
1563	1.70389e+02	1.56300e+03	1.02149e+00	1.70250e+02
1571	1.71061e+02	1.57100e+03	1.02060e+00	1.70917e+02
1579	1.71741e+02	1.57900e+03	1.01975e+00	1.71583e+02
1587	1.72408e+02	1.58700e+03	1.01888e+00	1.72250e+02
1595	1.73074e+02	1.59500e+03	1.01777e+00	1.72917e+02
1603	1.73737e+02	1.60300e+03	1.01690e+00	1.73583e+02
1611	1.74402e+02	1.61100e+03	1.01595e+00	1.74250e+02
1619	1.75071e+02	1.61900e+03	1.01484e+00	1.74917e+02
1627	1.75745e+02	1.62700e+03	1.01392e+00	1.75583e+02
1635	1.76412e+02	1.63500e+03	1.01300e+00	1.76250e+02
1643	1.77075e+02	1.64300e+03	1.01207e+00	1.76917e+02
1651	1.77745e+02	1.65100e+03	1.01133e+00	1.77583e+02
1659	1.78405e+02	1.65900e+03	1.01054e+00	1.78250e+02
1667	1.79097e+02	1.66700e+03	1.00956e+00	1.78917e+02
1675	1.79752e+02	1.67500e+03	1.00870e+00	1.79583e+02
1683	1.80431e+02	1.68300e+03	1.00796e+00	1.80250e+02
1691	1.81098e+02	1.69100e+03	1.00726e+00	1.80917e+02
1699	1.81765e+02	1.69900e+03	1.00650e+00	1.81583e+02
1707	1.82427e+02	1.70700e+03	1.00581e+00	1.82250e+02
1715	1.83092e+02	1.71500e+03	1.00517e+00	1.82917e+02
1723	1.83766e+02	1.72300e+03	1.00455e+00	1.83583e+02
1731	1.84433e+02	1.73100e+03	1.00409e+00	1.84250e+02
1739	1.85107e+02	1.73900e+03	1.00357e+00	1.84917e+02
1747	1.85768e+02	1.74700e+03	1.00311e+00	1.85583e+02
1755	1.86453e+02	1.75500e+03	1.00265e+00	1.86250e+02
1763	1.87114e+02	1.76300e+03	1.00223e+00	1.86917e+02
1771	1.87779e+02	1.77100e+03	1.00184e+00	1.87583e+02
1779	1.88446e+02	1.77900e+03	1.00151e+00	1.88250e+02
1787	1.89128e+02	1.78700e+03	1.00121e+00	1.88917e+02
1795	1.89781e+02	1.79500e+03	1.00091e+00	1.89583e+02
1803	1.90449e+02	1.80300e+03	1.00080e+00	1.90250e+02
1811	1.91120e+02	1.81100e+03	1.00059e+00	1.90917e+02
1819	1.91798e+02	1.81900e+03	1.00043e+00	1.91583e+02
1827	1.92454e+02	1.82700e+03	1.00017e+00	1.92250e+02
1835	1.93135e+02	1.83500e+03	9.99968e-01	1.92917e+02
1843	1.93794e+02	1.84300e+03	9.99837e-01	1.93583e+02
1851	1.94473e+02	1.85100e+03	9.99755e-01	1.94250e+02
1859	1.95128e+02	1.85900e+03	9.99596e-01	1.94917e+02
1867	1.95799e+02	1.86700e+03	9.99367e-01	1.95583e+02
1875	1.96483e+02	1.87500e+03	9.99136e-01	1.96250e+02
1883	1.97140e+02	1.88300e+03	9.98867e-01	1.96917e+02
1891	1.97802e+02	1.89100e+03	9.98649e-01	1.97583e+02
1899	1.98495e+02	1.89900e+03	9.98589e-01	1.98250e+02
1907	1.99154e+02	1.90700e+03	9.98492e-01	1.98917e+02
1915	1.99812e+02	1.91500e+03	9.98414e-01	1.99583e+02
1923	2.00483e+02	1.92300e+03	9.98259e-01	2.00250e+02
1931	2.01147e+02	1.93100e+03	9.98103e-01	2.00917e+02
1939	2.01804e+02	1.93900e+03	9.97812e-01	2.01583e+02
1947	2.02482e+02	1.94700e+03	9.97666e-01	2.02250e+02
1955	2.03141e+02	1.95500e+03	9.97524e-01	2.02917e+02
1963	2.03819e+02	1.96300e+03	9.97443e-01	2.03583e+02
1971	2.04479e+02	1.97100e+03	9.97384e-01	2.04250e+02
1979	2.05141e+02	1.97900e+03	9.97247e-01	2.04917e+02
1987	2.05823e+02	1.98700e+03	9.96953e-01	2.05583e+02
1995	2.06489e+02	1.99500e+03	9.96758e-01	2.06250e+02
2003	2.07145e+02	2.00300e+03	9.96637e-01	2.06917e+02
2011	2.07816e+02	2.01100e+03	9.96518e-01	2.07583e+02
2019	2.08482e+02	2.01900e+03	9.96457e-01	2.08250e+02
2027	2.09142e+02	2.02700e+03	9.96255e-01	2.08917e+02
2035	2.09810e+02	2.03500e+03	9.96168e-01	2.09583e+02
2043	2.10487e+02	2.04300e+03	9.96187e-01	2.10250e+02
2051	2.11157e+02	2.05100e+03	9.96054e-01	2.10917e+02
2059	2.11825e+02	2.05900e+03	9.95883e-01	2.11583e+02
2067	2.12489e+02	2.06700e+03	9.95737e-01	2.12250e+02
2075	2.13183e+02	2.07500e+03	9.95756e-01	2.12917e+02
2083	2.13840e+02	2.08300e+03	9.95656e-01	2.13583e+02
2091	2.14519e+02	2.09100e+03	9.95502e-01	2.14250e+02
2099	2.15189e+02	2.09900e+03	9.95555e-01	2.14917e+02
2107	2.15840e+02	2.10700e+03	9.95557e-01	2.15583e+02
2115	2.16505e+02	2.11500e+03	9.95574e-01	2.16250e+02
2123	2.17190e+02	2.12300e+03	9.95528e-01	2.16917e+02
2131	2.17849e+02	2.13100e+03	9.95338e-01	2.17583e+02
2139	2.18517e+02	2.13900e+03	9.95147e-01	2.18250e+02
2147	2.19186e+02	2.14700e+03	9.95239e-01	2.18917e+02
2155	2.19854e+02	2.15500e+03	9.95243e-01	2.19583e+02
2163	2.20522e+02	2.16300e+03	9.95150e-01	2.20250e+02
2171	2.21184e+02	2.17100e+03	9.95034e-01	2.20917e+02
2179	2.21857e+02	2.17900e+03	9.95016e-01	2.21583e+02
2187	2.22516e+02	2.18700e+03	9.94883e-01	2.22250e+02
2195	2.23181e+02	2.19500e+03	9.94823e-01	2.22917e+02
2203	2.23861e+02	2.20300e+03	9.94854e-01	2.23583e+02
2211	2.24523e+02	2.21100e+03	9.94817e-01	2.24250e+02
2219	2.25202e+02	2.21900e+03	9.94791e-01	2.24917e+02
2227	2.25856e+02	2.22700e+03	9.94675e-01	2.25583e+02
2235	2.26519e+02	2.23500e+03	9.94567e-01	2.26250e+02
2243	2.27200e+02	2.24300e+03	9.94521e-01	2.26917e+02
2251	2.27861e+02	2.25100e+03	9.94476e-01	2.27583e+02
2259	2.28539e+02	2.25900e+03	9.94424e-01	2.28250e+02
2267	2.29196e+02	2.26700e+03	9.94329e-01	2.28917e+02
2275	2.29876e+02	2.27500e+03	9.94310e-01	2.29583e+02
2283	2.30527e+02	2.28300e+03	9.94121e-01	2.30250e+02
2291	2.31196e+02	2.29100e+03	9.94108e-01	2.30917e+02
2299	2.31856e+02	2.29900e+03	9.94123e-01	2.31583e+02
2307	2.32544e+02	2.30700e+03	9.94052e-01	2.32250e+02
2315	2.33202e+02	2.31500e+03	9.94008e-01	2.32917e+02
2323	2.33858e+02	2.32300e+03	9.94017e-01	2.33583e+02
2331	2.34523e+02	2.33100e+03	9.94028e-01	2.34250e+02
2339	2.35214e+02	2.33900e+03	9.93946e-01	2.34917e+02
2347	2.35877e+02	2.34700e+03	9.93692e-01	2.35583e+02
2355	2.36538e+02	2.35500e+03	9.93689e-01	2.36250e+02
2363	2.37219e+02	2.36300e+03	9.93692e-01	2.36917e+02
2371	2.37882e+02	2.37100e+03	9.93650e-01	2.37583e+02
2379	2.38550e+02	2.37900e+03	9.93649e-01	2.38250e+02
2387	2.39210e+02	2.38700e+03	9.93551e-01	2.38917e+02
2395	2.39875e+02	2.39500e+03	9.93401e-01	2.39583e+02
2403	2.40550e+02	2.40300e+03	9.93439e-01	2.40250e+02
2411	2.41207e+02	2.41100e+03	9.93412e-01	2.40917e+02
2419	2.41875e+02	2.41900e+03	9.93318e-01	2.41583e+02
2427	2.42540e+02	2.42700e+03	9.93252e-01	2.42250e+02
2435	2.43224e+02	2.43500e+03	9.93170e-01	2.42917e+02
2443	2.43869e+02	2.44300e+03	9.93046e-01	2.43583e+02
2451	2.44544e+02	2.45100e+03	9.93035e-01	2.44250e+02
2459	2.45215e+02	2.45900e+03	9.92963e-01	2.44917e+02
2467	2.45877e+02	2.46700e+03	9.92765e-01	2.45583e+02
2475	2.46542e+02	2.47500e+03	9.92666e-01	2.46250e+02
2483	2.47216e+02	2.48300e+03	9.92532e-01	2.46917e+02
2491	2.47887e+02	2.49100e+03	9.92501e-01	2.47583e+02
2499	2.48557e+02	2.49900e+03	9.92476e-01	2.48250e+02
2507	2.49212e+02	2.50700e+03	9.92398e-01	2.48917e+02
2515	2.49874e+02	2.51500e+03	9.92194e-01	2.49583e+02
2523	2.50545e+02	2.52300e+03	9.92156e-01	2.50250e+02
2531	2.51215e+02	2.53100e+03	9.92004e-01	2.50917e+02
2539	2.51881e+02	2.53900e+03	9.91922e-01	2.51583e+02
2547	2.52549e+02	2.54700e+03	9.91787e-01	2.52250e+02
2555	2.53210e+02	2.55500e+03	9.91766e-01	2.52917e+02
2563	2.53887e+02	2.56300e+03	9.91621e-01	2.53583e+02
2571	2.54551e+02	2.57100e+03	9.91439e-01	2.54250e+02
2579	2.55212e+02	2.57900e+03	9.91191e-01	2.54917e+02
2587	2.55880e+02	2.58700e+03	9.90969e-01	2.55583e+02
2595	2.56562e+02	2.59500e+03	9.90729e-01	2.56250e+02
2603	2.57213e+02	2.60300e+03	9.90666e-01	2.56917e+02
2611	2.57878e+02	2.61100e+03	9.90428e-01	2.57583e+02
2619	2.58550e+02	2.61900e+03	9.90231e-01	2.58250e+02
2627	2.59208e+02	2.62700e+03	9.90021e-01	2.58917e+02
2635	2.59889e+02	2.63500e+03	9.89838e-01	2.59583e+02
2643	2.60549e+02	2.64300e+03	9.89683e-01	2.60250e+02
2651	2.61218e+02	2.65100e+03	9.89523e-01	2.60917e+02
2659	2.61874e+02	2.65900e+03	9.89241e-01	2.61583e+02
2667	2.62546e+02	2.66700e+03	9.89040e-01	2.62250e+02
2675	2.63202e+02	2.67500e+03	9.88743e-01	2.62917e+02
2683	2.63881e+02	2.68300e+03	9.88510e-01	2.63583e+02
2691	2.64547e+02	2.69100e+03	9.88240e-01	2.64250e+02
2699	2.65207e+02	2.69900e+03	9.87858e-01	2.64917e+02
2707	2.65883e+02	2.70700e+03	9.87540e-01	2.65583e+02
2715	2.66545e+02	2.71500e+03	9.87182e-01	2.66250e+02
2723	2.67207e+02	2.72300e+03	9.86883e-01	2.66917e+02
2731	2.67877e+02	2.73100e+03	9.86478e-01	2.67583e+02
2739	2.68536e+02	2.73900e+03	9.86232e-01	2.68250e+02
2747	2.69199e+02	2.74700e+03	9.85922e-01	2.68917e+02
2755	2.69867e+02	2.75500e+03	9.85547e-01	2.69583e+02
2763	2.70545e+02	2.76300e+03	9.85067e-01	2.70250e+02
2771	2.71210e+02	2.77100e+03	9.84627e-01	2.70917e+02
2779	2.71869e+02	2.77900e+03	9.84138e-01	2.71583e+02
2787	2.72528e+02	2.78700e+03	9.83712e-01	2.72250e+02
2795	2.73203e+02	2.79500e+03	9.83239e-01	2.72917e+02
2803	2.73867e+02	2.80300e+03	9.82755e-01	2.73583e+02
2811	2.74530e+02	2.81100e+03	9.82173e-01	2.74250e+02
2819	2.75205e+02	2.81900e+03	9.81663e-01	2.74917e+02
2827	2.75861e+02	2.82700e+03	9.81108e-01	2.75583e+02
2835	2.76523e+02	2.83500e+03	9.80391e-01	2.76250e+02
2843	2.77197e+02	2.84300e+03	9.79657e-01	2.76917e+02
2851	2.77856e+02	2.85100e+03	9.78950e-01	2.77583e+02
2859	2.78520e+02	2.85900e+03	9.78315e-01	2.78250e+02
2867	2.79187e+02	2.86700e+03	9.77639e-01	2.78917e+02
2875	2.79854e+02	2.87500e+03	9.76865e-01	2.79583e+02
2883	2.80523e+02	2.88300e+03	9.76017e-01	2.80250e+02
2891	2.81200e+02	2.89100e+03	9.75127e-01	2.80917e+02
2899	2.81868e+02	2.89900e+03	9.74362e-01	2.81583e+02
2907	2.82515e+02	2.90700e+03	9.73563e-01	2.82250e+02
2915	2.83187e+02	2.91500e+03	9.72709e-01	2.82917e+02
2923	2.83850e+02	2.92300e+03	9.71777e-01	2.83583e+02
2931	2.84509e+02	2.93100e+03	9.70761e-01	2.84250e+02
2939	2.85174e+02	2.93900e+03	9.69668e-01	2.84917e+02
2947	2.85851e+02	2.94700e+03	9.68640e-01	2.85583e+02
2955	2.86517e+02	2.95500e+03	9.67731e-01	2.86250e+02
2963	2.87179e+02	2.96300e+03	9.66633e-01	2.86917e+02
2971	2.87844e+02	2.97100e+03	9.65588e-01	2.87583e+02
2979	2.88512e+02	2.97900e+03	9.64542e-01	2.88250e+02
2987	2.89174e+02	2.98700e+03	9.63408e-01	2.88917e+02
2995	2.89843e+02	2.99500e+03	9.62317e-01	2.89583e+02
3003	2.90505e+02	3.00300e+03	9.61166e-01	2.90250e+02
3011	2.91168e+02	3.01100e+03	9.59829e-01	2.90917e+02
3019	2.91831e+02	3.01900e+03	9.58627e-01	2.91583e+02
3027	2.92509e+02	3.02700e+03	9.57582e-01	2.92250e+02
3035	2.93172e+02	3.03500e+03	9.56352e-01	2.92917e+02
3043	2.93834e+02	3.04300e+03	9.55070e-01	2.93583e+02
3051	2.94507e+02	3.05100e+03	9.53983e-01	2.94250e+02
3059	2.95166e+02	3.05900e+03	9.52807e-01	2.94917e+02
3067	2.95832e+02	3.06700e+03	9.51672e-01	2.95583e+02
3075	2.96493e+02	3.07500e+03	9.50450e-01	2.96250e+02
3083	2.97165e+02	3.08300e+03	9.49133e-01	2.96917e+02
3091	2.97830e+02	3.09100e+03	9.47945e-01	2.97583e+02
3099	2.98499e+02	3.09900e+03	9.46749e-01	2.98250e+02
3107	2.99160e+02	3.10700e+03	9.45676e-01	2.98917e+02
3115	2.99833e+02	3.11500e+03	9.44514e-01	2.99583e+02
3123	3.00487e+02	3.12300e+03	9.43311e-01	3.00250e+02
3131	3.01165e+02	3.13100e+03	9.42100e-01	3.00917e+02
3139	3.01818e+02	3.13900e+03	9.40826e-01	3.01583e+02
3147	3.02481e+02	3.14700e+03	9.39779e-01	3.02250e+02
3155	3.03151e+02	3.15500e+03	9.38661e-01	3.02917e+02
3163	3.03820e+02	3.16300e+03	9.37460e-01	3.03583e+02
3171	3.04486e+02	3.17100e+03	9.36170e-01	3.04250e+02
3179	3.05149e+02	3.17900e+03	9.34839e-01	3.04917e+02
3187	3.05814e+02	3.18700e+03	9.33542e-01	3.05583e+02
3195	3.06476e+02	3.19500e+03	9.32262e-01	3.06250e+02
3203	3.07141e+02	3.20300e+03	9.30856e-01	3.06917e+02
3211	3.07805e+02	3.21100e+03	9.29479e-01	3.07583e+02
3219	3.08470e+02	3.21900e+03	9.28003e-01	3.08250e+02
3227	3.09124e+02	3.22700e+03	9.26430e-01	3.08917e+02
3235	3.09798e+02	3.23500e+03	9.24977e-01	3.09583e+02
3243	3.10462e+02	3.24300e+03	9.23496e-01	3.10250e+02
3251	3.11122e+02	3.25100e+03	9.21977e-01	3.10917e+02
3259	3.11787e+02	3.25900e+03	9.20331e-01	3.11583e+02
3267	3.12453e+02	3.26700e+03	9.18544e-01	3.12250e+02
3275	3.13117e+02	3.27500e+03	9.16728e-01	3.12917e+02
3283	3.13781e+02	3.28300e+03	9.14815e-01	3.13583e+02
3291	3.14452e+02	3.29100e+03	9.12840e-01	3.14250e+02
3299	3.15117e+02	3.29900e+03	9.10850e-01	3.14917e+02
3307	3.15780e+02	3.30700e+03	9.08676e-01	3.15583e+02
3315	3.16453e+02	3.31500e+03	9.06420e-01	3.16250e+02
3323	3.17102e+02	3.32300e+03	9.04160e-01	3.16917e+02
3331	3.17764e+02	3.33100e+03	9.01670e-01	3.17583e+02
3339	3.18429e+02	3.33900e+03	8.99112e-01	3.18250e+02
3347	3.19101e+02	3.34700e+03	8.96453e-01	3.18917e+02
3355	3.19755e+02	3.35500e+03	8.93673e-01	3.19583e+02
3363	3.20434e+02	3.36300e+03	8.90742e-01	3.20250e+02
3371	3.21090e+02	3.37100e+03	8.87669e-01	3.20917e+02
3379	3.21750e+02	3.37900e+03	8.84486e-01	3.21583e+02
3387	3.22405e+02	3.38700e+03	8.81186e-01	3.22250e+02
3395	3.23075e+02	3.39500e+03	8.77656e-01	3.22917e+02
3403	3.23741e+02	3.40300e+03	8.73965e-01	3.23583e+02
3411	3.24400e+02	3.41100e+03	8.70059e-01	3.24250e+02
3419	3.25076e+02	3.41900e+03	8.66053e-01	3.24917e+02
3427	3.25732e+02	3.42700e+03	8.61798e-01	3.25583e+02
3435	3.26395e+02	3.43500e+03	8.57432e-01	3.26250e+02
3443	3.27061e+02	3.44300e+03	8.52808e-01	3.26917e+02
3451	3.27723e+02	3.45100e+03	8.47992e-01	3.27583e+02
3459	3.28385e+02	3.45900e+03	8.42942e-01	3.28250e+02
3467	3.29060e+02	3.46700e+03	8.37637e-01	3.28917e+02
3475	3.29724e+02	3.47500e+03	8.32226e-01	3.29583e+02
3483	3.30375e+02	3.48300e+03	8.26591e-01	3.30250e+02
3491	3.31043e+02	3.49100e+03	8.20632e-01	3.30917e+02
3499	3.31708e+02	3.49900e+03	8.14512e-01	3.31583e+02
3507	3.32366e+02	3.50700e+03	8.08277e-01	3.32250e+02
3515	3.33034e+02	3.51500e+03	8.01647e-01	3.32917e+02
3523	3.33692e+02	3.52300e+03	7.94713e-01	3.33583e+02
3531	3.34350e+02	3.53100e+03	7.87622e-01	3.34250e+02
3539	3.35016e+02	3.53900e+03	7.80101e-01	3.34917e+02
3547	3.35676e+02	3.54700e+03	7.72661e-01	3.35583e+02
3555	3.36350e+02	3.55500e+03	7.64829e-01	3.36250e+02
3563	3.37014e+02	3.56300e+03	7.56683e-01	3.36917e+02
3571	3.37682e+02	3.57100e+03	7.48318e-01	3.37583e+02
3579	3.38347e+02	3.57900e+03	7.39651e-01	3.38250e+02
3587	3.38996e+02	3.58700e+03	7.30962e-01	3.38917e+02
3595	3.39659e+02	3.59500e+03	7.21979e-01	3.39583e+02
3603	3.40325e+02	3.60300e+03	7.12766e-01	3.40250e+02
3611	3.40986e+02	3.61100e+03	7.03278e-01	3.40917e+02
3619	3.41647e+02	3.61900e+03	6.93611e-01	3.41583e+02
3627	3.42318e+02	3.62700e+03	6.83840e-01	3.42250e+02
3635	3.42980e+02	3.63500e+03	6.73689e-01	3.42917e+02
3643	3.43652e+02	3.64300e+03	6.63361e-01	3.43583e+02
3651	3.44311e+02	3.65100e+03	6.52923e-01	3.44250e+02
3659	3.44971e+02	3.65900e+03	6.42493e-01	3.44917e+02
3667	3.45643e+02	3.66700e+03	6.31696e-01	3.45583e+02
3675	3.46310e+02	3.67500e+03	6.20658e-01	3.46250e+02
3683	3.46975e+02	3.68300e+03	6.09493e-01	3.46917e+02
3691	3.47625e+02	3.69100e+03	5.98188e-01	3.47583e+02
3699	3.48289e+02	3.69900e+03	5.86769e-01	3.48250e+02
3707	3.48959e+02	3.70700e+03	5.75209e-01	3.48917e+02
3715	3.49617e+02	3.71500e+03	5.63567e-01	3.49583e+02
3723	3.50286e+02	3.72300e+03	5.51870e-01	3.50250e+02
3731	3.50953e+02	3.73100e+03	5.40180e-01	3.50917e+02
3739	3.51613e+02	3.73900e+03	5.28339e-01	3.51583e+02
3747	3.52283e+02	3.74700e+03	5.16516e-01	3.52250e+02
3755	3.52943e+02	3.75500e+03	5.04557e-01	3.52917e+02
3763	3.53603e+02	3.76300e+03	4.92660e-01	3.53583e+02
3771	3.54279e+02	3.77100e+03	4.80833e-01	3.54250e+02
3779	3.54934e+02	3.77900e+03	4.68694e-01	3.54917e+02
3787	3.55600e+02	3.78700e+03	4.56661e-01	3.55583e+02
3795	3.56272e+02	3.79500e+03	4.44569e-01	3.56250e+02
3803	3.56942e+02	3.80300e+03	4.32373e-01	3.56917e+02
3811	3.57595e+02	3.81100e+03	4.20058e-01	3.57583e+02
3819	3.58254e+02	3.81900e+03	4.07819e-01	3.58250e+02
3827	3.58913e+02	3.82700e+03	3.95621e-01	3.58917e+02
3835	3.59580e+02	3.83500e+03	3.83534e-01	3.59583e+02
3843	3.60258e+02	3.84300e+03	3.71495e-01	3.60250e+02
3851	3.60918e+02	3.85100e+03	3.59537e-01	3.60917e+02
3859	3.61582e+02	3.85900e+03	3.47677e-01	3.61583e+02
3867	3.62247e+02	3.86700e+03	3.35879e-01	3.62250e+02
3875	3.62926e+02	3.87500e+03	3.24277e-01	3.62917e+02
3883	3.63589e+02	3.88300e+03	3.12888e-01	3.63583e+02
3891	3.64249e+02	3.89100e+03	3.01831e-01	3.64250e+02
3899	3.64919e+02	3.89900e+03	2.90770e-01	3.64917e+02
3907	3.65577e+02	3.90700e+03	2.79870e-01	3.65583e+02
3915	3.66251e+02	3.91500e+03	2.69311e-01	3.66250e+02
3923	3.66919e+02	3.92300e+03	2.59145e-01	3.66917e+02
3931	3.67570e+02	3.93100e+03	2.49024e-01	3.67583e+02
3939	3.68236e+02	3.93900e+03	2.39089e-01	3.68250e+02
3947	3.68911e+02	3.94700e+03	2.29435e-01	3.68917e+02
3955	3.69584e+02	3.95500e+03	2.20095e-01	3.69583e+02
3963	3.70237e+02	3.96300e+03	2.10994e-01	3.70250e+02
3971	3.70911e+02	3.97100e+03	2.02146e-01	3.70917e+02
3979	3.71576e+02	3.97900e+03	1.93463e-01	3.71583e+02
3987	3.72241e+02	3.98700e+03	1.85162e-01	3.72250e+02
3995	3.72907e+02	3.99500e+03	1.77161e-01	3.72917e+02
4003	3.73573e+02	4.00300e+03	1.69414e-01	3.73583e+02
4011	3.74231e+02	4.01100e+03	1.61953e-01	3.74250e+02
4019	3.74910e+02	4.01900e+03	1.54722e-01	3.74917e+02
4027	3.75564e+02	4.02700e+03	1.47777e-01	3.75583e+02
4035	3.76230e+02	4.03500e+03	1.41147e-01	3.76250e+02
4043	3.76891e+02	4.04300e+03	1.34694e-01	3.76917e+02
4051	3.77561e+02	4.05100e+03	1.28448e-01	3.77583e+02
4059	3.78228e+02	4.05900e+03	1.22469e-01	3.78250e+02
4067	3.78903e+02	4.06700e+03	1.16778e-01	3.78917e+02
4075	3.79571e+02	4.07500e+03	1.11405e-01	3.79583e+02
4083	3.80236e+02	4.08300e+03	1.06294e-01	3.80250e+02
4091	3.80890e+02	4.09100e+03	1.01379e-01	3.80917e+02
4099	3.81558e+02	4.09900e+03	9.66540e-02	3.81583e+02
4107	3.82225e+02	4.10700e+03	9.22013e-02	3.82250e+02
4115	3.82889e+02	4.11500e+03	8.78680e-02	3.82917e+02
4123	3.83564e+02	4.12300e+03	8.38072e-02	3.83583e+02
4131	3.84219e+02	4.13100e+03	7.99806e-02	3.84250e+02
4139	3.84889e+02	4.13900e+03	7.62892e-02	3.84917e+02
4147	3.85550e+02	4.14700e+03	7.27581e-02	3.85583e+02
4155	3.86221e+02	4.15500e+03	6.96102e-02	3.86250e+02
4163	3.86883e+02	4.16300e+03	6.67061e-02	3.86917e+02
4171	3.87541e+02	4.17100e+03	6.38442e-02	3.87583e+02
4179	3.88208e+02	4.17900e+03	6.11832e-02	3.88250e+02
4187	3.88883e+02	4.18700e+03	5.86508e-02	3.88917e+02
4195	3.89530e+02	4.19500e+03	5.62430e-02	3.89583e+02
4203	3.90199e+02	4.20300e+03	5.40284e-02	3.90250e+02
4211	3.90869e+02	4.21100e+03	5.19823e-02	3.90917e+02
4219	3.91538e+02	4.21900e+03	4.99457e-02	3.91583e+02
4227	3.92203e+02	4.22700e+03	4.79697e-02	3.92250e+02
4235	3.92863e+02	4.23500e+03	4.65130e-02	3.92917e+02
4243	3.93523e+02	4.24300e+03	4.50578e-02	3.93583e+02
4251	3.94203e+02	4.25100e+03	4.36836e-02	3.94250e+02
4259	3.94858e+02	4.25900e+03	4.21548e-02	3.94917e+02
4267	3.95528e+02	4.26700e+03	4.11473e-02	3.95583e+02
4275	3.96195e+02	4.27500e+03	4.00176e-02	3.96250e+02
4283	3.96866e+02	4.28300e+03	3.89747e-02	3.96917e+02
4291	3.97527e+02	4.29100e+03	3.78278e-02	3.97583e+02
4299	3.98191e+02	4.29900e+03	3.70735e-02	3.98250e+02
4307	3.98853e+02	4.30700e+03	3.62980e-02	3.98917e+02
4315	3.99521e+02	4.31500e+03	3.55240e-02	3.99583e+02
4323	4.00187e+02	4.32300e+03	3.47488e-02	4.00250e+02
4331	4.00850e+02	4.33100e+03	3.40067e-02	4.00917e+02
4339	4.01509e+02	4.33900e+03	3.32215e-02	4.01583e+02
4347	4.02169e+02	4.34700e+03	3.27050e-02	4.02250e+02
4355	4.02831e+02	4.35500e+03	3.23054e-02	4.02917e+02
4363	4.03508e+02	4.36300e+03	3.18482e-02	4.03583e+02
4371	4.04159e+02	4.37100e+03	3.12950e-02	4.04250e+02
4379	4.04830e+02	4.37900e+03	3.07974e-02	4.04917e+02
4387	4.05494e+02	4.38700e+03	3.04574e-02	4.05583e+02
4395	4.06154e+02	4.39500e+03	3.01011e-02	4.06250e+02
4403	4.06821e+02	4.40300e+03	2.97290e-02	4.06917e+02
4411	4.07480e+02	4.41100e+03	2.94288e-02	4.07583e+02
4419	4.08138e+02	4.41900e+03	2.91091e-02	4.08250e+02
4427	4.08803e+02	4.42700e+03	2.88540e-02	4.08917e+02
4435	4.09467e+02	4.43500e+03	2.86076e-02	4.09583e+02
4443	4.10125e+02	4.44300e+03	2.83439e-02	4.10250e+02
4451	4.10793e+02	4.45100e+03	2.81541e-02	4.10917e+02
4459	4.11461e+02	4.45900e+03	2.79090e-02	4.11583e+02
4467	4.12127e+02	4.46700e+03	2.77576e-02	4.12250e+02
4475	4.12783e+02	4.47500e+03	2.76812e-02	4.12917e+02
4483	4.13453e+02	4.48300e+03	2.75544e-02	4.13583e+02
4491	4.14117e+02	4.49100e+03	2.74229e-02	4.14250e+02
4499	4.14780e+02	4.49900e+03	2.74603e-02	4.14917e+02
4507	4.15447e+02	4.50700e+03	2.73688e-02	4.15583e+02
4515	4.16118e+02	4.51500e+03	2.72873e-02	4.16250e+02
4523	4.16773e+02	4.52300e+03	2.71601e-02	4.16917e+02
4531	4.17439e+02	4.53100e+03	2.71018e-02	4.17583e+02
4539	4.18103e+02	4.53900e+03	2.70532e-02	4.18250e+02
4547	4.18769e+02	4.54700e+03	2.69165e-02	4.18917e+02
4555	4.19435e+02	4.55500e+03	2.68453e-02	4.19583e+02
4563	4.20102e+02	4.56300e+03	2.67906e-02	4.20250e+02
4571	4.20760e+02	4.57100e+03	2.67511e-02	4.20917e+02
4579	4.21425e+02	4.57900e+03	2.66898e-02	4.21583e+02
4587	4.22086e+02	4.58700e+03	2.66758e-02	4.22250e+02
4595	4.22752e+02	4.59500e+03	2.67235e-02	4.22917e+02
4603	4.23424e+02	4.60300e+03	2.66120e-02	4.23583e+02
4611	4.24085e+02	4.61100e+03	2.66046e-02	4.24250e+02
4619	4.24740e+02	4.61900e+03	2.66370e-02	4.24917e+02
4627	4.25408e+02	4.62700e+03	2.65822e-02	4.25583e+02
4635	4.26069e+02	4.63500e+03	2.65331e-02	4.26250e+02
4643	4.26737e+02	4.64300e+03	2.65004e-02	4.26917e+02
4651	4.27399e+02	4.65100e+03	2.60812e-02	4.27583e+02
4659	4.28070e+02	4.65900e+03	2.61241e-02	4.28250e+02
4667	4.28726e+02	4.66700e+03	2.69973e-02	4.28917e+02
4675	4.29390e+02	4.67500e+03	2.67230e-02	4.29583e+02
4683	4.30051e+02	4.68300e+03	2.64848e-02	4.30250e+02
4691	4.30729e+02	4.69100e+03	2.66542e-02	4.30917e+02
4699	4.31379e+02	4.69900e+03	2.64231e-02	4.31583e+02
4707	4.32045e+02	4.70700e+03	2.64970e-02	4.32250e+02
4715	4.32706e+02	4.71500e+03	2.64332e-02	4.32917e+02
4723	4.33360e+02	4.72300e+03	2.57558e-02	4.33583e+02
4731	4.34038e+02	4.73100e+03	2.62549e-02	4.34250e+02
4739	4.34703e+02	4.73900e+03	2.67294e-02	4.34917e+02
4747	4.35364e+02	4.74700e+03	2.63545e-02	4.35583e+02
4755	4.36027e+02	4.75500e+03	2.61642e-02	4.36250e+02
4763	4.36687e+02	4.76300e+03	2.62829e-02	4.36917e+02
4771	4.37348e+02	4.77100e+03	2.63376e-02	4.37583e+02
4779	4.38014e+02	4.77900e+03	2.64006e-02	4.38250e+02
4787	4.38685e+02	4.78700e+03	2.62434e-02	4.38917e+02
4795	4.39344e+02	4.79500e+03	2.60721e-02	4.39583e+02
4803	4.39998e+02	4.80300e+03	2.60126e-02	4.40250e+02
4811	4.40662e+02	4.81100e+03	2.60103e-02	4.40917e+02
4819	4.41318e+02	4.81900e+03	2.55588e-02	4.41583e+02
4827	4.41991e+02	4.82700e+03	2.54860e-02	4.42250e+02
4835	4.42646e+02	4.83500e+03	2.57868e-02	4.42917e+02
4843	4.43313e+02	4.84300e+03	2.61908e-02	4.43583e+02
4851	4.43974e+02	4.85100e+03	2.64218e-02	4.44250e+02
4859	4.44640e+02	4.85900e+03	2.62394e-02	4.44917e+02
4867	4.45297e+02	4.86700e+03	2.61104e-02	4.45583e+02
4875	4.45965e+02	4.87500e+03	2.61039e-02	4.46250e+02
4883	4.46631e+02	4.88300e+03	2.61230e-02	4.46917e+02
4891	4.47288e+02	4.89100e+03	2.60709e-02	4.47583e+02
4899	4.47954e+02	4.89900e+03	2.60392e-02	4.48250e+02
4907	4.48611e+02	4.90700e+03	2.59532e-02	4.48917e+02
4915	4.49276e+02	4.91500e+03	2.59866e-02	4.49583e+02
4923	4.49942e+02	4.92300e+03	2.60298e-02	4.50250e+02
4931	4.50587e+02	4.93100e+03	2.59769e-02	4.50917e+02
4939	4.51257e+02	4.93900e+03	2.59296e-02	4.51583e+02
4947	4.51922e+02	4.94700e+03	2.59566e-02	4.52250e+02
4955	4.52573e+02	4.95500e+03	2.59287e-02	4.52917e+02
4963	4.53237e+02	4.96300e+03	2.58970e-02	4.53583e+02
4971	4.53894e+02	4.97100e+03	2.59605e-02	4.54250e+02
4979	4.54561e+02	4.97900e+03	2.60041e-02	4.54917e+02
4987	4.55228e+02	4.98700e+03	2.60641e-02	4.55583e+02
4995	4.55883e+02	4.99500e+03	2.60835e-02	4.56250e+02
5003	4.56553e+02	5.00300e+03	2.59922e-02	4.56917e+02
5011	4.57213e+02	5.01100e+03	2.59937e-02	4.57583e+02
5019	4.57885e+02	5.01900e+03	2.60030e-02	4.58250e+02
5027	4.58541e+02	5.02700e+03	2.60245e-02	4.58917e+02
5035	4.59204e+02	5.03500e+03	2.60241e-02	4.59583e+02
5043	4.59882e+02	5.04300e+03	2.60276e-02	4.60250e+02
5051	4.60529e+02	5.05100e+03	2.60740e-02	4.60917e+02
5059	4.61178e+02	5.05900e+03	2.60445e-02	4.61583e+02
5067	4.61844e+02	5.06700e+03	2.60526e-02	4.62250e+02
5075	4.62517e+02	5.07500e+03	2.60969e-02	4.62917e+02
5083	4.63178e+02	5.08300e+03	2.59838e-02	4.63583e+02
5091	4.63831e+02	5.09100e+03	2.59512e-02	4.64250e+02
5099	4.64499e+02	5.09900e+03	2.59653e-02	4.64917e+02
5107	4.65162e+02	5.10700e+03	2.61106e-02	4.65583e+02
5115	4.65816e+02	5.11500e+03	2.61059e-02	4.66250e+02
5123	4.66477e+02	5.12300e+03	2.60339e-02	4.66917e+02
5131	4.67141e+02	5.13100e+03	2.60963e-02	4.67583e+02
5139	4.67806e+02	5.13900e+03	2.61030e-02	4.68250e+02
5147	4.68466e+02	5.14700e+03	2.60752e-02	4.68917e+02
5155	4.69127e+02	5.15500e+03	2.60403e-02	4.69583e+02
5163	4.69787e+02	5.16300e+03	2.60152e-02	4.70250e+02
5171	4.70452e+02	5.17100e+03	2.60827e-02	4.70917e+02
5179	4.71111e+02	5.17900e+03	2.61007e-02	4.71583e+02
5187	4.71777e+02	5.18700e+03	2.59943e-02	4.72250e+02
5195	4.72434e+02	5.19500e+03	2.59603e-02	4.72917e+02
5203	4.73098e+02	5.20300e+03	2.59955e-02	4.73583e+02
5211	4.73753e+02	5.21100e+03	2.60931e-02	4.74250e+02
5219	4.74412e+02	5.21900e+03	2.60903e-02	4.74917e+02
5227	4.75079e+02	5.22700e+03	2.60621e-02	4.75583e+02
5235	4.75731e+02	5.23500e+03	2.60829e-02	4.76250e+02
5243	4.76405e+02	5.24300e+03	2.61296e-02	4.76917e+02
5251	4.77060e+02	5.25100e+03	2.61312e-02	4.77583e+02
5259	4.77722e+02	5.25900e+03	2.61357e-02	4.78250e+02
5267	4.78386e+02	5.26700e+03	2.60567e-02	4.78917e+02
5275	4.79047e+02	5.27500e+03	2.60389e-02	4.79583e+02
5283	4.79707e+02	5.28300e+03	2.59634e-02	4.80250e+02
5291	4.80364e+02	5.29100e+03	2.59909e-02	4.80917e+02
5299	4.81037e+02	5.29900e+03	2.60571e-02	4.81583e+02
5307	4.81692e+02	5.30700e+03	2.60883e-02	4.82250e+02
5315	4.82353e+02	5.31500e+03	2.61725e-02	4.82917e+02
5323	4.83009e+02	5.32300e+03	2.61688e-02	4.83583e+02
5331	4.83672e+02	5.33100e+03	2.61689e-02	4.84250e+02
5339	4.84344e+02	5.33900e+03	2.61832e-02	4.84917e+02
5347	4.85005e+02	5.34700e+03	2.61620e-02	4.85583e+02
5355	4.85666e+02	5.35500e+03	2.61298e-02	4.86250e+02
5363	4.86329e+02	5.36300e+03	2.61229e-02	4.86917e+02
5371	4.86996e+02	5.37100e+03	2.61359e-02	4.87583e+02
5379	4.87653e+02	5.37900e+03	2.61540e-02	4.88250e+02
5387	4.88314e+02	5.38700e+03	2.61249e-02	4.88917e+02
5395	4.88979e+02	5.39500e+03	2.61031e-02	4.89583e+02
5403	4.89637e+02	5.40300e+03	2.60694e-02	4.90250e+02
5411	4.90302e+02	5.41100e+03	2.61898e-02	4.90917e+02
5419	4.90977e+02	5.41900e+03	2.62194e-02	4.91583e+02
5427	4.91623e+02	5.42700e+03	2.62576e-02	4.92250e+02
5435	4.92288e+02	5.43500e+03	2.63210e-02	4.92917e+02
5443	4.92949e+02	5.44300e+03	2.62729e-02	4.93583e+02
5451	4.93611e+02	5.45100e+03	2.61702e-02	4.94250e+02
5459	4.94285e+02	5.45900e+03	2.60657e-02	4.94917e+02
5467	4.94933e+02	5.46700e+03	2.61145e-02	4.95583e+02
5475	4.95608e+02	5.47500e+03	2.62342e-02	4.96250e+02
5483	4.96267e+02	5.48300e+03	2.62292e-02	4.96917e+02
5491	4.96927e+02	5.49100e+03	2.61441e-02	4.97583e+02
5499	4.97590e+02	5.49900e+03	2.61654e-02	4.98250e+02
5507	4.98255e+02	5.50700e+03	2.62209e-02	4.98917e+02
5515	4.98914e+02	5.51500e+03	2.62036e-02	4.99583e+02
5523	4.99578e+02	5.52300e+03	2.61744e-02	5.00250e+02
5531	5.00238e+02	5.53100e+03	2.62477e-02	5.00917e+02
5539	5.00909e+02	5.53900e+03	2.62327e-02	5.01583e+02
5547	5.01564e+02	5.54700e+03	2.62295e-02	5.02250e+02
5555	5.02235e+02	5.55500e+03	2.62740e-02	5.02917e+02
5563	5.02892e+02	5.56300e+03	2.62970e-02	5.03583e+02
5571	5.03552e+02	5.57100e+03	2.61820e-02	5.04250e+02
5579	5.04221e+02	5.57900e+03	2.63172e-02	5.04917e+02
5587	5.04883e+02	5.58700e+03	2.63266e-02	5.05583e+02
5595	5.05543e+02	5.59500e+03	2.62428e-02	5.06250e+02
5603	5.06210e+02	5.60300e+03	2.62129e-02	5.06917e+02
5611	5.06881e+02	5.61100e+03	2.61830e-02	5.07583e+02
5619	5.07538e+02	5.61900e+03	2.62832e-02	5.08250e+02
5627	5.08203e+02	5.62700e+03	2.63954e-02	5.08917e+02
5635	5.08864e+02	5.63500e+03	2.63698e-02	5.09583e+02
5643	5.09538e+02	5.64300e+03	2.61836e-02	5.10250e+02
5651	5.10199e+02	5.65100e+03	2.62394e-02	5.10917e+02
5659	5.10866e+02	5.65900e+03	2.64990e-02	5.11583e+02
5667	5.11522e+02	5.66700e+03	2.64576e-02	5.12250e+02
5675	5.12191e+02	5.67500e+03	2.63297e-02	5.12917e+02
5683	5.12853e+02	5.68300e+03	2.62884e-02	5.13583e+02
5691	5.13516e+02	5.69100e+03	2.63544e-02	5.14250e+02
5699	5.14176e+02	5.69900e+03	2.64262e-02	5.14917e+02
5707	5.14840e+02	5.70700e+03	2.64058e-02	5.15583e+02
5715	5.15502e+02	5.71500e+03	2.64631e-02	5.16250e+02
5723	5.16162e+02	5.72300e+03	2.65785e-02	5.16917e+02
5731	5.16831e+02	5.73100e+03	2.66596e-02	5.17583e+02
5739	5.17490e+02	5.73900e+03	2.67152e-02	5.18250e+02
5747	5.18164e+02	5.74700e+03	2.65814e-02	5.18917e+02
5755	5.18825e+02	5.75500e+03	2.64919e-02	5.19583e+02
5763	5.19492e+02	5.76300e+03	2.65499e-02	5.20250e+02
5771	5.20162e+02	5.77100e+03	2.65758e-02	5.20917e+02
5779	5.20824e+02	5.77900e+03	2.65080e-02	5.21583e+02
5787	5.21490e+02	5.78700e+03	2.65002e-02	5.22250e+02
5795	5.22154e+02	5.79500e+03	2.63658e-02	5.22917e+02
5803	5.22824e+02	5.80300e+03	2.64124e-02	5.23583e+02
5811	5.23483e+02	5.81100e+03	2.65022e-02	5.24250e+02
5819	5.24143e+02	5.81900e+03	2.65411e-02	5.24917e+02
5827	5.24804e+02	5.82700e+03	2.65350e-02	5.25583e+02
5835	5.25480e+02	5.83500e+03	2.64392e-02	5.26250e+02
5843	5.26130e+02	5.84300e+03	2.63851e-02	5.26917e+02
5851	5.26803e+02	5.85100e+03	2.63744e-02	5.27583e+02
5859	5.27466e+02	5.85900e+03	2.63723e-02	5.28250e+02
5867	5.28141e+02	5.86700e+03	2.65050e-02	5.28917e+02
5875	5.28811e+02	5.87500e+03	2.65049e-02	5.29583e+02
5883	5.29463e+02	5.88300e+03	2.64553e-02	5.30250e+02
5891	5.30136e+02	5.89100e+03	2.65631e-02	5.30917e+02
5899	5.30797e+02	5.89900e+03	2.66034e-02	5.31583e+02
5907	5.31457e+02	5.90700e+03	2.66540e-02	5.32250e+02
5915	5.32126e+02	5.91500e+03	2.66343e-02	5.32917e+02
5923	5.32786e+02	5.92300e+03	2.65871e-02	5.33583e+02
5931	5.33450e+02	5.93100e+03	2.66607e-02	5.34250e+02
5939	5.34124e+02	5.93900e+03	2.67224e-02	5.34917e+02
5947	5.34785e+02	5.94700e+03	2.66662e-02	5.35583e+02
5955	5.35449e+02	5.95500e+03	2.65130e-02	5.36250e+02
5963	5.36127e+02	5.96300e+03	2.65743e-02	5.36917e+02
5971	5.36781e+02	5.97100e+03	2.66140e-02	5.37583e+02
5979	5.37461e+02	5.97900e+03	2.66404e-02	5.38250e+02
5987	5.38118e+02	5.98700e+03	2.65990e-02	5.38917e+02
5995	5.38779e+02	5.99500e+03	2.66673e-02	5.39583e+02
6003	5.39443e+02	6.00300e+03	2.66388e-02	5.40250e+02
6011	5.40103e+02	6.01100e+03	2.65279e-02	5.40917e+02
6019	5.40772e+02	6.01900e+03	2.65412e-02	5.41583e+02
6027	5.41428e+02	6.02700e+03	2.66115e-02	5.42250e+02
6035	5.42098e+02	6.03500e+03	2.65184e-02	5.42917e+02
6043	5.42763e+02	6.04300e+03	2.65608e-02	5.43583e+02
6051	5.43441e+02	6.05100e+03	2.65715e-02	5.44250e+02
6059	5.44097e+02	6.05900e+03	2.64969e-02	5.44917e+02
6067	5.44771e+02	6.06700e+03	2.66482e-02	5.45583e+02
6075	5.45431e+02	6.07500e+03	2.66863e-02	5.46250e+02
6083	5.46103e+02	6.08300e+03	2.67037e-02	5.46917e+02
6091	5.46752e+02	6.09100e+03	2.66468e-02	5.47583e+02
6099	5.47418e+02	6.09900e+03	2.66668e-02	5.48250e+02
6107	5.48086e+02	6.10700e+03	2.66525e-02	5.48917e+02
6115	5.48758e+02	6.11500e+03	2.67380e-02	5.49583e+02
6123	5.49416e+02	6.12300e+03	2.67198e-02	5.50250e+02
6131	5.50092e+02	6.13100e+03	2.66279e-02	5.50917e+02
6139	5.50760e+02	6.13900e+03	2.65895e-02	5.51583e+02
6147	5.51430e+02	6.14700e+03	2.65460e-02	5.52250e+02
6155	5.52095e+02	6.15500e+03	2.66620e-02	5.52917e+02
6163	5.52754e+02	6.16300e+03	2.66519e-02	5.53583e+02
6171	5.53428e+02	6.17100e+03	2.66599e-02	5.54250e+02
6179	5.54089e+02	6.17900e+03	2.67080e-02	5.54917e+02
6187	5.54762e+02	6.18700e+03	2.67457e-02	5.55583e+02
6195	5.55426e+02	6.19500e+03	2.67347e-02	5.56250e+02
6203	5.56089e+02	6.20300e+03	2.66049e-02	5.56917e+02
6211	5.56757e+02	6.21100e+03	2.65799e-02	5.57583e+02
6219	5.57420e+02	6.21900e+03	2.66294e-02	5.58250e+02
6227	5.58085e+02	6.22700e+03	2.66768e-02	5.58917e+02
6235	5.58761e+02	6.23500e+03	2.66228e-02	5.59583e+02
6243	5.59415e+02	6.24300e+03	2.66224e-02	5.60250e+02
6251	5.60097e+02	6.25100e+03	2.66277e-02	5.60917e+02
6259	5.60765e+02	6.25900e+03	2.66910e-02	5.61583e+02
6267	5.61427e+02	6.26700e+03	2.67307e-02	5.62250e+02
6275	5.62073e+02	6.27500e+03	2.67390e-02	5.62917e+02
6283	5.62752e+02	6.28300e+03	2.67164e-02	5.63583e+02
6291	5.63402e+02	6.29100e+03	2.67231e-02	5.64250e+02
6299	5.64081e+02	6.29900e+03	2.66598e-02	5.64917e+02
6307	5.64746e+02	6.30700e+03	2.65987e-02	5.65583e+02
6315	5.65411e+02	6.31500e+03	2.65665e-02	5.66250e+02
6323	5.66086e+02	6.32300e+03	2.66570e-02	5.66917e+02
6331	5.66741e+02	6.33100e+03	2.66729e-02	5.67583e+02
6339	5.67406e+02	6.33900e+03	2.67628e-02	5.68250e+02
6347	5.68083e+02	6.34700e+03	2.67701e-02	5.68917e+02
6355	5.68739e+02	6.35500e+03	2.68040e-02	5.69583e+02
6363	5.69414e+02	6.36300e+03	2.68170e-02	5.70250e+02
6371	5.70075e+02	6.37100e+03	2.68470e-02	5.70917e+02
6379	5.70745e+02	6.37900e+03	2.68255e-02	5.71583e+02
6387	5.71404e+02	6.38700e+03	2.68019e-02	5.72250e+02
6395	5.72075e+02	6.39500e+03	2.68317e-02	5.72917e+02
6403	5.72747e+02	6.40300e+03	2.69295e-02	5.73583e+02
6411	5.73406e+02	6.41100e+03	2.69130e-02	5.74250e+02
6419	5.74074e+02	6.41900e+03	2.69163e-02	5.74917e+02
6427	5.74747e+02	6.42700e+03	2.70474e-02	5.75583e+02
6435	5.75409e+02	6.43500e+03	2.69752e-02	5.76250e+02
6443	5.76084e+02	6.44300e+03	2.69056e-02	5.76917e+02
6451	5.76749e+02	6.45100e+03	2.68996e-02	5.77583e+02
6459	5.77412e+02	6.45900e+03	2.68577e-02	5.78250e+02
6467	5.78082e+02	6.46700e+03	2.68355e-02	5.78917e+02
6475	5.78750e+02	6.47500e+03	2.67755e-02	5.79583e+02
6483	5.79417e+02	6.48300e+03	2.68517e-02	5.80250e+02
6491	5.80083e+02	6.49100e+03	2.70226e-02	5.80917e+02
6499	5.80744e+02	6.49900e+03	2.70222e-02	5.81583e+02
6507	5.81420e+02	6.50700e+03	2.70383e-02	5.82250e+02
6515	5.82087e+02	6.51500e+03	2.69813e-02	5.82917e+02
6523	5.82746e+02	6.52300e+03	2.69373e-02	5.83583e+02
6531	5.83420e+02	6.53100e+03	2.69870e-02	5.84250e+02
6539	5.84076e+02	6.53900e+03	2.69910e-02	5.84917e+02
6547	5.84740e+02	6.54700e+03	2.70546e-02	5.85583e+02
6555	5.85417e+02	6.55500e+03	2.71818e-02	5.86250e+02
6563	5.86075e+02	6.56300e+03	2.71524e-02	5.86917e+02
6571	5.86743e+02	6.57100e+03	2.70860e-02	5.87583e+02
6579	5.87403e+02	6.57900e+03	2.70612e-02	5.88250e+02
6587	5.88065e+02	6.58700e+03	2.70237e-02	5.88917e+02
6595	5.88741e+02	6.59500e+03	2.69636e-02	5.89583e+02
6603	5.89399e+02	6.60300e+03	2.70356e-02	5.90250e+02
6611	5.90069e+02	6.61100e+03	2.70493e-02	5.90917e+02
6619	5.90741e+02	6.61900e+03	2.69697e-02	5.91583e+02
6627	5.91405e+02	6.62700e+03	2.69984e-02	5.92250e+02
6635	5.92069e+02	6.63500e+03	2.69879e-02	5.92917e+02
6643	5.92742e+02	6.64300e+03	2.69563e-02	5.93583e+02
6651	5.93405e+02	6.65100e+03	2.70887e-02	5.94250e+02
6659	5.94068e+02	6.65900e+03	2.70656e-02	5.94917e+02
6667	5.94746e+02	6.66700e+03	2.69539e-02	5.95583e+02
6675	5.95415e+02	6.67500e+03	2.69238e-02	5.96250e+02
6683	5.96079e+02	6.68300e+03	2.68574e-02	5.96917e+02
6691	5.96753e+02	6.69100e+03	2.70470e-02	5.97583e+02
6699	5.97418e+02	6.69900e+03	2.70070e-02	5.98250e+02
6707	5.98086e+02	6.70700e+03	2.69840e-02	5.98917e+02
6715	5.98748e+02	6.71500e+03	2.70511e-02	5.99583e+02
6723	5.99418e+02	6.72300e+03	2.71896e-02	6.00250e+02
6731	6.00079e+02	6.73100e+03	2.70395e-02	6.00917e+02
6739	6.00755e+02	6.73900e+03	2.70998e-02	6.01583e+02
6747	6.01419e+02	6.74700e+03	2.71452e-02	6.02250e+02
6755	6.02084e+02	6.75500e+03	2.70445e-02	6.02917e+02
6763	6.02755e+02	6.76300e+03	2.69236e-02	6.03583e+02
6771	6.03420e+02	6.77100e+03	2.68282e-02	6.04250e+02
6779	6.04081e+02	6.77900e+03	2.70370e-02	6.04917e+02
6787	6.04755e+02	6.78700e+03	2.71281e-02	6.05583e+02
6795	6.05425e+02	6.79500e+03	2.71892e-02	6.06250e+02
6803	6.06102e+02	6.80300e+03	2.70421e-02	6.06917e+02
6811	6.06765e+02	6.81100e+03	2.69970e-02	6.07583e+02
6819	6.07422e+02	6.81900e+03	2.69830e-02	6.08250e+02
6827	6.08084e+02	6.82700e+03	2.70878e-02	6.08917e+02
6835	6.08746e+02	6.83500e+03	2.70328e-02	6.09583e+02
6843	6.09422e+02	6.84300e+03	2.70789e-02	6.10250e+02
6851	6.10086e+02	6.85100e+03	2.68950e-02	6.10917e+02
6859	6.10761e+02	6.85900e+03	2.70229e-02	6.11583e+02
6867	6.11424e+02	6.86700e+03	2.70628e-02	6.12250e+02
6875	6.12097e+02	6.87500e+03	2.71291e-02	6.12917e+02
6883	6.12773e+02	6.88300e+03	2.71280e-02	6.13583e+02
6891	6.13438e+02	6.89100e+03	2.70840e-02	6.14250e+02
6899	6.14093e+02	6.89900e+03	2.70467e-02	6.14917e+02
6907	6.14764e+02	6.90700e+03	2.71214e-02	6.15583e+02
6915	6.15423e+02	6.91500e+03	2.70393e-02	6.16250e+02
6923	6.16099e+02	6.92300e+03	2.69093e-02	6.16917e+02
6931	6.16769e+02	6.93100e+03	2.69568e-02	6.17583e+02
6939	6.17420e+02	6.93900e+03	2.71435e-02	6.18250e+02
6947	6.18103e+02	6.94700e+03	2.71120e-02	6.18917e+02
6955	6.18769e+02	6.95500e+03	2.70244e-02	6.19583e+02
6963	6.19435e+02	6.96300e+03	2.70720e-02	6.20250e+02
6971	6.20101e+02	6.97100e+03	2.70608e-02	6.20917e+02
6979	6.20777e+02	6.97900e+03	2.70729e-02	6.21583e+02
6987	6.21442e+02	6.98700e+03	2.70950e-02	6.22250e+02
6995	6.22107e+02	6.99500e+03	2.70596e-02	6.22917e+02
7003	6.22782e+02	7.00300e+03	2.71300e-02	6.23583e+02
7011	6.23448e+02	7.01100e+03	2.71338e-02	6.24250e+02
7019	6.24117e+02	7.01900e+03	2.70146e-02	6.24917e+02
7027	6.24782e+02	7.02700e+03	2.69432e-02	6.25583e+02
7035	6.25452e+02	7.03500e+03	2.70009e-02	6.26250e+02
7043	6.26122e+02	7.04300e+03	2.70401e-02	6.26917e+02
7051	6.26799e+02	7.05100e+03	2.70858e-02	6.27583e+02
7059	6.27455e+02	7.05900e+03	2.71046e-02	6.28250e+02
7067	6.28129e+02	7.06700e+03	2.71192e-02	6.28917e+02
7075	6.28794e+02	7.07500e+03	2.71763e-02	6.29583e+02
7083	6.29468e+02	7.08300e+03	2.72517e-02	6.30250e+02
7091	6.30129e+02	7.09100e+03	2.71445e-02	6.30917e+02
7099	6.30791e+02	7.09900e+03	2.70935e-02	6.31583e+02
7107	6.31462e+02	7.10700e+03	2.71485e-02	6.32250e+02
7115	6.32139e+02	7.11500e+03	2.70812e-02	6.32917e+02
7123	6.32796e+02	7.12300e+03	2.70936e-02	6.33583e+02
7131	6.33465e+02	7.13100e+03	2.71126e-02	6.34250e+02
7139	6.34130e+02	7.13900e+03	2.71356e-02	6.34917e+02
7147	6.34801e+02	7.14700e+03	2.71835e-02	6.35583e+02
7155	6.35476e+02	7.15500e+03	2.69651e-02	6.36250e+02
7163	6.36145e+02	7.16300e+03	2.68122e-02	6.36917e+02
7171	6.36808e+02	7.17100e+03	2.70086e-02	6.37583e+02
7179	6.37464e+02	7.17900e+03	2.70161e-02	6.38250e+02
7187	6.38139e+02	7.18700e+03	2.69464e-02	6.38917e+02
7195	6.38811e+02	7.19500e+03	2.68957e-02	6.39583e+02
7203	6.39482e+02	7.20300e+03	2.69138e-02	6.40250e+02
7211	6.40148e+02	7.21100e+03	2.69466e-02	6.40917e+02
7219	6.40824e+02	7.21900e+03	2.69861e-02	6.41583e+02
7227	6.41498e+02	7.22700e+03	2.70698e-02	6.42250e+02
7235	6.42159e+02	7.23500e+03	2.71247e-02	6.42917e+02
7243	6.42826e+02	7.24300e+03	2.70448e-02	6.43583e+02
7251	6.43503e+02	7.25100e+03	2.70676e-02	6.44250e+02
7259	6.44167e+02	7.25900e+03	2.70255e-02	6.44917e+02
7267	6.44833e+02	7.26700e+03	2.70155e-02	6.45583e+02
7275	6.45506e+02	7.27500e+03	2.71597e-02	6.46250e+02
7283	6.46167e+02	7.28300e+03	2.71676e-02	6.46917e+02
7291	6.46843e+02	7.29100e+03	2.70723e-02	6.47583e+02
7299	6.47519e+02	7.29900e+03	2.69603e-02	6.48250e+02
7307	6.48199e+02	7.30700e+03	2.69307e-02	6.48917e+02
7315	6.48877e+02	7.31500e+03	2.70440e-02	6.49583e+02
7323	6.49536e+02	7.32300e+03	2.70820e-02	6.50250e+02
7331	6.50208e+02	7.33100e+03	2.71119e-02	6.50917e+02
7339	6.50875e+02	7.33900e+03	2.71143e-02	6.51583e+02
7347	6.51545e+02	7.34700e+03	2.70876e-02	6.52250e+02
7355	6.52216e+02	7.35500e+03	2.70236e-02	6.52917e+02
7363	6.52887e+02	7.36300e+03	2.70828e-02	6.53583e+02
7371	6.53547e+02	7.37100e+03	2.70934e-02	6.54250e+02
7379	6.54215e+02	7.37900e+03	2.70882e-02	6.54917e+02
7387	6.54896e+02	7.38700e+03	2.69799e-02	6.55583e+02
7395	6.55559e+02	7.39500e+03	2.69942e-02	6.56250e+02
7403	6.56230e+02	7.40300e+03	2.70433e-02	6.56917e+02
7411	6.56887e+02	7.41100e+03	2.71152e-02	6.57583e+02
7419	6.57557e+02	7.41900e+03	2.71203e-02	6.58250e+02
7427	6.58226e+02	7.42700e+03	2.70476e-02	6.58917e+02
7435	6.58895e+02	7.43500e+03	2.70853e-02	6.59583e+02
7443	6.59559e+02	7.44300e+03	2.71298e-02	6.60250e+02
7451	6.60232e+02	7.45100e+03	2.70746e-02	6.60917e+02
7459	6.60903e+02	7.45900e+03	2.71173e-02	6.61583e+02
7467	6.61578e+02	7.46700e+03	2.71218e-02	6.62250e+02
7475	6.62241e+02	7.47500e+03	2.71834e-02	6.62917e+02
7483	6.62913e+02	7.48300e+03	2.70989e-02	6.63583e+02
7491	6.63582e+02	7.49100e+03	2.71099e-02	6.64250e+02
7499	6.64245e+02	7.49900e+03	2.71660e-02	6.64917e+02
7507	6.64934e+02	7.50700e+03	2.72168e-02	6.65583e+02
7515	6.65586e+02	7.51500e+03	2.71210e-02	6.66250e+02
7523	6.66251e+02	7.52300e+03	2.71102e-02	6.66917e+02
7531	6.66933e+02	7.53100e+03	2.71897e-02	6.67583e+02
7539	6.67600e+02	7.53900e+03	2.71839e-02	6.68250e+02
7547	6.68272e+02	7.54700e+03	2.71660e-02	6.68917e+02
7555	6.68951e+02	7.55500e+03	2.71084e-02	6.69583e+02
7563	6.69614e+02	7.56300e+03	2.71605e-02	6.70250e+02
7571	6.70279e+02	7.57100e+03	2.72435e-02	6.70917e+02
7579	6.70946e+02	7.57900e+03	2.72305e-02	6.71583e+02
7587	6.71615e+02	7.58700e+03	2.72340e-02	6.72250e+02
7595	6.72275e+02	7.59500e+03	2.71630e-02	6.72917e+02
7603	6.72952e+02	7.60300e+03	2.71687e-02	6.73583e+02
7611	6.73629e+02	7.61100e+03	2.72128e-02	6.74250e+02
7619	6.74289e+02	7.61900e+03	2.71004e-02	6.74917e+02
7627	6.74964e+02	7.62700e+03	2.71415e-02	6.75583e+02
7635	6.75641e+02	7.63500e+03	2.71825e-02	6.76250e+02
7643	6.76308e+02	7.64300e+03	2.71477e-02	6.76917e+02
7651	6.76971e+02	7.65100e+03	2.72463e-02	6.77583e+02
7659	6.77631e+02	7.65900e+03	2.72850e-02	6.78250e+02
7667	6.78305e+02	7.66700e+03	2.72670e-02	6.78917e+02
7675	6.78976e+02	7.67500e+03	2.72151e-02	6.79583e+02
7683	6.79633e+02	7.68300e+03	2.72457e-02	6.80250e+02
7691	6.80310e+02	7.69100e+03	2.73412e-02	6.80917e+02
7699	6.80980e+02	7.69900e+03	2.72837e-02	6.81583e+02
7707	6.81664e+02	7.70700e+03	2.72849e-02	6.82250e+02
7715	6.82333e+02	7.71500e+03	2.72012e-02	6.82917e+02
7723	6.82993e+02	7.72300e+03	2.72322e-02	6.83583e+02
7731	6.83679e+02	7.73100e+03	2.70807e-02	6.84250e+02
7739	6.84341e+02	7.73900e+03	2.71890e-02	6.84917e+02
7747	6.85009e+02	7.74700e+03	2.72592e-02	6.85583e+02
7755	6.85682e+02	7.75500e+03	2.73651e-02	6.86250e+02
7763	6.86353e+02	7.76300e+03	2.73894e-02	6.86917e+02
7771	6.87019e+02	7.77100e+03	2.73528e-02	6.87583e+02
7779	6.87681e+02	7.77900e+03	2.71940e-02	6.88250e+02
7787	6.88349e+02	7.78700e+03	2.71561e-02	6.88917e+02
7795	6.89032e+02	7.79500e+03	2.72664e-02	6.89583e+02
7803	6.89713e+02	7.80300e+03	2.74197e-02	6.90250e+02
7811	6.90373e+02	7.81100e+03	2.73662e-02	6.90917e+02
7819	6.91047e+02	7.81900e+03	2.74065e-02	6.91583e+02
7827	6.91714e+02	7.82700e+03	2.74191e-02	6.92250e+02
7835	6.92379e+02	7.83500e+03	2.73530e-02	6.92917e+02
7843	6.93041e+02	7.84300e+03	2.72320e-02	6.93583e+02
7851	6.93702e+02	7.85100e+03	2.72331e-02	6.94250e+02
7859	6.94370e+02	7.85900e+03	2.72359e-02	6.94917e+02
7867	6.95042e+02	7.86700e+03	2.71255e-02	6.95583e+02
7875	6.95704e+02	7.87500e+03	2.71775e-02	6.96250e+02
7883	6.96386e+02	7.88300e+03	2.72450e-02	6.96917e+02
7891	6.97051e+02	7.89100e+03	2.71847e-02	6.97583e+02
7899	6.97570e+02	7.89900e+03	2.73894e-02	6.98250e+02
7907	6.98017e+02	7.90700e+03	2.73969e-02	6.98917e+02
7915	6.98355e+02	7.91500e+03	2.72461e-02	6.99583e+02
7920	6.98540e+02	7.92000e+03	2.71913e-02	7.00000e+02