File: Experiments/TUBS/tga_nonisotherm/tga_dynamic_n2_dyn20_piece_3mg_r2.txt
index	ts	t	weight	tr
[#]	[°C]	[s]	[mg]	[°C]
723	1.29997e+02	7.23000e+02	2.96426e+00	1.31000e+02
725	1.30660e+02	7.25000e+02	2.96428e+00	1.31667e+02
727	1.31322e+02	7.27000e+02	2.96429e+00	1.32333e+02
729	1.31971e+02	7.29000e+02	2.96428e+00	1.33000e+02
731	1.32644e+02	7.31000e+02	2.96427e+00	1.33667e+02
733	1.33312e+02	7.33000e+02	2.96423e+00	1.34333e+02
735	1.33979e+02	7.35000e+02	2.96419e+00	1.35000e+02
737	1.34638e+02	7.37000e+02	2.96414e+00	1.35667e+02
739	1.35309e+02	7.39000e+02	2.96409e+00	1.36333e+02
741	1.35976e+02	7.41000e+02	2.96407e+00	1.37000e+02
743	1.36632e+02	7.43000e+02	2.96405e+00	1.37667e+02
745	1.37301e+02	7.45000e+02	2.96404e+00	1.38333e+02
747	1.37973e+02	7.47000e+02	2.96401e+00	1.39000e+02
749	1.38635e+02	7.49000e+02	2.96398e+00	1.39667e+02
751	1.39305e+02	7.51000e+02	2.96397e+00	1.40333e+02
753	1.39987e+02	7.53000e+02	2.96399e+00	1.41000e+02
755	1.40638e+02	7.55000e+02	2.96402e+00	1.41667e+02
757	1.41303e+02	7.57000e+02	2.96405e+00	1.42333e+02
759	1.41971e+02	7.59000e+02	2.96405e+00	1.43000e+02
761	1.42641e+02	7.61000e+02	2.96401e+00	1.43667e+02
763	1.43309e+02	7.63000e+02	2.96397e+00	1.44333e+02
765	1.43971e+02	7.65000e+02	2.96389e+00	1.45000e+02
767	1.44649e+02	7.67000e+02	2.96382e+00	1.45667e+02
769	1.45317e+02	7.69000e+02	2.96374e+00	1.46333e+02
771	1.45984e+02	7.71000e+02	2.96368e+00	1.47000e+02
773	1.46656e+02	7.73000e+02	2.96365e+00	1.47667e+02
775	1.47323e+02	7.75000e+02	2.96361e+00	1.48333e+02
777	1.48008e+02	7.77000e+02	2.96360e+00	1.49000e+02
779	1.48684e+02	7.79000e+02	2.96358e+00	1.49667e+02
781	1.49332e+02	7.81000e+02	2.96356e+00	1.50333e+02
783	1.50007e+02	7.83000e+02	2.96354e+00	1.51000e+02
785	1.50688e+02	7.85000e+02	2.96350e+00	1.51667e+02
787	1.51349e+02	7.87000e+02	2.96347e+00	1.52333e+02
789	1.52021e+02	7.89000e+02	2.96342e+00	1.53000e+02
791	1.52687e+02	7.91000e+02	2.96336e+00	1.53667e+02
793	1.53366e+02	7.93000e+02	2.96328e+00	1.54333e+02
795	1.54037e+02	7.95000e+02	2.96322e+00	1.55000e+02
797	1.54707e+02	7.97000e+02	2.96318e+00	1.55667e+02
799	1.55382e+02	7.99000e+02	2.96314e+00	1.56333e+02
801	1.56042e+02	8.01000e+02	2.96309e+00	1.57000e+02
803	1.56731e+02	8.03000e+02	2.96303e+00	1.57667e+02
805	1.57390e+02	8.05000e+02	2.96296e+00	1.58333e+02
807	1.58070e+02	8.07000e+02	2.96289e+00	1.59000e+02
809	1.58763e+02	8.09000e+02	2.96284e+00	1.59667e+02
811	1.59436e+02	8.11000e+02	2.96279e+00	1.60333e+02
813	1.60086e+02	8.13000e+02	2.96275e+00	1.61000e+02
815	1.60776e+02	8.15000e+02	2.96271e+00	1.61667e+02
817	1.61447e+02	8.17000e+02	2.96266e+00	1.62333e+02
819	1.62116e+02	8.19000e+02	2.96261e+00	1.63000e+02
821	1.62804e+02	8.21000e+02	2.96255e+00	1.63667e+02
823	1.63464e+02	8.23000e+02	2.96250e+00	1.64333e+02
825	1.64138e+02	8.25000e+02	2.96247e+00	1.65000e+02
827	1.64806e+02	8.27000e+02	2.96245e+00	1.65667e+02
829	1.65486e+02	8.29000e+02	2.96244e+00	1.66333e+02
831	1.66170e+02	8.31000e+02	2.96241e+00	1.67000e+02
833	1.66847e+02	8.33000e+02	2.96237e+00	1.67667e+02
835	1.67510e+02	8.35000e+02	2.96233e+00	1.68333e+02
837	1.68182e+02	8.37000e+02	2.96230e+00	1.69000e+02
839	1.68863e+02	8.39000e+02	2.96227e+00	1.69667e+02
841	1.69541e+02	8.41000e+02	2.96224e+00	1.70333e+02
843	1.70211e+02	8.43000e+02	2.96221e+00	1.71000e+02
845	1.70904e+02	8.45000e+02	2.96215e+00	1.71667e+02
847	1.71567e+02	8.47000e+02	2.96208e+00	1.72333e+02
849	1.72251e+02	8.49000e+02	2.96199e+00	1.73000e+02
851	1.72927e+02	8.51000e+02	2.96189e+00	1.73667e+02
853	1.73595e+02	8.53000e+02	2.96178e+00	1.74333e+02
855	1.74273e+02	8.55000e+02	2.96166e+00	1.75000e+02
857	1.74945e+02	8.57000e+02	2.96153e+00	1.75667e+02
859	1.75627e+02	8.59000e+02	2.96140e+00	1.76333e+02
861	1.76300e+02	8.61000e+02	2.96126e+00	1.77000e+02
863	1.76979e+02	8.63000e+02	2.96113e+00	1.77667e+02
865	1.77647e+02	8.65000e+02	2.96101e+00	1.78333e+02
867	1.78330e+02	8.67000e+02	2.96089e+00	1.79000e+02
869	1.79004e+02	8.69000e+02	2.96078e+00	1.79667e+02
871	1.79675e+02	8.71000e+02	2.96066e+00	1.80333e+02
873	1.80348e+02	8.73000e+02	2.96051e+00	1.81000e+02
875	1.81020e+02	8.75000e+02	2.96035e+00	1.81667e+02
877	1.81707e+02	8.77000e+02	2.96018e+00	1.82333e+02
879	1.82392e+02	8.79000e+02	2.96001e+00	1.83000e+02
881	1.83057e+02	8.81000e+02	2.95984e+00	1.83667e+02
883	1.83748e+02	8.83000e+02	2.95967e+00	1.84333e+02
885	1.84413e+02	8.85000e+02	2.95947e+00	1.85000e+02
887	1.85097e+02	8.87000e+02	2.95925e+00	1.85667e+02
889	1.85772e+02	8.89000e+02	2.95896e+00	1.86333e+02
891	1.86463e+02	8.91000e+02	2.95868e+00	1.87000e+02
893	1.87138e+02	8.93000e+02	2.95835e+00	1.87667e+02
895	1.87813e+02	8.95000e+02	2.95805e+00	1.88333e+02
897	1.88485e+02	8.97000e+02	2.95773e+00	1.89000e+02
899	1.89164e+02	8.99000e+02	2.95741e+00	1.89667e+02
901	1.89846e+02	9.01000e+02	2.95707e+00	1.90333e+02
903	1.90520e+02	9.03000e+02	2.95674e+00	1.91000e+02
905	1.91208e+02	9.05000e+02	2.95638e+00	1.91667e+02
907	1.91888e+02	9.07000e+02	2.95602e+00	1.92333e+02
909	1.92567e+02	9.09000e+02	2.95561e+00	1.93000e+02
911	1.93245e+02	9.11000e+02	2.95520e+00	1.93667e+02
913	1.93929e+02	9.13000e+02	2.95476e+00	1.94333e+02
915	1.94607e+02	9.15000e+02	2.95431e+00	1.95000e+02
917	1.95283e+02	9.17000e+02	2.95381e+00	1.95667e+02
919	1.95964e+02	9.19000e+02	2.95330e+00	1.96333e+02
921	1.96650e+02	9.21000e+02	2.95275e+00	1.97000e+02
923	1.97327e+02	9.23000e+02	2.95222e+00	1.97667e+02
925	1.98004e+02	9.25000e+02	2.95167e+00	1.98333e+02
927	1.98699e+02	9.27000e+02	2.95112e+00	1.99000e+02
929	1.99387e+02	9.29000e+02	2.95057e+00	1.99667e+02
931	2.00055e+02	9.31000e+02	2.95001e+00	2.00333e+02
933	2.00730e+02	9.33000e+02	2.94944e+00	2.01000e+02
935	2.01418e+02	9.35000e+02	2.94886e+00	2.01667e+02
937	2.02097e+02	9.37000e+02	2.94825e+00	2.02333e+02
939	2.02778e+02	9.39000e+02	2.94765e+00	2.03000e+02
941	2.03440e+02	9.41000e+02	2.94704e+00	2.03667e+02
943	2.04127e+02	9.43000e+02	2.94644e+00	2.04333e+02
945	2.04816e+02	9.45000e+02	2.94583e+00	2.05000e+02
947	2.05485e+02	9.47000e+02	2.94522e+00	2.05667e+02
949	2.06163e+02	9.49000e+02	2.94458e+00	2.06333e+02
951	2.06858e+02	9.51000e+02	2.94394e+00	2.07000e+02
953	2.07532e+02	9.53000e+02	2.94327e+00	2.07667e+02
955	2.08221e+02	9.55000e+02	2.94262e+00	2.08333e+02
957	2.08885e+02	9.57000e+02	2.94198e+00	2.09000e+02
959	2.09580e+02	9.59000e+02	2.94134e+00	2.09667e+02
961	2.10255e+02	9.61000e+02	2.94069e+00	2.10333e+02
963	2.10928e+02	9.63000e+02	2.94003e+00	2.11000e+02
965	2.11615e+02	9.65000e+02	2.93936e+00	2.11667e+02
967	2.12300e+02	9.67000e+02	2.93868e+00	2.12333e+02
969	2.12982e+02	9.69000e+02	2.93800e+00	2.13000e+02
971	2.13661e+02	9.71000e+02	2.93734e+00	2.13667e+02
973	2.14335e+02	9.73000e+02	2.93670e+00	2.14333e+02
975	2.15031e+02	9.75000e+02	2.93607e+00	2.15000e+02
977	2.15708e+02	9.77000e+02	2.93544e+00	2.15667e+02
979	2.16379e+02	9.79000e+02	2.93479e+00	2.16333e+02
981	2.17054e+02	9.81000e+02	2.93413e+00	2.17000e+02
983	2.17737e+02	9.83000e+02	2.93346e+00	2.17667e+02
985	2.18422e+02	9.85000e+02	2.93278e+00	2.18333e+02
987	2.19112e+02	9.87000e+02	2.93211e+00	2.19000e+02
989	2.19777e+02	9.89000e+02	2.93143e+00	2.19667e+02
991	2.20460e+02	9.91000e+02	2.93077e+00	2.20333e+02
993	2.21129e+02	9.93000e+02	2.93012e+00	2.21000e+02
995	2.21813e+02	9.95000e+02	2.92947e+00	2.21667e+02
997	2.22488e+02	9.97000e+02	2.92883e+00	2.22333e+02
999	2.23158e+02	9.99000e+02	2.92816e+00	2.23000e+02
1001	2.23844e+02	1.00100e+03	2.92745e+00	2.23667e+02
1003	2.24513e+02	1.00300e+03	2.92673e+00	2.24333e+02
1005	2.25189e+02	1.00500e+03	2.92598e+00	2.25000e+02
1007	2.25859e+02	1.00700e+03	2.92523e+00	2.25667e+02
1009	2.26530e+02	1.00900e+03	2.92447e+00	2.26333e+02
1011	2.27236e+02	1.01100e+03	2.92373e+00	2.27000e+02
1013	2.27934e+02	1.01300e+03	2.92299e+00	2.27667e+02
1015	2.28613e+02	1.01500e+03	2.92226e+00	2.28333e+02
1017	2.29291e+02	1.01700e+03	2.92155e+00	2.29000e+02
1019	2.29955e+02	1.01900e+03	2.92084e+00	2.29667e+02
1021	2.30642e+02	1.02100e+03	2.92014e+00	2.30333e+02
1023	2.31327e+02	1.02300e+03	2.91941e+00	2.31000e+02
1025	2.32002e+02	1.02500e+03	2.91866e+00	2.31667e+02
1027	2.32705e+02	1.02700e+03	2.91792e+00	2.32333e+02
1029	2.33366e+02	1.02900e+03	2.91719e+00	2.33000e+02
1031	2.34038e+02	1.03100e+03	2.91647e+00	2.33667e+02
1033	2.34727e+02	1.03300e+03	2.91574e+00	2.34333e+02
1035	2.35383e+02	1.03500e+03	2.91500e+00	2.35000e+02
1037	2.36053e+02	1.03700e+03	2.91424e+00	2.35667e+02
1039	2.36722e+02	1.03900e+03	2.91347e+00	2.36333e+02
1041	2.37399e+02	1.04100e+03	2.91269e+00	2.37000e+02
1043	2.38066e+02	1.04300e+03	2.91193e+00	2.37667e+02
1045	2.38746e+02	1.04500e+03	2.91117e+00	2.38333e+02
1047	2.39433e+02	1.04700e+03	2.91041e+00	2.39000e+02
1049	2.40097e+02	1.04900e+03	2.90965e+00	2.39667e+02
1051	2.40778e+02	1.05100e+03	2.90888e+00	2.40333e+02
1053	2.41449e+02	1.05300e+03	2.90812e+00	2.41000e+02
1055	2.42138e+02	1.05500e+03	2.90737e+00	2.41667e+02
1057	2.42822e+02	1.05700e+03	2.90661e+00	2.42333e+02
1059	2.43509e+02	1.05900e+03	2.90585e+00	2.43000e+02
1061	2.44227e+02	1.06100e+03	2.90507e+00	2.43667e+02
1063	2.44894e+02	1.06300e+03	2.90429e+00	2.44333e+02
1065	2.45561e+02	1.06500e+03	2.90347e+00	2.45000e+02
1067	2.46246e+02	1.06700e+03	2.90263e+00	2.45667e+02
1069	2.46925e+02	1.06900e+03	2.90178e+00	2.46333e+02
1071	2.47610e+02	1.07100e+03	2.90096e+00	2.47000e+02
1073	2.48265e+02	1.07300e+03	2.90018e+00	2.47667e+02
1075	2.48945e+02	1.07500e+03	2.89940e+00	2.48333e+02
1077	2.49631e+02	1.07700e+03	2.89864e+00	2.49000e+02
1079	2.50314e+02	1.07900e+03	2.89785e+00	2.49667e+02
1081	2.50998e+02	1.08100e+03	2.89704e+00	2.50333e+02
1083	2.51665e+02	1.08300e+03	2.89623e+00	2.51000e+02
1085	2.52347e+02	1.08500e+03	2.89542e+00	2.51667e+02
1087	2.53016e+02	1.08700e+03	2.89460e+00	2.52333e+02
1089	2.53691e+02	1.08900e+03	2.89379e+00	2.53000e+02
1091	2.54361e+02	1.09100e+03	2.89297e+00	2.53667e+02
1093	2.55041e+02	1.09300e+03	2.89215e+00	2.54333e+02
1095	2.55705e+02	1.09500e+03	2.89133e+00	2.55000e+02
1097	2.56385e+02	1.09700e+03	2.89051e+00	2.55667e+02
1099	2.57064e+02	1.09900e+03	2.88970e+00	2.56333e+02
1101	2.57735e+02	1.10100e+03	2.88891e+00	2.57000e+02
1103	2.58423e+02	1.10300e+03	2.88812e+00	2.57667e+02
1105	2.59094e+02	1.10500e+03	2.88733e+00	2.58333e+02
1107	2.59762e+02	1.10700e+03	2.88652e+00	2.59000e+02
1109	2.60442e+02	1.10900e+03	2.88570e+00	2.59667e+02
1111	2.61141e+02	1.11100e+03	2.88487e+00	2.60333e+02
1113	2.61818e+02	1.11300e+03	2.88405e+00	2.61000e+02
1115	2.62487e+02	1.11500e+03	2.88323e+00	2.61667e+02
1117	2.63145e+02	1.11700e+03	2.88243e+00	2.62333e+02
1119	2.63835e+02	1.11900e+03	2.88163e+00	2.63000e+02
1121	2.64512e+02	1.12100e+03	2.88084e+00	2.63667e+02
1123	2.65182e+02	1.12300e+03	2.88004e+00	2.64333e+02
1125	2.65868e+02	1.12500e+03	2.87925e+00	2.65000e+02
1127	2.66538e+02	1.12700e+03	2.87844e+00	2.65667e+02
1129	2.67218e+02	1.12900e+03	2.87763e+00	2.66333e+02
1131	2.67905e+02	1.13100e+03	2.87683e+00	2.67000e+02
1133	2.68585e+02	1.13300e+03	2.87604e+00	2.67667e+02
1135	2.69257e+02	1.13500e+03	2.87524e+00	2.68333e+02
1137	2.69947e+02	1.13700e+03	2.87443e+00	2.69000e+02
1139	2.70613e+02	1.13900e+03	2.87362e+00	2.69667e+02
1141	2.71282e+02	1.14100e+03	2.87279e+00	2.70333e+02
1143	2.71970e+02	1.14300e+03	2.87196e+00	2.71000e+02
1145	2.72675e+02	1.14500e+03	2.87112e+00	2.71667e+02
1147	2.73394e+02	1.14700e+03	2.87029e+00	2.72333e+02
1149	2.74104e+02	1.14900e+03	2.86944e+00	2.73000e+02
1151	2.74811e+02	1.15100e+03	2.86860e+00	2.73667e+02
1153	2.75531e+02	1.15300e+03	2.86775e+00	2.74333e+02
1155	2.76295e+02	1.15500e+03	2.86691e+00	2.75000e+02
1157	2.76992e+02	1.15700e+03	2.86607e+00	2.75667e+02
1159	2.77673e+02	1.15900e+03	2.86522e+00	2.76333e+02
1161	2.78354e+02	1.16100e+03	2.86436e+00	2.77000e+02
1163	2.79058e+02	1.16300e+03	2.86351e+00	2.77667e+02
1165	2.79738e+02	1.16500e+03	2.86264e+00	2.78333e+02
1167	2.80416e+02	1.16700e+03	2.86174e+00	2.79000e+02
1169	2.81095e+02	1.16900e+03	2.86082e+00	2.79667e+02
1171	2.81770e+02	1.17100e+03	2.85990e+00	2.80333e+02
1173	2.82464e+02	1.17300e+03	2.85897e+00	2.81000e+02
1175	2.83130e+02	1.17500e+03	2.85804e+00	2.81667e+02
1177	2.83784e+02	1.17700e+03	2.85710e+00	2.82333e+02
1179	2.84448e+02	1.17900e+03	2.85616e+00	2.83000e+02
1181	2.85098e+02	1.18100e+03	2.85519e+00	2.83667e+02
1183	2.85785e+02	1.18300e+03	2.85422e+00	2.84333e+02
1185	2.86458e+02	1.18500e+03	2.85323e+00	2.85000e+02
1187	2.87099e+02	1.18700e+03	2.85223e+00	2.85667e+02
1189	2.87744e+02	1.18900e+03	2.85120e+00	2.86333e+02
1191	2.88382e+02	1.19100e+03	2.85017e+00	2.87000e+02
1193	2.89059e+02	1.19300e+03	2.84911e+00	2.87667e+02
1195	2.89725e+02	1.19500e+03	2.84804e+00	2.88333e+02
1197	2.90406e+02	1.19700e+03	2.84693e+00	2.89000e+02
1199	2.91072e+02	1.19900e+03	2.84581e+00	2.89667e+02
1201	2.91727e+02	1.20100e+03	2.84463e+00	2.90333e+02
1203	2.92418e+02	1.20300e+03	2.84343e+00	2.91000e+02
1205	2.93106e+02	1.20500e+03	2.84216e+00	2.91667e+02
1207	2.93768e+02	1.20700e+03	2.84090e+00	2.92333e+02
1209	2.94418e+02	1.20900e+03	2.83960e+00	2.93000e+02
1211	2.95078e+02	1.21100e+03	2.83829e+00	2.93667e+02
1213	2.95737e+02	1.21300e+03	2.83695e+00	2.94333e+02
1215	2.96390e+02	1.21500e+03	2.83559e+00	2.95000e+02
1217	2.97028e+02	1.21700e+03	2.83418e+00	2.95667e+02
1219	2.97716e+02	1.21900e+03	2.83276e+00	2.96333e+02
1221	2.98389e+02	1.22100e+03	2.83130e+00	2.97000e+02
1223	2.99054e+02	1.22300e+03	2.82982e+00	2.97667e+02
1225	2.99729e+02	1.22500e+03	2.82827e+00	2.98333e+02
1227	3.00394e+02	1.22700e+03	2.82670e+00	2.99000e+02
1229	3.01076e+02	1.22900e+03	2.82506e+00	2.99667e+02
1231	3.01754e+02	1.23100e+03	2.82340e+00	3.00333e+02
1233	3.02431e+02	1.23300e+03	2.82169e+00	3.01000e+02
1235	3.03115e+02	1.23500e+03	2.81995e+00	3.01667e+02
1237	3.03805e+02	1.23700e+03	2.81815e+00	3.02333e+02
1239	3.04515e+02	1.23900e+03	2.81634e+00	3.03000e+02
1241	3.05231e+02	1.24100e+03	2.81445e+00	3.03667e+02
1243	3.05924e+02	1.24300e+03	2.81254e+00	3.04333e+02
1245	3.06648e+02	1.24500e+03	2.81056e+00	3.05000e+02
1247	3.07346e+02	1.24700e+03	2.80856e+00	3.05667e+02
1249	3.08026e+02	1.24900e+03	2.80652e+00	3.06333e+02
1251	3.08717e+02	1.25100e+03	2.80448e+00	3.07000e+02
1253	3.09404e+02	1.25300e+03	2.80240e+00	3.07667e+02
1255	3.10089e+02	1.25500e+03	2.80031e+00	3.08333e+02
1257	3.10779e+02	1.25700e+03	2.79819e+00	3.09000e+02
1259	3.11453e+02	1.25900e+03	2.79606e+00	3.09667e+02
1261	3.12178e+02	1.26100e+03	2.79390e+00	3.10333e+02
1263	3.12887e+02	1.26300e+03	2.79174e+00	3.11000e+02
1265	3.13575e+02	1.26500e+03	2.78954e+00	3.11667e+02
1267	3.14230e+02	1.26700e+03	2.78734e+00	3.12333e+02
1269	3.14872e+02	1.26900e+03	2.78510e+00	3.13000e+02
1271	3.15556e+02	1.27100e+03	2.78285e+00	3.13667e+02
1273	3.16263e+02	1.27300e+03	2.78056e+00	3.14333e+02
1275	3.16957e+02	1.27500e+03	2.77828e+00	3.15000e+02
1277	3.17635e+02	1.27700e+03	2.77597e+00	3.15667e+02
1279	3.18300e+02	1.27900e+03	2.77366e+00	3.16333e+02
1281	3.18964e+02	1.28100e+03	2.77133e+00	3.17000e+02
1283	3.19659e+02	1.28300e+03	2.76900e+00	3.17667e+02
1285	3.20298e+02	1.28500e+03	2.76664e+00	3.18333e+02
1287	3.20993e+02	1.28700e+03	2.76426e+00	3.19000e+02
1289	3.21701e+02	1.28900e+03	2.76183e+00	3.19667e+02
1291	3.22375e+02	1.29100e+03	2.75940e+00	3.20333e+02
1293	3.23046e+02	1.29300e+03	2.75691e+00	3.21000e+02
1295	3.23703e+02	1.29500e+03	2.75442e+00	3.21667e+02
1297	3.24378e+02	1.29700e+03	2.75191e+00	3.22333e+02
1299	3.25066e+02	1.29900e+03	2.74940e+00	3.23000e+02
1301	3.25731e+02	1.30100e+03	2.74685e+00	3.23667e+02
1303	3.26390e+02	1.30300e+03	2.74427e+00	3.24333e+02
1305	3.27062e+02	1.30500e+03	2.74161e+00	3.25000e+02
1307	3.27711e+02	1.30700e+03	2.73892e+00	3.25667e+02
1309	3.28391e+02	1.30900e+03	2.73614e+00	3.26333e+02
1311	3.29041e+02	1.31100e+03	2.73334e+00	3.27000e+02
1313	3.29695e+02	1.31300e+03	2.73043e+00	3.27667e+02
1315	3.30356e+02	1.31500e+03	2.72746e+00	3.28333e+02
1317	3.31036e+02	1.31700e+03	2.72436e+00	3.29000e+02
1319	3.31712e+02	1.31900e+03	2.72122e+00	3.29667e+02
1321	3.32378e+02	1.32100e+03	2.71792e+00	3.30333e+02
1323	3.33107e+02	1.32300e+03	2.71457e+00	3.31000e+02
1325	3.33792e+02	1.32500e+03	2.71103e+00	3.31667e+02
1327	3.34499e+02	1.32700e+03	2.70744e+00	3.32333e+02
1329	3.35170e+02	1.32900e+03	2.70365e+00	3.33000e+02
1331	3.35883e+02	1.33100e+03	2.69981e+00	3.33667e+02
1333	3.36568e+02	1.33300e+03	2.69574e+00	3.34333e+02
1335	3.37222e+02	1.33500e+03	2.69161e+00	3.35000e+02
1337	3.37918e+02	1.33700e+03	2.68723e+00	3.35667e+02
1339	3.38579e+02	1.33900e+03	2.68277e+00	3.36333e+02
1341	3.39247e+02	1.34100e+03	2.67804e+00	3.37000e+02
1343	3.39915e+02	1.34300e+03	2.67322e+00	3.37667e+02
1345	3.40536e+02	1.34500e+03	2.66809e+00	3.38333e+02
1347	3.41160e+02	1.34700e+03	2.66287e+00	3.39000e+02
1349	3.41830e+02	1.34900e+03	2.65729e+00	3.39667e+02
1351	3.42483e+02	1.35100e+03	2.65162e+00	3.40333e+02
1353	3.43172e+02	1.35300e+03	2.64554e+00	3.41000e+02
1355	3.43809e+02	1.35500e+03	2.63936e+00	3.41667e+02
1357	3.44452e+02	1.35700e+03	2.63273e+00	3.42333e+02
1359	3.45120e+02	1.35900e+03	2.62597e+00	3.43000e+02
1361	3.45779e+02	1.36100e+03	2.61873e+00	3.43667e+02
1363	3.46409e+02	1.36300e+03	2.61136e+00	3.44333e+02
1365	3.47079e+02	1.36500e+03	2.60345e+00	3.45000e+02
1367	3.47712e+02	1.36700e+03	2.59537e+00	3.45667e+02
1369	3.48356e+02	1.36900e+03	2.58668e+00	3.46333e+02
1371	3.49006e+02	1.37100e+03	2.57781e+00	3.47000e+02
1373	3.49682e+02	1.37300e+03	2.56826e+00	3.47667e+02
1375	3.50336e+02	1.37500e+03	2.55855e+00	3.48333e+02
1377	3.50956e+02	1.37700e+03	2.54813e+00	3.49000e+02
1379	3.51611e+02	1.37900e+03	2.53752e+00	3.49667e+02
1381	3.52271e+02	1.38100e+03	2.52618e+00	3.50333e+02
1383	3.52897e+02	1.38300e+03	2.51464e+00	3.51000e+02
1385	3.53544e+02	1.38500e+03	2.50232e+00	3.51667e+02
1387	3.54201e+02	1.38700e+03	2.48978e+00	3.52333e+02
1389	3.54844e+02	1.38900e+03	2.47638e+00	3.53000e+02
1391	3.55487e+02	1.39100e+03	2.46267e+00	3.53667e+02
1393	3.56147e+02	1.39300e+03	2.44786e+00	3.54333e+02
1395	3.56804e+02	1.39500e+03	2.43267e+00	3.55000e+02
1397	3.57463e+02	1.39700e+03	2.41625e+00	3.55667e+02
1399	3.58113e+02	1.39900e+03	2.39962e+00	3.56333e+02
1401	3.58784e+02	1.40100e+03	2.38185e+00	3.57000e+02
1403	3.59449e+02	1.40300e+03	2.36379e+00	3.57667e+02
1405	3.60137e+02	1.40500e+03	2.34448e+00	3.58333e+02
1407	3.60797e+02	1.40700e+03	2.32482e+00	3.59000e+02
1409	3.61448e+02	1.40900e+03	2.30382e+00	3.59667e+02
1411	3.62089e+02	1.41100e+03	2.28255e+00	3.60333e+02
1413	3.62734e+02	1.41300e+03	2.26007e+00	3.61000e+02
1415	3.63387e+02	1.41500e+03	2.23735e+00	3.61667e+02
1417	3.64063e+02	1.41700e+03	2.21350e+00	3.62333e+02
1419	3.64720e+02	1.41900e+03	2.18937e+00	3.63000e+02
1421	3.65370e+02	1.42100e+03	2.16404e+00	3.63667e+02
1423	3.66019e+02	1.42300e+03	2.13833e+00	3.64333e+02
1425	3.66664e+02	1.42500e+03	2.11116e+00	3.65000e+02
1427	3.67315e+02	1.42700e+03	2.08349e+00	3.65667e+02
1429	3.67967e+02	1.42900e+03	2.05425e+00	3.66333e+02
1431	3.68614e+02	1.43100e+03	2.02474e+00	3.67000e+02
1433	3.69261e+02	1.43300e+03	1.99394e+00	3.67667e+02
1435	3.69910e+02	1.43500e+03	1.96304e+00	3.68333e+02
1437	3.70550e+02	1.43700e+03	1.93126e+00	3.69000e+02
1439	3.71193e+02	1.43900e+03	1.89943e+00	3.69667e+02
1441	3.71839e+02	1.44100e+03	1.86696e+00	3.70333e+02
1443	3.72494e+02	1.44300e+03	1.83433e+00	3.71000e+02
1445	3.73156e+02	1.44500e+03	1.80103e+00	3.71667e+02
1447	3.73824e+02	1.44700e+03	1.76761e+00	3.72333e+02
1449	3.74472e+02	1.44900e+03	1.73366e+00	3.73000e+02
1451	3.75137e+02	1.45100e+03	1.69970e+00	3.73667e+02
1453	3.75815e+02	1.45300e+03	1.66543e+00	3.74333e+02
1455	3.76478e+02	1.45500e+03	1.63116e+00	3.75000e+02
1457	3.77135e+02	1.45700e+03	1.59669e+00	3.75667e+02
1459	3.77806e+02	1.45900e+03	1.56220e+00	3.76333e+02
1461	3.78477e+02	1.46100e+03	1.52748e+00	3.77000e+02
1463	3.79128e+02	1.46300e+03	1.49269e+00	3.77667e+02
1465	3.79790e+02	1.46500e+03	1.45774e+00	3.78333e+02
1467	3.80479e+02	1.46700e+03	1.42289e+00	3.79000e+02
1469	3.81231e+02	1.46900e+03	1.38813e+00	3.79667e+02
1471	3.81906e+02	1.47100e+03	1.35340e+00	3.80333e+02
1473	3.82623e+02	1.47300e+03	1.31881e+00	3.81000e+02
1475	3.83258e+02	1.47500e+03	1.28422e+00	3.81667e+02
1477	3.83920e+02	1.47700e+03	1.24965e+00	3.82333e+02
1479	3.84561e+02	1.47900e+03	1.21503e+00	3.83000e+02
1481	3.85229e+02	1.48100e+03	1.18041e+00	3.83667e+02
1483	3.85874e+02	1.48300e+03	1.14585e+00	3.84333e+02
1485	3.86564e+02	1.48500e+03	1.11128e+00	3.85000e+02
1487	3.87234e+02	1.48700e+03	1.07650e+00	3.85667e+02
1489	3.87890e+02	1.48900e+03	1.04125e+00	3.86333e+02
1491	3.88557e+02	1.49100e+03	1.00578e+00	3.87000e+02
1493	3.89242e+02	1.49300e+03	9.69879e-01	3.87667e+02
1495	3.89910e+02	1.49500e+03	9.34216e-01	3.88333e+02
1497	3.90555e+02	1.49700e+03	8.98708e-01	3.89000e+02
1499	3.91204e+02	1.49900e+03	8.63347e-01	3.89667e+02
1501	3.91860e+02	1.50100e+03	8.28360e-01	3.90333e+02
1503	3.92528e+02	1.50300e+03	7.93551e-01	3.91000e+02
1505	3.93182e+02	1.50500e+03	7.59351e-01	3.91667e+02
1507	3.93875e+02	1.50700e+03	7.25519e-01	3.92333e+02
1509	3.94521e+02	1.50900e+03	6.92762e-01	3.93000e+02
1511	3.95182e+02	1.51100e+03	6.60417e-01	3.93667e+02
1513	3.95818e+02	1.51300e+03	6.29391e-01	3.94333e+02
1515	3.96477e+02	1.51500e+03	5.98658e-01	3.95000e+02
1517	3.97123e+02	1.51700e+03	5.69268e-01	3.95667e+02
1519	3.97779e+02	1.51900e+03	5.40221e-01	3.96333e+02
1521	3.98440e+02	1.52100e+03	5.12586e-01	3.97000e+02
1523	3.99106e+02	1.52300e+03	4.85313e-01	3.97667e+02
1525	3.99784e+02	1.52500e+03	4.59525e-01	3.98333e+02
1527	4.00441e+02	1.52700e+03	4.34094e-01	3.99000e+02
1529	4.01109e+02	1.52900e+03	4.10146e-01	3.99667e+02
1531	4.01787e+02	1.53100e+03	3.86556e-01	4.00333e+02
1533	4.02468e+02	1.53300e+03	3.64479e-01	4.01000e+02
1535	4.03167e+02	1.53500e+03	3.42801e-01	4.01667e+02
1537	4.03848e+02	1.53700e+03	3.22726e-01	4.02333e+02
1539	4.04553e+02	1.53900e+03	3.03043e-01	4.03000e+02
1541	4.05224e+02	1.54100e+03	2.84987e-01	4.03667e+02
1543	4.05936e+02	1.54300e+03	2.67296e-01	4.04333e+02
1545	4.06624e+02	1.54500e+03	2.51185e-01	4.05000e+02
1547	4.07301e+02	1.54700e+03	2.35412e-01	4.05667e+02
1549	4.07958e+02	1.54900e+03	2.21126e-01	4.06333e+02
1551	4.08621e+02	1.55100e+03	2.07142e-01	4.07000e+02
1553	4.09303e+02	1.55300e+03	1.94539e-01	4.07667e+02
1555	4.09974e+02	1.55500e+03	1.82221e-01	4.08333e+02
1557	4.10663e+02	1.55700e+03	1.71178e-01	4.09000e+02
1559	4.11340e+02	1.55900e+03	1.60381e-01	4.09667e+02
1561	4.11999e+02	1.56100e+03	1.50751e-01	4.10333e+02
1563	4.12692e+02	1.56300e+03	1.41367e-01	4.11000e+02
1565	4.13377e+02	1.56500e+03	1.33073e-01	4.11667e+02
1567	4.14089e+02	1.56700e+03	1.24992e-01	4.12333e+02
1569	4.14768e+02	1.56900e+03	1.17895e-01	4.13000e+02
1571	4.15458e+02	1.57100e+03	1.10964e-01	4.13667e+02
1573	4.16119e+02	1.57300e+03	1.04882e-01	4.14333e+02
1575	4.16780e+02	1.57500e+03	9.89443e-02	4.15000e+02
1577	4.17466e+02	1.57700e+03	9.37491e-02	4.15667e+02
1579	4.18133e+02	1.57900e+03	8.86783e-02	4.16333e+02
1581	4.18794e+02	1.58100e+03	8.42427e-02	4.17000e+02
1583	4.19499e+02	1.58300e+03	7.98946e-02	4.17667e+02
1585	4.20177e+02	1.58500e+03	7.60606e-02	4.18333e+02
1587	4.20897e+02	1.58700e+03	7.23119e-02	4.19000e+02
1589	4.21571e+02	1.58900e+03	6.90007e-02	4.19667e+02
1591	4.22221e+02	1.59100e+03	6.57649e-02	4.20333e+02
1593	4.22884e+02	1.59300e+03	6.29134e-02	4.21000e+02
1595	4.23501e+02	1.59500e+03	6.01342e-02	4.21667e+02
1597	4.24137e+02	1.59700e+03	5.76955e-02	4.22333e+02
1599	4.24781e+02	1.59900e+03	5.53143e-02	4.23000e+02
1601	4.25433e+02	1.60100e+03	5.32189e-02	4.23667e+02
1603	4.26096e+02	1.60300e+03	5.11605e-02	4.24333e+02
1605	4.26721e+02	1.60500e+03	4.93283e-02	4.25000e+02
1607	4.27371e+02	1.60700e+03	4.75269e-02	4.25667e+02
1609	4.28012e+02	1.60900e+03	4.59049e-02	4.26333e+02
1611	4.28658e+02	1.61100e+03	4.43127e-02	4.27000e+02
1613	4.29337e+02	1.61300e+03	4.28897e-02	4.27667e+02
1615	4.29997e+02	1.61500e+03	4.15158e-02	4.28333e+02
1617	4.30677e+02	1.61700e+03	4.03125e-02	4.29000e+02
1619	4.31349e+02	1.61900e+03	3.91263e-02	4.29667e+02
1621	4.32002e+02	1.62100e+03	3.80611e-02	4.30333e+02
1623	4.32660e+02	1.62300e+03	3.70078e-02	4.31000e+02
1625	4.33311e+02	1.62500e+03	3.60494e-02	4.31667e+02
1627	4.33990e+02	1.62700e+03	3.51141e-02	4.32333e+02
1629	4.34658e+02	1.62900e+03	3.42735e-02	4.33000e+02
1631	4.35301e+02	1.63100e+03	3.34419e-02	4.33667e+02
1633	4.35970e+02	1.63300e+03	3.26724e-02	4.34333e+02
1635	4.36647e+02	1.63500e+03	3.19066e-02	4.35000e+02
1637	4.37328e+02	1.63700e+03	3.11933e-02	4.35667e+02
1639	4.37991e+02	1.63900e+03	3.04937e-02	4.36333e+02
1641	4.38607e+02	1.64100e+03	2.98505e-02	4.37000e+02
1643	4.39265e+02	1.64300e+03	2.92177e-02	4.37667e+02
1645	4.39905e+02	1.64500e+03	2.86366e-02	4.38333e+02
1647	4.40556e+02	1.64700e+03	2.80680e-02	4.39000e+02
1649	4.41189e+02	1.64900e+03	2.75488e-02	4.39667e+02
1651	4.41835e+02	1.65100e+03	2.70395e-02	4.40333e+02
1653	4.42513e+02	1.65300e+03	2.65864e-02	4.41000e+02
1655	4.43189e+02	1.65500e+03	2.61615e-02	4.41667e+02
1657	4.43826e+02	1.65700e+03	2.58077e-02	4.42333e+02
1659	4.44467e+02	1.65900e+03	2.54593e-02	4.43000e+02
1661	4.45144e+02	1.66100e+03	2.51632e-02	4.43667e+02
1663	4.45842e+02	1.66300e+03	2.48616e-02	4.44333e+02
1665	4.46509e+02	1.66500e+03	2.45917e-02	4.45000e+02
1667	4.47167e+02	1.66700e+03	2.43279e-02	4.45667e+02
1669	4.47836e+02	1.66900e+03	2.40962e-02	4.46333e+02
1671	4.48501e+02	1.67100e+03	2.38788e-02	4.47000e+02
1673	4.49146e+02	1.67300e+03	2.37014e-02	4.47667e+02
1675	4.49815e+02	1.67500e+03	2.35357e-02	4.48333e+02
1677	4.50486e+02	1.67700e+03	2.34240e-02	4.49000e+02
1679	4.51169e+02	1.67900e+03	2.33314e-02	4.49667e+02
1681	4.51860e+02	1.68100e+03	2.32813e-02	4.50333e+02
1683	4.52575e+02	1.68300e+03	2.32166e-02	4.51000e+02
1685	4.53294e+02	1.68500e+03	2.31555e-02	4.51667e+02
1687	4.53992e+02	1.68700e+03	2.30964e-02	4.52333e+02
1689	4.54768e+02	1.68900e+03	2.30429e-02	4.53000e+02
1691	4.55592e+02	1.69100e+03	2.29957e-02	4.53667e+02
1693	4.56340e+02	1.69300e+03	2.29647e-02	4.54333e+02
1695	4.57022e+02	1.69500e+03	2.29356e-02	4.55000e+02
1697	4.57759e+02	1.69700e+03	2.29112e-02	4.55667e+02
1699	4.58456e+02	1.69900e+03	2.28744e-02	4.56333e+02
1701	4.59136e+02	1.70100e+03	2.28203e-02	4.57000e+02
1703	4.59782e+02	1.70300e+03	2.27720e-02	4.57667e+02
1705	4.60413e+02	1.70500e+03	2.27305e-02	4.58333e+02
1707	4.61062e+02	1.70700e+03	2.27091e-02	4.59000e+02
1709	4.61735e+02	1.70900e+03	2.27157e-02	4.59667e+02
1711	4.62388e+02	1.71100e+03	2.27068e-02	4.60333e+02
1713	4.63037e+02	1.71300e+03	2.26832e-02	4.61000e+02
1715	4.63679e+02	1.71500e+03	2.26478e-02	4.61667e+02
1717	4.64340e+02	1.71700e+03	2.25805e-02	4.62333e+02
1719	4.64989e+02	1.71900e+03	2.25145e-02	4.63000e+02
1721	4.65653e+02	1.72100e+03	2.24490e-02	4.63667e+02
1723	4.66327e+02	1.72300e+03	2.24003e-02	4.64333e+02
1725	4.66995e+02	1.72500e+03	2.23754e-02	4.65000e+02
1727	4.67683e+02	1.72700e+03	2.23483e-02	4.65667e+02
1729	4.68343e+02	1.72900e+03	2.23311e-02	4.66333e+02
1731	4.68986e+02	1.73100e+03	2.23128e-02	4.67000e+02
1733	4.69627e+02	1.73300e+03	2.22987e-02	4.67667e+02
1735	4.70278e+02	1.73500e+03	2.22848e-02	4.68333e+02
1737	4.70909e+02	1.73700e+03	2.22665e-02	4.69000e+02
1739	4.71577e+02	1.73900e+03	2.22344e-02	4.69667e+02
1741	4.72222e+02	1.74100e+03	2.21978e-02	4.70333e+02
1743	4.72873e+02	1.74300e+03	2.21796e-02	4.71000e+02
1745	4.73529e+02	1.74500e+03	2.21839e-02	4.71667e+02
1747	4.74196e+02	1.74700e+03	2.21911e-02	4.72333e+02
1749	4.74873e+02	1.74900e+03	2.22023e-02	4.73000e+02
1751	4.75545e+02	1.75100e+03	2.21998e-02	4.73667e+02
1753	4.76190e+02	1.75300e+03	2.21765e-02	4.74333e+02
1755	4.76827e+02	1.75500e+03	2.21518e-02	4.75000e+02
1757	4.77468e+02	1.75700e+03	2.21130e-02	4.75667e+02
1759	4.78117e+02	1.75900e+03	2.20749e-02	4.76333e+02
1761	4.78740e+02	1.76100e+03	2.20332e-02	4.77000e+02
1763	4.79382e+02	1.76300e+03	2.19937e-02	4.77667e+02
1765	4.80041e+02	1.76500e+03	2.19582e-02	4.78333e+02
1767	4.80705e+02	1.76700e+03	2.19257e-02	4.79000e+02
1769	4.81356e+02	1.76900e+03	2.19026e-02	4.79667e+02
1771	4.82000e+02	1.77100e+03	2.18871e-02	4.80333e+02
1773	4.82649e+02	1.77300e+03	2.18838e-02	4.81000e+02
1775	4.83310e+02	1.77500e+03	2.18756e-02	4.81667e+02
1777	4.83945e+02	1.77700e+03	2.18679e-02	4.82333e+02
1779	4.84608e+02	1.77900e+03	2.18613e-02	4.83000e+02
1781	4.85266e+02	1.78100e+03	2.18478e-02	4.83667e+02
1783	4.85965e+02	1.78300e+03	2.18307e-02	4.84333e+02
1785	4.86633e+02	1.78500e+03	2.18020e-02	4.85000e+02
1787	4.87296e+02	1.78700e+03	2.17771e-02	4.85667e+02
1789	4.87959e+02	1.78900e+03	2.17588e-02	4.86333e+02
1791	4.88628e+02	1.79100e+03	2.17529e-02	4.87000e+02
1793	4.89324e+02	1.79300e+03	2.17592e-02	4.87667e+02
1795	4.90034e+02	1.79500e+03	2.17555e-02	4.88333e+02
1797	4.90707e+02	1.79700e+03	2.17440e-02	4.89000e+02
1799	4.91391e+02	1.79900e+03	2.17310e-02	4.89667e+02
1801	4.92061e+02	1.80100e+03	2.17154e-02	4.90333e+02
1803	4.92754e+02	1.80300e+03	2.17078e-02	4.91000e+02
1805	4.93434e+02	1.80500e+03	2.17109e-02	4.91667e+02
1807	4.94068e+02	1.80700e+03	2.17090e-02	4.92333e+02
1809	4.94688e+02	1.80900e+03	2.17005e-02	4.93000e+02
1811	4.95328e+02	1.81100e+03	2.16901e-02	4.93667e+02
1813	4.95970e+02	1.81300e+03	2.16762e-02	4.94333e+02
1815	4.96622e+02	1.81500e+03	2.16730e-02	4.95000e+02
1817	4.97223e+02	1.81700e+03	2.16777e-02	4.95667e+02
1819	4.97877e+02	1.81900e+03	2.16707e-02	4.96333e+02
1821	4.98516e+02	1.82100e+03	2.16415e-02	4.97000e+02
1823	4.99158e+02	1.82300e+03	2.16051e-02	4.97667e+02
1825	4.99772e+02	1.82500e+03	2.15562e-02	4.98333e+02
1827	5.00346e+02	1.82700e+03	2.15182e-02	4.99000e+02
1829	5.00935e+02	1.82900e+03	2.14931e-02	4.99667e+02
1831	5.01540e+02	1.83100e+03	2.14749e-02	5.00333e+02
1833	5.02164e+02	1.83300e+03	2.14695e-02	5.01000e+02
1835	5.02775e+02	1.83500e+03	2.14592e-02	5.01667e+02
1837	5.03360e+02	1.83700e+03	2.14414e-02	5.02333e+02
1839	5.03980e+02	1.83900e+03	2.14254e-02	5.03000e+02
1841	5.04614e+02	1.84100e+03	2.14170e-02	5.03667e+02
1843	5.05262e+02	1.84300e+03	2.14236e-02	5.04333e+02
1845	5.05909e+02	1.84500e+03	2.14523e-02	5.05000e+02
1847	5.06536e+02	1.84700e+03	2.14736e-02	5.05667e+02
1849	5.07175e+02	1.84900e+03	2.14893e-02	5.06333e+02
1851	5.07810e+02	1.85100e+03	2.14962e-02	5.07000e+02
1853	5.08436e+02	1.85300e+03	2.14831e-02	5.07667e+02
1855	5.09092e+02	1.85500e+03	2.14677e-02	5.08333e+02
1857	5.09723e+02	1.85700e+03	2.14423e-02	5.09000e+02
1859	5.10374e+02	1.85900e+03	2.14260e-02	5.09667e+02
1861	5.11019e+02	1.86100e+03	2.14155e-02	5.10333e+02
1863	5.11689e+02	1.86300e+03	2.14022e-02	5.11000e+02
1865	5.12387e+02	1.86500e+03	2.13964e-02	5.11667e+02
1867	5.13039e+02	1.86700e+03	2.13985e-02	5.12333e+02
1869	5.13724e+02	1.86900e+03	2.14143e-02	5.13000e+02
1871	5.14340e+02	1.87100e+03	2.14297e-02	5.13667e+02
1873	5.14982e+02	1.87300e+03	2.14504e-02	5.14333e+02
1875	5.15631e+02	1.87500e+03	2.14647e-02	5.15000e+02
1877	5.16265e+02	1.87700e+03	2.14704e-02	5.15667e+02
1879	5.16864e+02	1.87900e+03	2.14594e-02	5.16333e+02
1881	5.17449e+02	1.88100e+03	2.14174e-02	5.17000e+02
1883	5.18056e+02	1.88300e+03	2.13702e-02	5.17667e+02
1885	5.18687e+02	1.88500e+03	2.13046e-02	5.18333e+02
1887	5.19314e+02	1.88700e+03	2.12630e-02	5.19000e+02
1889	5.19929e+02	1.88900e+03	2.12489e-02	5.19667e+02
1891	5.20561e+02	1.89100e+03	2.12426e-02	5.20333e+02
1893	5.21186e+02	1.89300e+03	2.12547e-02	5.21000e+02
1895	5.21823e+02	1.89500e+03	2.12551e-02	5.21667e+02
1897	5.22464e+02	1.89700e+03	2.12516e-02	5.22333e+02
1899	5.23094e+02	1.89900e+03	2.12469e-02	5.23000e+02
1901	5.23741e+02	1.90100e+03	2.12346e-02	5.23667e+02
1903	5.24388e+02	1.90300e+03	2.12146e-02	5.24333e+02
1905	5.25036e+02	1.90500e+03	2.11893e-02	5.25000e+02
1907	5.25703e+02	1.90700e+03	2.11738e-02	5.25667e+02
1909	5.26355e+02	1.90900e+03	2.11661e-02	5.26333e+02
1911	5.27012e+02	1.91100e+03	2.11575e-02	5.27000e+02
1913	5.27648e+02	1.91300e+03	2.11531e-02	5.27667e+02
1915	5.28292e+02	1.91500e+03	2.11449e-02	5.28333e+02
1917	5.28950e+02	1.91700e+03	2.11309e-02	5.29000e+02
1919	5.29602e+02	1.91900e+03	2.11145e-02	5.29667e+02
1921	5.30262e+02	1.92100e+03	2.11008e-02	5.30333e+02
1923	5.30918e+02	1.92300e+03	2.10988e-02	5.31000e+02
1925	5.31574e+02	1.92500e+03	2.11068e-02	5.31667e+02
1927	5.32230e+02	1.92700e+03	2.11066e-02	5.32333e+02
1929	5.32871e+02	1.92900e+03	2.11082e-02	5.33000e+02
1931	5.33508e+02	1.93100e+03	2.11094e-02	5.33667e+02
1933	5.34135e+02	1.93300e+03	2.11047e-02	5.34333e+02
1935	5.34776e+02	1.93500e+03	2.10864e-02	5.35000e+02
1937	5.35418e+02	1.93700e+03	2.10576e-02	5.35667e+02
1939	5.36072e+02	1.93900e+03	2.10402e-02	5.36333e+02
1941	5.36710e+02	1.94100e+03	2.10299e-02	5.37000e+02
1943	5.37360e+02	1.94300e+03	2.10288e-02	5.37667e+02
1945	5.37998e+02	1.94500e+03	2.10468e-02	5.38333e+02
1947	5.38668e+02	1.94700e+03	2.10580e-02	5.39000e+02
1949	5.39322e+02	1.94900e+03	2.10630e-02	5.39667e+02
1951	5.39974e+02	1.95100e+03	2.10571e-02	5.40333e+02
1953	5.40614e+02	1.95300e+03	2.10388e-02	5.41000e+02
1955	5.41245e+02	1.95500e+03	2.10318e-02	5.41667e+02
1957	5.41877e+02	1.95700e+03	2.10382e-02	5.42333e+02
1959	5.42511e+02	1.95900e+03	2.10506e-02	5.43000e+02
1961	5.43143e+02	1.96100e+03	2.10715e-02	5.43667e+02
1963	5.43798e+02	1.96300e+03	2.10790e-02	5.44333e+02
1965	5.44445e+02	1.96500e+03	2.10758e-02	5.45000e+02
1967	5.45087e+02	1.96700e+03	2.10740e-02	5.45667e+02
1969	5.45720e+02	1.96900e+03	2.10660e-02	5.46333e+02
1971	5.46366e+02	1.97100e+03	2.10530e-02	5.47000e+02
1973	5.47007e+02	1.97300e+03	2.10365e-02	5.47667e+02
1975	5.47653e+02	1.97500e+03	2.10262e-02	5.48333e+02
1977	5.48306e+02	1.97700e+03	2.10244e-02	5.49000e+02
1979	5.48934e+02	1.97900e+03	2.10237e-02	5.49667e+02
1981	5.49583e+02	1.98100e+03	2.10171e-02	5.50333e+02
1983	5.50216e+02	1.98300e+03	2.10008e-02	5.51000e+02
1985	5.50856e+02	1.98500e+03	2.09741e-02	5.51667e+02
1987	5.51499e+02	1.98700e+03	2.09552e-02	5.52333e+02
1989	5.52141e+02	1.98900e+03	2.09364e-02	5.53000e+02
1991	5.52795e+02	1.99100e+03	2.09102e-02	5.53667e+02
1993	5.53439e+02	1.99300e+03	2.08770e-02	5.54333e+02
1995	5.54088e+02	1.99500e+03	2.08491e-02	5.55000e+02
1997	5.54729e+02	1.99700e+03	2.08326e-02	5.55667e+02
1999	5.55381e+02	1.99900e+03	2.08240e-02	5.56333e+02
2001	5.56018e+02	2.00100e+03	2.08435e-02	5.57000e+02
2003	5.56648e+02	2.00300e+03	2.08689e-02	5.57667e+02
2005	5.57300e+02	2.00500e+03	2.09051e-02	5.58333e+02
2007	5.57948e+02	2.00700e+03	2.09299e-02	5.59000e+02
2009	5.58590e+02	2.00900e+03	2.09388e-02	5.59667e+02
2011	5.59247e+02	2.01100e+03	2.09383e-02	5.60333e+02
2013	5.59902e+02	2.01300e+03	2.09152e-02	5.61000e+02
2015	5.60566e+02	2.01500e+03	2.08993e-02	5.61667e+02
2017	5.61215e+02	2.01700e+03	2.08801e-02	5.62333e+02
2019	5.61874e+02	2.01900e+03	2.08720e-02	5.63000e+02
2021	5.62527e+02	2.02100e+03	2.08905e-02	5.63667e+02
2023	5.63182e+02	2.02300e+03	2.09191e-02	5.64333e+02
2025	5.63846e+02	2.02500e+03	2.09689e-02	5.65000e+02
2027	5.64510e+02	2.02700e+03	2.10051e-02	5.65667e+02
2029	5.65157e+02	2.02900e+03	2.10238e-02	5.66333e+02
2031	5.65815e+02	2.03100e+03	2.10181e-02	5.67000e+02
2033	5.66474e+02	2.03300e+03	2.09692e-02	5.67667e+02
2035	5.67140e+02	2.03500e+03	2.09247e-02	5.68333e+02
2037	5.67794e+02	2.03700e+03	2.08840e-02	5.69000e+02
2039	5.68456e+02	2.03900e+03	2.08634e-02	5.69667e+02
2041	5.69119e+02	2.04100e+03	2.08610e-02	5.70333e+02
2043	5.69782e+02	2.04300e+03	2.08344e-02	5.71000e+02
2045	5.70442e+02	2.04500e+03	2.08010e-02	5.71667e+02
2047	5.71102e+02	2.04700e+03	2.07830e-02	5.72333e+02
2049	5.71770e+02	2.04900e+03	2.07730e-02	5.73000e+02
2051	5.72439e+02	2.05100e+03	2.07619e-02	5.73667e+02
2053	5.73093e+02	2.05300e+03	2.07598e-02	5.74333e+02
2055	5.73750e+02	2.05500e+03	2.07580e-02	5.75000e+02
2057	5.74391e+02	2.05700e+03	2.07562e-02	5.75667e+02
2059	5.75028e+02	2.05900e+03	2.07502e-02	5.76333e+02
2061	5.75683e+02	2.06100e+03	2.07463e-02	5.77000e+02
2063	5.76326e+02	2.06300e+03	2.07510e-02	5.77667e+02
2065	5.76983e+02	2.06500e+03	2.07621e-02	5.78333e+02
2067	5.77648e+02	2.06700e+03	2.07630e-02	5.79000e+02
2069	5.78308e+02	2.06900e+03	2.07540e-02	5.79667e+02
2071	5.78973e+02	2.07100e+03	2.07458e-02	5.80333e+02
2073	5.79646e+02	2.07300e+03	2.07224e-02	5.81000e+02
2075	5.80302e+02	2.07500e+03	2.06939e-02	5.81667e+02
2077	5.80965e+02	2.07700e+03	2.06597e-02	5.82333e+02
2079	5.81622e+02	2.07900e+03	2.06377e-02	5.83000e+02
2081	5.82302e+02	2.08100e+03	2.06281e-02	5.83667e+02
2083	5.82963e+02	2.08300e+03	2.06229e-02	5.84333e+02
2085	5.83637e+02	2.08500e+03	2.06248e-02	5.85000e+02
2087	5.84293e+02	2.08700e+03	2.06143e-02	5.85667e+02
2089	5.84964e+02	2.08900e+03	2.06030e-02	5.86333e+02
2091	5.85628e+02	2.09100e+03	2.06049e-02	5.87000e+02
2093	5.86310e+02	2.09300e+03	2.06212e-02	5.87667e+02
2095	5.86973e+02	2.09500e+03	2.06367e-02	5.88333e+02
2097	5.87650e+02	2.09700e+03	2.06443e-02	5.89000e+02
2099	5.88328e+02	2.09900e+03	2.06362e-02	5.89667e+02
2101	5.88983e+02	2.10100e+03	2.06096e-02	5.90333e+02
2103	5.89640e+02	2.10300e+03	2.05969e-02	5.91000e+02
2105	5.90315e+02	2.10500e+03	2.05856e-02	5.91667e+02
2107	5.90975e+02	2.10700e+03	2.05710e-02	5.92333e+02
2109	5.91655e+02	2.10900e+03	2.05423e-02	5.93000e+02
2111	5.92320e+02	2.11100e+03	2.05050e-02	5.93667e+02
2113	5.93020e+02	2.11300e+03	2.04561e-02	5.94333e+02
2115	5.93679e+02	2.11500e+03	2.04302e-02	5.95000e+02
2117	5.94357e+02	2.11700e+03	2.04319e-02	5.95667e+02
2119	5.95042e+02	2.11900e+03	2.04379e-02	5.96333e+02
2121	5.95751e+02	2.12100e+03	2.04678e-02	5.97000e+02
2123	5.96454e+02	2.12300e+03	2.04946e-02	5.97667e+02
2125	5.97156e+02	2.12500e+03	2.05302e-02	5.98333e+02
2127	5.97903e+02	2.12700e+03	2.05623e-02	5.99000e+02
2129	5.98646e+02	2.12900e+03	2.05862e-02	5.99667e+02
2131	5.99465e+02	2.13100e+03	2.05955e-02	6.00333e+02
2133	6.00197e+02	2.13300e+03	2.05815e-02	6.01000e+02
2135	6.00882e+02	2.13500e+03	2.05644e-02	6.01667e+02
2137	6.01738e+02	2.13700e+03	2.05288e-02	6.02333e+02
2139	6.02383e+02	2.13900e+03	2.04975e-02	6.03000e+02
2141	6.02943e+02	2.14100e+03	2.04752e-02	6.03667e+02
2143	6.03565e+02	2.14300e+03	2.04625e-02	6.04333e+02
2145	6.04152e+02	2.14500e+03	2.04635e-02	6.05000e+02
2147	6.04800e+02	2.14700e+03	2.04515e-02	6.05667e+02
2149	6.05472e+02	2.14900e+03	2.04212e-02	6.06333e+02
2151	6.06133e+02	2.15100e+03	2.03841e-02	6.07000e+02
2153	6.06792e+02	2.15300e+03	2.03338e-02	6.07667e+02
2155	6.07463e+02	2.15500e+03	2.03051e-02	6.08333e+02
2157	6.08105e+02	2.15700e+03	2.03166e-02	6.09000e+02
2159	6.08755e+02	2.15900e+03	2.03497e-02	6.09667e+02
2161	6.09401e+02	2.16100e+03	2.04296e-02	6.10333e+02
2163	6.10061e+02	2.16300e+03	2.04946e-02	6.11000e+02
2165	6.10715e+02	2.16500e+03	2.05572e-02	6.11667e+02
2167	6.11370e+02	2.16700e+03	2.06087e-02	6.12333e+02
2169	6.12037e+02	2.16900e+03	2.06423e-02	6.13000e+02
2171	6.12693e+02	2.17100e+03	2.06811e-02	6.13667e+02
2173	6.13353e+02	2.17300e+03	2.07213e-02	6.14333e+02
2175	6.13995e+02	2.17500e+03	2.07599e-02	6.15000e+02
2177	6.14645e+02	2.17700e+03	2.07802e-02	6.15667e+02
2179	6.15290e+02	2.17900e+03	2.07863e-02	6.16333e+02
2181	6.15948e+02	2.18100e+03	2.07726e-02	6.17000e+02
2183	6.16603e+02	2.18300e+03	2.07658e-02	6.17667e+02
2185	6.17269e+02	2.18500e+03	2.07408e-02	6.18333e+02
2187	6.17922e+02	2.18700e+03	2.07028e-02	6.19000e+02
2189	6.18578e+02	2.18900e+03	2.06500e-02	6.19667e+02
2191	6.19233e+02	2.19100e+03	2.06175e-02	6.20333e+02
2193	6.19911e+02	2.19300e+03	2.05961e-02	6.21000e+02
2195	6.20568e+02	2.19500e+03	2.05774e-02	6.21667e+02
2197	6.21226e+02	2.19700e+03	2.05800e-02	6.22333e+02
2199	6.21885e+02	2.19900e+03	2.05964e-02	6.23000e+02
2201	6.22549e+02	2.20100e+03	2.06350e-02	6.23667e+02
2203	6.23212e+02	2.20300e+03	2.06608e-02	6.24333e+02
2205	6.23873e+02	2.20500e+03	2.06747e-02	6.25000e+02
2207	6.24521e+02	2.20700e+03	2.06800e-02	6.25667e+02
2209	6.25186e+02	2.20900e+03	2.06710e-02	6.26333e+02
2211	6.25847e+02	2.21100e+03	2.06552e-02	6.27000e+02
2213	6.26516e+02	2.21300e+03	2.06192e-02	6.27667e+02
2215	6.27173e+02	2.21500e+03	2.05778e-02	6.28333e+02
2217	6.27845e+02	2.21700e+03	2.05218e-02	6.29000e+02
2219	6.28504e+02	2.21900e+03	2.04811e-02	6.29667e+02
2221	6.29175e+02	2.22100e+03	2.04573e-02	6.30333e+02
2223	6.29846e+02	2.22300e+03	2.04354e-02	6.31000e+02
2225	6.30508e+02	2.22500e+03	2.04325e-02	6.31667e+02
2227	6.31179e+02	2.22700e+03	2.04405e-02	6.32333e+02
2229	6.31847e+02	2.22900e+03	2.04663e-02	6.33000e+02
2231	6.32517e+02	2.23100e+03	2.04782e-02	6.33667e+02
2233	6.33189e+02	2.23300e+03	2.04745e-02	6.34333e+02
2235	6.33849e+02	2.23500e+03	2.04586e-02	6.35000e+02
2237	6.34525e+02	2.23700e+03	2.04132e-02	6.35667e+02
2239	6.35195e+02	2.23900e+03	2.03687e-02	6.36333e+02
2241	6.35858e+02	2.24100e+03	2.03255e-02	6.37000e+02
2243	6.36524e+02	2.24300e+03	2.03052e-02	6.37667e+02
2245	6.37192e+02	2.24500e+03	2.03192e-02	6.38333e+02
2247	6.37852e+02	2.24700e+03	2.03412e-02	6.39000e+02
2249	6.38514e+02	2.24900e+03	2.03692e-02	6.39667e+02
2251	6.39170e+02	2.25100e+03	2.03650e-02	6.40333e+02
2253	6.39860e+02	2.25300e+03	2.03261e-02	6.41000e+02
2255	6.40524e+02	2.25500e+03	2.03064e-02	6.41667e+02
2257	6.41195e+02	2.25700e+03	2.02998e-02	6.42333e+02
2259	6.41867e+02	2.25900e+03	2.03162e-02	6.43000e+02
2261	6.42513e+02	2.26100e+03	2.03680e-02	6.43667e+02
2263	6.43179e+02	2.26300e+03	2.04143e-02	6.44333e+02
2265	6.43827e+02	2.26500e+03	2.04589e-02	6.45000e+02
2267	6.44495e+02	2.26700e+03	2.04833e-02	6.45667e+02
2269	6.45147e+02	2.26900e+03	2.04905e-02	6.46333e+02
2271	6.45818e+02	2.27100e+03	2.05026e-02	6.47000e+02
2273	6.46470e+02	2.27300e+03	2.04948e-02	6.47667e+02
2275	6.47129e+02	2.27500e+03	2.04827e-02	6.48333e+02
2277	6.47767e+02	2.27700e+03	2.04654e-02	6.49000e+02
2279	6.48434e+02	2.27900e+03	2.04704e-02	6.49667e+02
2281	6.49076e+02	2.28100e+03	2.04940e-02	6.50333e+02
2283	6.49735e+02	2.28300e+03	2.05052e-02	6.51000e+02
2285	6.50393e+02	2.28500e+03	2.05137e-02	6.51667e+02
2287	6.51065e+02	2.28700e+03	2.05146e-02	6.52333e+02
2289	6.51722e+02	2.28900e+03	2.05020e-02	6.53000e+02
2291	6.52365e+02	2.29100e+03	2.04941e-02	6.53667e+02
2293	6.53021e+02	2.29300e+03	2.04987e-02	6.54333e+02
2295	6.53700e+02	2.29500e+03	2.05160e-02	6.55000e+02
2297	6.54351e+02	2.29700e+03	2.05454e-02	6.55667e+02
2299	6.55005e+02	2.29900e+03	2.05621e-02	6.56333e+02
2301	6.55630e+02	2.30100e+03	2.05784e-02	6.57000e+02
2303	6.56268e+02	2.30300e+03	2.05895e-02	6.57667e+02
2305	6.56910e+02	2.30500e+03	2.05958e-02	6.58333e+02
2307	6.57560e+02	2.30700e+03	2.05963e-02	6.59000e+02
2309	6.58230e+02	2.30900e+03	2.05882e-02	6.59667e+02
2311	6.58895e+02	2.31100e+03	2.05820e-02	6.60333e+02
2313	6.59592e+02	2.31300e+03	2.05817e-02	6.61000e+02
2315	6.60286e+02	2.31500e+03	2.05948e-02	6.61667e+02
2317	6.60970e+02	2.31700e+03	2.06275e-02	6.62333e+02
2319	6.61667e+02	2.31900e+03	2.06536e-02	6.63000e+02
2321	6.62388e+02	2.32100e+03	2.06558e-02	6.63667e+02
2323	6.63119e+02	2.32300e+03	2.06296e-02	6.64333e+02
2325	6.63845e+02	2.32500e+03	2.05665e-02	6.65000e+02
2327	6.64556e+02	2.32700e+03	2.05302e-02	6.65667e+02
2329	6.65261e+02	2.32900e+03	2.05022e-02	6.66333e+02
2331	6.66033e+02	2.33100e+03	2.04744e-02	6.67000e+02
2333	6.66721e+02	2.33300e+03	2.04658e-02	6.67667e+02
2335	6.67176e+02	2.33500e+03	2.04637e-02	6.68333e+02
2337	6.67756e+02	2.33700e+03	2.04823e-02	6.69000e+02
2339	6.68390e+02	2.33900e+03	2.04921e-02	6.69667e+02
2341	6.69035e+02	2.34100e+03	2.04945e-02	6.70333e+02
2343	6.69707e+02	2.34300e+03	2.04877e-02	6.71000e+02
2345	6.70369e+02	2.34500e+03	2.04619e-02	6.71667e+02
2347	6.71052e+02	2.34700e+03	2.04426e-02	6.72333e+02
2349	6.71736e+02	2.34900e+03	2.04297e-02	6.73000e+02
2351	6.72415e+02	2.35100e+03	2.04280e-02	6.73667e+02
2353	6.73075e+02	2.35300e+03	2.04417e-02	6.74333e+02
2355	6.73752e+02	2.35500e+03	2.04497e-02	6.75000e+02
2357	6.74435e+02	2.35700e+03	2.04566e-02	6.75667e+02
2359	6.75101e+02	2.35900e+03	2.04546e-02	6.76333e+02
2361	6.75778e+02	2.36100e+03	2.04391e-02	6.77000e+02
2363	6.76458e+02	2.36300e+03	2.04290e-02	6.77667e+02
2365	6.77130e+02	2.36500e+03	2.04185e-02	6.78333e+02
2367	6.77789e+02	2.36700e+03	2.04119e-02	6.79000e+02
2369	6.78464e+02	2.36900e+03	2.04020e-02	6.79667e+02
2371	6.79123e+02	2.37100e+03	2.03792e-02	6.80333e+02
2373	6.79789e+02	2.37300e+03	2.03346e-02	6.81000e+02
2375	6.80449e+02	2.37500e+03	2.02943e-02	6.81667e+02
2377	6.81125e+02	2.37700e+03	2.02534e-02	6.82333e+02
2379	6.81778e+02	2.37900e+03	2.02294e-02	6.83000e+02
2381	6.82450e+02	2.38100e+03	2.02241e-02	6.83667e+02
2383	6.83108e+02	2.38300e+03	2.02236e-02	6.84333e+02
2385	6.83784e+02	2.38500e+03	2.02418e-02	6.85000e+02
2387	6.84449e+02	2.38700e+03	2.02581e-02	6.85667e+02
2389	6.85115e+02	2.38900e+03	2.02635e-02	6.86333e+02
2391	6.85790e+02	2.39100e+03	2.02524e-02	6.87000e+02
2393	6.86445e+02	2.39300e+03	2.02284e-02	6.87667e+02
2395	6.87124e+02	2.39500e+03	2.02272e-02	6.88333e+02
2397	6.87795e+02	2.39700e+03	2.02436e-02	6.89000e+02
2399	6.88473e+02	2.39900e+03	2.02586e-02	6.89667e+02
2401	6.89149e+02	2.40100e+03	2.02887e-02	6.90333e+02
2403	6.89823e+02	2.40300e+03	2.03092e-02	6.91000e+02
2405	6.90287e+02	2.40500e+03	2.03141e-02	6.91667e+02
2407	6.90631e+02	2.40700e+03	2.03100e-02	6.92333e+02
2409	6.91132e+02	2.40900e+03	2.02941e-02	6.93000e+02
2411	6.91605e+02	2.41100e+03	2.02966e-02	6.93667e+02
2413	6.92058e+02	2.41300e+03	2.03130e-02	6.94333e+02
2415	6.92487e+02	2.41500e+03	2.03019e-02	6.95000e+02
2417	6.92892e+02	2.41700e+03	2.02811e-02	6.95667e+02
2419	6.93271e+02	2.41900e+03	2.02697e-02	6.96333e+02
2421	6.93636e+02	2.42100e+03	2.02705e-02	6.97000e+02
2423	6.93976e+02	2.42300e+03	2.02707e-02	6.97667e+02
2425	6.94327e+02	2.42500e+03	2.02716e-02	6.98333e+02
2427	6.94621e+02	2.42700e+03	2.02588e-02	6.99000e+02
2429	6.94900e+02	2.42900e+03	2.02313e-02	6.99667e+02
2430	6.95031e+02	2.43000e+03	2.02222e-02	7.00000e+02