File: Experiments/TUBS/tga_nonisotherm/tga_dynamic_n2_dyn30_piece_2mg_r2.txt
index	ts	t	weight	tr
[#]	[°C]	[s]	[mg]	[°C]
683	1.31187e+02	6.83000e+02	1.98244e+00	1.31500e+02
685	1.32201e+02	6.85000e+02	1.98239e+00	1.32500e+02
687	1.33215e+02	6.87000e+02	1.98234e+00	1.33500e+02
689	1.34216e+02	6.89000e+02	1.98232e+00	1.34500e+02
691	1.35231e+02	6.91000e+02	1.98230e+00	1.35500e+02
693	1.36240e+02	6.93000e+02	1.98228e+00	1.36500e+02
695	1.37247e+02	6.95000e+02	1.98223e+00	1.37500e+02
697	1.38258e+02	6.97000e+02	1.98216e+00	1.38500e+02
699	1.39277e+02	6.99000e+02	1.98209e+00	1.39500e+02
701	1.40268e+02	7.01000e+02	1.98203e+00	1.40500e+02
703	1.41303e+02	7.03000e+02	1.98198e+00	1.41500e+02
705	1.42303e+02	7.05000e+02	1.98194e+00	1.42500e+02
707	1.43306e+02	7.07000e+02	1.98190e+00	1.43500e+02
709	1.44319e+02	7.09000e+02	1.98186e+00	1.44500e+02
711	1.45326e+02	7.11000e+02	1.98181e+00	1.45500e+02
713	1.46346e+02	7.13000e+02	1.98176e+00	1.46500e+02
715	1.47354e+02	7.15000e+02	1.98171e+00	1.47500e+02
717	1.48358e+02	7.17000e+02	1.98167e+00	1.48500e+02
719	1.49363e+02	7.19000e+02	1.98163e+00	1.49500e+02
721	1.50372e+02	7.21000e+02	1.98160e+00	1.50500e+02
723	1.51379e+02	7.23000e+02	1.98155e+00	1.51500e+02
725	1.52401e+02	7.25000e+02	1.98149e+00	1.52500e+02
727	1.53403e+02	7.27000e+02	1.98146e+00	1.53500e+02
729	1.54421e+02	7.29000e+02	1.98144e+00	1.54500e+02
731	1.55430e+02	7.31000e+02	1.98141e+00	1.55500e+02
733	1.56447e+02	7.33000e+02	1.98136e+00	1.56500e+02
735	1.57462e+02	7.35000e+02	1.98128e+00	1.57500e+02
737	1.58466e+02	7.37000e+02	1.98117e+00	1.58500e+02
739	1.59460e+02	7.39000e+02	1.98107e+00	1.59500e+02
741	1.60485e+02	7.41000e+02	1.98096e+00	1.60500e+02
743	1.61496e+02	7.43000e+02	1.98086e+00	1.61500e+02
745	1.62502e+02	7.45000e+02	1.98078e+00	1.62500e+02
747	1.63533e+02	7.47000e+02	1.98071e+00	1.63500e+02
749	1.64532e+02	7.49000e+02	1.98067e+00	1.64500e+02
751	1.65547e+02	7.51000e+02	1.98061e+00	1.65500e+02
753	1.66555e+02	7.53000e+02	1.98054e+00	1.66500e+02
755	1.67574e+02	7.55000e+02	1.98046e+00	1.67500e+02
757	1.68585e+02	7.57000e+02	1.98035e+00	1.68500e+02
759	1.69605e+02	7.59000e+02	1.98025e+00	1.69500e+02
761	1.70608e+02	7.61000e+02	1.98014e+00	1.70500e+02
763	1.71644e+02	7.63000e+02	1.98004e+00	1.71500e+02
765	1.72631e+02	7.65000e+02	1.97994e+00	1.72500e+02
767	1.73642e+02	7.67000e+02	1.97985e+00	1.73500e+02
769	1.74656e+02	7.69000e+02	1.97978e+00	1.74500e+02
771	1.75675e+02	7.71000e+02	1.97972e+00	1.75500e+02
773	1.76684e+02	7.73000e+02	1.97968e+00	1.76500e+02
775	1.77701e+02	7.75000e+02	1.97963e+00	1.77500e+02
777	1.78696e+02	7.77000e+02	1.97955e+00	1.78500e+02
779	1.79722e+02	7.79000e+02	1.97945e+00	1.79500e+02
781	1.80734e+02	7.81000e+02	1.97932e+00	1.80500e+02
783	1.81747e+02	7.83000e+02	1.97921e+00	1.81500e+02
785	1.82758e+02	7.85000e+02	1.97909e+00	1.82500e+02
787	1.83772e+02	7.87000e+02	1.97897e+00	1.83500e+02
789	1.84789e+02	7.89000e+02	1.97886e+00	1.84500e+02
791	1.85794e+02	7.91000e+02	1.97871e+00	1.85500e+02
793	1.86826e+02	7.93000e+02	1.97853e+00	1.86500e+02
795	1.87840e+02	7.95000e+02	1.97834e+00	1.87500e+02
797	1.88858e+02	7.97000e+02	1.97812e+00	1.88500e+02
799	1.89863e+02	7.99000e+02	1.97791e+00	1.89500e+02
801	1.90897e+02	8.01000e+02	1.97768e+00	1.90500e+02
803	1.91922e+02	8.03000e+02	1.97745e+00	1.91500e+02
805	1.92927e+02	8.05000e+02	1.97721e+00	1.92500e+02
807	1.93934e+02	8.07000e+02	1.97694e+00	1.93500e+02
809	1.94948e+02	8.09000e+02	1.97664e+00	1.94500e+02
811	1.95942e+02	8.11000e+02	1.97632e+00	1.95500e+02
813	1.96961e+02	8.13000e+02	1.97598e+00	1.96500e+02
815	1.97976e+02	8.15000e+02	1.97564e+00	1.97500e+02
817	1.98989e+02	8.17000e+02	1.97530e+00	1.98500e+02
819	2.00020e+02	8.19000e+02	1.97497e+00	1.99500e+02
821	2.01034e+02	8.21000e+02	1.97462e+00	2.00500e+02
823	2.02044e+02	8.23000e+02	1.97425e+00	2.01500e+02
825	2.03063e+02	8.25000e+02	1.97385e+00	2.02500e+02
827	2.04081e+02	8.27000e+02	1.97345e+00	2.03500e+02
829	2.05086e+02	8.29000e+02	1.97303e+00	2.04500e+02
831	2.06103e+02	8.31000e+02	1.97259e+00	2.05500e+02
833	2.07125e+02	8.33000e+02	1.97213e+00	2.06500e+02
835	2.08139e+02	8.35000e+02	1.97164e+00	2.07500e+02
837	2.09157e+02	8.37000e+02	1.97112e+00	2.08500e+02
839	2.10173e+02	8.39000e+02	1.97059e+00	2.09500e+02
841	2.11206e+02	8.41000e+02	1.97004e+00	2.10500e+02
843	2.12226e+02	8.43000e+02	1.96950e+00	2.11500e+02
845	2.13249e+02	8.45000e+02	1.96896e+00	2.12500e+02
847	2.14288e+02	8.47000e+02	1.96843e+00	2.13500e+02
849	2.15305e+02	8.49000e+02	1.96793e+00	2.14500e+02
851	2.16314e+02	8.51000e+02	1.96742e+00	2.15500e+02
853	2.17354e+02	8.53000e+02	1.96693e+00	2.16500e+02
855	2.18387e+02	8.55000e+02	1.96644e+00	2.17500e+02
857	2.19420e+02	8.57000e+02	1.96597e+00	2.18500e+02
859	2.20436e+02	8.59000e+02	1.96549e+00	2.19500e+02
861	2.21460e+02	8.61000e+02	1.96500e+00	2.20500e+02
863	2.22479e+02	8.63000e+02	1.96451e+00	2.21500e+02
865	2.23491e+02	8.65000e+02	1.96399e+00	2.22500e+02
867	2.24509e+02	8.67000e+02	1.96349e+00	2.23500e+02
869	2.25525e+02	8.69000e+02	1.96299e+00	2.24500e+02
871	2.26546e+02	8.71000e+02	1.96250e+00	2.25500e+02
873	2.27555e+02	8.73000e+02	1.96201e+00	2.26500e+02
875	2.28577e+02	8.75000e+02	1.96149e+00	2.27500e+02
877	2.29598e+02	8.77000e+02	1.96092e+00	2.28500e+02
879	2.30618e+02	8.79000e+02	1.96034e+00	2.29500e+02
881	2.31636e+02	8.81000e+02	1.95971e+00	2.30500e+02
883	2.32654e+02	8.83000e+02	1.95908e+00	2.31500e+02
885	2.33688e+02	8.85000e+02	1.95843e+00	2.32500e+02
887	2.34718e+02	8.87000e+02	1.95780e+00	2.33500e+02
889	2.35744e+02	8.89000e+02	1.95717e+00	2.34500e+02
891	2.36764e+02	8.91000e+02	1.95656e+00	2.35500e+02
893	2.37779e+02	8.93000e+02	1.95597e+00	2.36500e+02
895	2.38804e+02	8.95000e+02	1.95538e+00	2.37500e+02
897	2.39843e+02	8.97000e+02	1.95478e+00	2.38500e+02
899	2.40851e+02	8.99000e+02	1.95419e+00	2.39500e+02
901	2.41881e+02	9.01000e+02	1.95358e+00	2.40500e+02
903	2.42907e+02	9.03000e+02	1.95297e+00	2.41500e+02
905	2.43951e+02	9.05000e+02	1.95235e+00	2.42500e+02
907	2.44996e+02	9.07000e+02	1.95172e+00	2.43500e+02
909	2.46034e+02	9.09000e+02	1.95105e+00	2.44500e+02
911	2.47068e+02	9.11000e+02	1.95037e+00	2.45500e+02
913	2.48097e+02	9.13000e+02	1.94966e+00	2.46500e+02
915	2.49154e+02	9.15000e+02	1.94896e+00	2.47500e+02
917	2.50215e+02	9.17000e+02	1.94827e+00	2.48500e+02
919	2.51282e+02	9.19000e+02	1.94759e+00	2.49500e+02
921	2.52296e+02	9.21000e+02	1.94695e+00	2.50500e+02
923	2.53330e+02	9.23000e+02	1.94632e+00	2.51500e+02
925	2.54386e+02	9.25000e+02	1.94570e+00	2.52500e+02
927	2.55385e+02	9.27000e+02	1.94505e+00	2.53500e+02
929	2.56391e+02	9.29000e+02	1.94433e+00	2.54500e+02
931	2.57380e+02	9.31000e+02	1.94361e+00	2.55500e+02
933	2.58386e+02	9.33000e+02	1.94285e+00	2.56500e+02
935	2.59387e+02	9.35000e+02	1.94211e+00	2.57500e+02
937	2.60380e+02	9.37000e+02	1.94139e+00	2.58500e+02
939	2.61402e+02	9.39000e+02	1.94067e+00	2.59500e+02
941	2.62427e+02	9.41000e+02	1.93998e+00	2.60500e+02
943	2.63415e+02	9.43000e+02	1.93929e+00	2.61500e+02
945	2.64439e+02	9.45000e+02	1.93860e+00	2.62500e+02
947	2.65449e+02	9.47000e+02	1.93791e+00	2.63500e+02
949	2.66474e+02	9.49000e+02	1.93723e+00	2.64500e+02
951	2.67466e+02	9.51000e+02	1.93653e+00	2.65500e+02
953	2.68485e+02	9.53000e+02	1.93579e+00	2.66500e+02
955	2.69499e+02	9.55000e+02	1.93504e+00	2.67500e+02
957	2.70495e+02	9.57000e+02	1.93427e+00	2.68500e+02
959	2.71518e+02	9.59000e+02	1.93350e+00	2.69500e+02
961	2.72524e+02	9.61000e+02	1.93273e+00	2.70500e+02
963	2.73544e+02	9.63000e+02	1.93197e+00	2.71500e+02
965	2.74550e+02	9.65000e+02	1.93121e+00	2.72500e+02
967	2.75574e+02	9.67000e+02	1.93043e+00	2.73500e+02
969	2.76598e+02	9.69000e+02	1.92964e+00	2.74500e+02
971	2.77612e+02	9.71000e+02	1.92885e+00	2.75500e+02
973	2.78618e+02	9.73000e+02	1.92805e+00	2.76500e+02
975	2.79635e+02	9.75000e+02	1.92724e+00	2.77500e+02
977	2.80632e+02	9.77000e+02	1.92638e+00	2.78500e+02
979	2.81636e+02	9.79000e+02	1.92550e+00	2.79500e+02
981	2.82663e+02	9.81000e+02	1.92459e+00	2.80500e+02
983	2.83675e+02	9.83000e+02	1.92371e+00	2.81500e+02
985	2.84667e+02	9.85000e+02	1.92285e+00	2.82500e+02
987	2.85682e+02	9.87000e+02	1.92199e+00	2.83500e+02
989	2.86686e+02	9.89000e+02	1.92113e+00	2.84500e+02
991	2.87695e+02	9.91000e+02	1.92023e+00	2.85500e+02
993	2.88672e+02	9.93000e+02	1.91928e+00	2.86500e+02
995	2.89654e+02	9.95000e+02	1.91833e+00	2.87500e+02
997	2.90642e+02	9.97000e+02	1.91738e+00	2.88500e+02
999	2.91645e+02	9.99000e+02	1.91643e+00	2.89500e+02
1001	2.92655e+02	1.00100e+03	1.91546e+00	2.90500e+02
1003	2.93666e+02	1.00300e+03	1.91444e+00	2.91500e+02
1005	2.94658e+02	1.00500e+03	1.91332e+00	2.92500e+02
1007	2.95671e+02	1.00700e+03	1.91214e+00	2.93500e+02
1009	2.96667e+02	1.00900e+03	1.91085e+00	2.94500e+02
1011	2.97686e+02	1.01100e+03	1.90957e+00	2.95500e+02
1013	2.98690e+02	1.01300e+03	1.90827e+00	2.96500e+02
1015	2.99699e+02	1.01500e+03	1.90697e+00	2.97500e+02
1017	3.00695e+02	1.01700e+03	1.90565e+00	2.98500e+02
1019	3.01688e+02	1.01900e+03	1.90430e+00	2.99500e+02
1021	3.02684e+02	1.02100e+03	1.90289e+00	3.00500e+02
1023	3.03680e+02	1.02300e+03	1.90146e+00	3.01500e+02
1025	3.04683e+02	1.02500e+03	1.89999e+00	3.02500e+02
1027	3.05671e+02	1.02700e+03	1.89850e+00	3.03500e+02
1029	3.06653e+02	1.02900e+03	1.89695e+00	3.04500e+02
1031	3.07631e+02	1.03100e+03	1.89536e+00	3.05500e+02
1033	3.08615e+02	1.03300e+03	1.89367e+00	3.06500e+02
1035	3.09598e+02	1.03500e+03	1.89194e+00	3.07500e+02
1037	3.10605e+02	1.03700e+03	1.89009e+00	3.08500e+02
1039	3.11607e+02	1.03900e+03	1.88822e+00	3.09500e+02
1041	3.12601e+02	1.04100e+03	1.88621e+00	3.10500e+02
1043	3.13576e+02	1.04300e+03	1.88415e+00	3.11500e+02
1045	3.14519e+02	1.04500e+03	1.88192e+00	3.12500e+02
1047	3.15454e+02	1.04700e+03	1.87963e+00	3.13500e+02
1049	3.16351e+02	1.04900e+03	1.87713e+00	3.14500e+02
1051	3.17188e+02	1.05100e+03	1.87456e+00	3.15500e+02
1053	3.18015e+02	1.05300e+03	1.87173e+00	3.16500e+02
1055	3.18912e+02	1.05500e+03	1.86885e+00	3.17500e+02
1057	3.19867e+02	1.05700e+03	1.86576e+00	3.18500e+02
1059	3.20819e+02	1.05900e+03	1.86269e+00	3.19500e+02
1061	3.21765e+02	1.06100e+03	1.85956e+00	3.20500e+02
1063	3.22703e+02	1.06300e+03	1.85648e+00	3.21500e+02
1065	3.23668e+02	1.06500e+03	1.85347e+00	3.22500e+02
1067	3.24655e+02	1.06700e+03	1.85049e+00	3.23500e+02
1069	3.25649e+02	1.06900e+03	1.84762e+00	3.24500e+02
1071	3.26640e+02	1.07100e+03	1.84478e+00	3.25500e+02
1073	3.27629e+02	1.07300e+03	1.84204e+00	3.26500e+02
1075	3.28631e+02	1.07500e+03	1.83932e+00	3.27500e+02
1077	3.29623e+02	1.07700e+03	1.83666e+00	3.28500e+02
1079	3.30620e+02	1.07900e+03	1.83397e+00	3.29500e+02
1081	3.31625e+02	1.08100e+03	1.83123e+00	3.30500e+02
1083	3.32615e+02	1.08300e+03	1.82844e+00	3.31500e+02
1085	3.33616e+02	1.08500e+03	1.82553e+00	3.32500e+02
1087	3.34615e+02	1.08700e+03	1.82256e+00	3.33500e+02
1089	3.35609e+02	1.08900e+03	1.81943e+00	3.34500e+02
1091	3.36602e+02	1.09100e+03	1.81625e+00	3.35500e+02
1093	3.37608e+02	1.09300e+03	1.81288e+00	3.36500e+02
1095	3.38598e+02	1.09500e+03	1.80944e+00	3.37500e+02
1097	3.39603e+02	1.09700e+03	1.80573e+00	3.38500e+02
1099	3.40605e+02	1.09900e+03	1.80192e+00	3.39500e+02
1101	3.41582e+02	1.10100e+03	1.79780e+00	3.40500e+02
1103	3.42587e+02	1.10300e+03	1.79361e+00	3.41500e+02
1105	3.43575e+02	1.10500e+03	1.78908e+00	3.42500e+02
1107	3.44577e+02	1.10700e+03	1.78441e+00	3.43500e+02
1109	3.45567e+02	1.10900e+03	1.77931e+00	3.44500e+02
1111	3.46551e+02	1.11100e+03	1.77409e+00	3.45500e+02
1113	3.47544e+02	1.11300e+03	1.76838e+00	3.46500e+02
1115	3.48555e+02	1.11500e+03	1.76250e+00	3.47500e+02
1117	3.49528e+02	1.11700e+03	1.75603e+00	3.48500e+02
1119	3.50524e+02	1.11900e+03	1.74934e+00	3.49500e+02
1121	3.51522e+02	1.12100e+03	1.74184e+00	3.50500e+02
1123	3.52514e+02	1.12300e+03	1.73393e+00	3.51500e+02
1125	3.53501e+02	1.12500e+03	1.72470e+00	3.52500e+02
1127	3.54509e+02	1.12700e+03	1.71498e+00	3.53500e+02
1129	3.55516e+02	1.12900e+03	1.70373e+00	3.54500e+02
1131	3.56494e+02	1.13100e+03	1.69222e+00	3.55500e+02
1133	3.57497e+02	1.13300e+03	1.67934e+00	3.56500e+02
1135	3.58478e+02	1.13500e+03	1.66617e+00	3.57500e+02
1137	3.59474e+02	1.13700e+03	1.65166e+00	3.58500e+02
1139	3.60468e+02	1.13900e+03	1.63681e+00	3.59500e+02
1141	3.61466e+02	1.14100e+03	1.62060e+00	3.60500e+02
1143	3.62463e+02	1.14300e+03	1.60409e+00	3.61500e+02
1145	3.63472e+02	1.14500e+03	1.58626e+00	3.62500e+02
1147	3.64467e+02	1.14700e+03	1.56813e+00	3.63500e+02
1149	3.65481e+02	1.14900e+03	1.54867e+00	3.64500e+02
1151	3.66500e+02	1.15100e+03	1.52883e+00	3.65500e+02
1153	3.67507e+02	1.15300e+03	1.50742e+00	3.66500e+02
1155	3.68506e+02	1.15500e+03	1.48547e+00	3.67500e+02
1157	3.69481e+02	1.15700e+03	1.46159e+00	3.68500e+02
1159	3.70473e+02	1.15900e+03	1.43719e+00	3.69500e+02
1161	3.71461e+02	1.16100e+03	1.41086e+00	3.70500e+02
1163	3.72463e+02	1.16300e+03	1.38425e+00	3.71500e+02
1165	3.73445e+02	1.16500e+03	1.35604e+00	3.72500e+02
1167	3.74432e+02	1.16700e+03	1.32750e+00	3.73500e+02
1169	3.75416e+02	1.16900e+03	1.29750e+00	3.74500e+02
1171	3.76420e+02	1.17100e+03	1.26722e+00	3.75500e+02
1173	3.77392e+02	1.17300e+03	1.23566e+00	3.76500e+02
1175	3.78393e+02	1.17500e+03	1.20387e+00	3.77500e+02
1177	3.79379e+02	1.17700e+03	1.17090e+00	3.78500e+02
1179	3.80379e+02	1.17900e+03	1.13759e+00	3.79500e+02
1181	3.81377e+02	1.18100e+03	1.10301e+00	3.80500e+02
1183	3.82369e+02	1.18300e+03	1.06819e+00	3.81500e+02
1185	3.83357e+02	1.18500e+03	1.03243e+00	3.82500e+02
1187	3.84350e+02	1.18700e+03	9.96883e-01	3.83500e+02
1189	3.85353e+02	1.18900e+03	9.61293e-01	3.84500e+02
1191	3.86349e+02	1.19100e+03	9.25990e-01	3.85500e+02
1193	3.87352e+02	1.19300e+03	8.91044e-01	3.86500e+02
1195	3.88342e+02	1.19500e+03	8.56115e-01	3.87500e+02
1197	3.89357e+02	1.19700e+03	8.21427e-01	3.88500e+02
1199	3.90353e+02	1.19900e+03	7.86771e-01	3.89500e+02
1201	3.91362e+02	1.20100e+03	7.52229e-01	3.90500e+02
1203	3.92367e+02	1.20300e+03	7.17655e-01	3.91500e+02
1205	3.93392e+02	1.20500e+03	6.83118e-01	3.92500e+02
1207	3.94384e+02	1.20700e+03	6.48633e-01	3.93500e+02
1209	3.95406e+02	1.20900e+03	6.14187e-01	3.94500e+02
1211	3.96419e+02	1.21100e+03	5.79642e-01	3.95500e+02
1213	3.97417e+02	1.21300e+03	5.44985e-01	3.96500e+02
1215	3.98454e+02	1.21500e+03	5.10313e-01	3.97500e+02
1217	3.99459e+02	1.21700e+03	4.75735e-01	3.98500e+02
1219	4.00483e+02	1.21900e+03	4.41483e-01	3.99500e+02
1221	4.01500e+02	1.22100e+03	4.08073e-01	4.00500e+02
1223	4.02534e+02	1.22300e+03	3.75271e-01	4.01500e+02
1225	4.03547e+02	1.22500e+03	3.44162e-01	4.02500e+02
1227	4.04576e+02	1.22700e+03	3.13752e-01	4.03500e+02
1229	4.05600e+02	1.22900e+03	2.85611e-01	4.04500e+02
1231	4.06600e+02	1.23100e+03	2.58146e-01	4.05500e+02
1233	4.07620e+02	1.23300e+03	2.33222e-01	4.06500e+02
1235	4.08655e+02	1.23500e+03	2.08976e-01	4.07500e+02
1237	4.09691e+02	1.23700e+03	1.87397e-01	4.08500e+02
1239	4.10705e+02	1.23900e+03	1.66464e-01	4.09500e+02
1241	4.11747e+02	1.24100e+03	1.48199e-01	4.10500e+02
1243	4.12759e+02	1.24300e+03	1.30511e-01	4.11500e+02
1245	4.13776e+02	1.24500e+03	1.15310e-01	4.12500e+02
1247	4.14802e+02	1.24700e+03	1.00540e-01	4.13500e+02
1249	4.15806e+02	1.24900e+03	8.79526e-02	4.14500e+02
1251	4.16818e+02	1.25100e+03	7.57584e-02	4.15500e+02
1253	4.17831e+02	1.25300e+03	6.54857e-02	4.16500e+02
1255	4.18826e+02	1.25500e+03	5.55547e-02	4.17500e+02
1257	4.19838e+02	1.25700e+03	4.73144e-02	4.18500e+02
1259	4.20853e+02	1.25900e+03	3.93562e-02	4.19500e+02
1261	4.21866e+02	1.26100e+03	3.28278e-02	4.20500e+02
1263	4.22871e+02	1.26300e+03	2.64952e-02	4.21500e+02
1265	4.23902e+02	1.26500e+03	2.13091e-02	4.22500e+02
1267	4.24917e+02	1.26700e+03	1.62821e-02	4.23500e+02
1269	4.25936e+02	1.26900e+03	1.21659e-02	4.24500e+02
1271	4.26946e+02	1.27100e+03	8.17697e-03	4.25500e+02
1273	4.27950e+02	1.27300e+03	4.91176e-03	4.26500e+02
1275	4.28960e+02	1.27500e+03	1.73749e-03	4.27500e+02
1277	4.29965e+02	1.27700e+03	-8.80718e-04	4.28500e+02
1279	4.30970e+02	1.27900e+03	-3.43305e-03	4.29500e+02
1281	4.31957e+02	1.28100e+03	-5.54389e-03	4.30500e+02
1283	4.32955e+02	1.28300e+03	-7.58653e-03	4.31500e+02
1285	4.33953e+02	1.28500e+03	-9.26076e-03	4.32500e+02
1287	4.34938e+02	1.28700e+03	-1.08954e-02	4.33500e+02
1289	4.35929e+02	1.28900e+03	-1.22633e-02	4.34500e+02
1291	4.36916e+02	1.29100e+03	-1.36101e-02	4.35500e+02
1293	4.37908e+02	1.29300e+03	-1.47695e-02	4.36500e+02
1295	4.38898e+02	1.29500e+03	-1.59085e-02	4.37500e+02
1297	4.39894e+02	1.29700e+03	-1.69108e-02	4.38500e+02
1299	4.40880e+02	1.29900e+03	-1.78971e-02	4.39500e+02
1301	4.41879e+02	1.30100e+03	-1.87665e-02	4.40500e+02
1303	4.42872e+02	1.30300e+03	-1.96024e-02	4.41500e+02
1305	4.43859e+02	1.30500e+03	-2.03186e-02	4.42500e+02
1307	4.44854e+02	1.30700e+03	-2.10185e-02	4.43500e+02
1309	4.45846e+02	1.30900e+03	-2.16177e-02	4.44500e+02
1311	4.46835e+02	1.31100e+03	-2.21930e-02	4.45500e+02
1313	4.47834e+02	1.31300e+03	-2.26713e-02	4.46500e+02
1315	4.48812e+02	1.31500e+03	-2.31330e-02	4.47500e+02
1317	4.49811e+02	1.31700e+03	-2.35191e-02	4.48500e+02
1319	4.50819e+02	1.31900e+03	-2.39115e-02	4.49500e+02
1321	4.51808e+02	1.32100e+03	-2.42610e-02	4.50500e+02
1323	4.52827e+02	1.32300e+03	-2.46040e-02	4.51500e+02
1325	4.53840e+02	1.32500e+03	-2.49069e-02	4.52500e+02
1327	4.54862e+02	1.32700e+03	-2.51931e-02	4.53500e+02
1329	4.55861e+02	1.32900e+03	-2.54126e-02	4.54500e+02
1331	4.56865e+02	1.33100e+03	-2.55940e-02	4.55500e+02
1333	4.57884e+02	1.33300e+03	-2.56803e-02	4.56500e+02
1335	4.58857e+02	1.33500e+03	-2.57567e-02	4.57500e+02
1337	4.59847e+02	1.33700e+03	-2.57721e-02	4.58500e+02
1339	4.60833e+02	1.33900e+03	-2.57989e-02	4.59500e+02
1341	4.61813e+02	1.34100e+03	-2.58116e-02	4.60500e+02
1343	4.62772e+02	1.34300e+03	-2.58320e-02	4.61500e+02
1345	4.63745e+02	1.34500e+03	-2.58736e-02	4.62500e+02
1347	4.64715e+02	1.34700e+03	-2.59316e-02	4.63500e+02
1349	4.65687e+02	1.34900e+03	-2.60307e-02	4.64500e+02
1351	4.66655e+02	1.35100e+03	-2.61327e-02	4.65500e+02
1353	4.67625e+02	1.35300e+03	-2.62544e-02	4.66500e+02
1355	4.68613e+02	1.35500e+03	-2.63624e-02	4.67500e+02
1357	4.69596e+02	1.35700e+03	-2.64516e-02	4.68500e+02
1359	4.70567e+02	1.35900e+03	-2.65178e-02	4.69500e+02
1361	4.71534e+02	1.36100e+03	-2.65330e-02	4.70500e+02
1363	4.72533e+02	1.36300e+03	-2.65346e-02	4.71500e+02
1365	4.73528e+02	1.36500e+03	-2.64948e-02	4.72500e+02
1367	4.74521e+02	1.36700e+03	-2.64747e-02	4.73500e+02
1369	4.75495e+02	1.36900e+03	-2.64728e-02	4.74500e+02
1371	4.76465e+02	1.37100e+03	-2.64911e-02	4.75500e+02
1373	4.77457e+02	1.37300e+03	-2.65458e-02	4.76500e+02
1375	4.78435e+02	1.37500e+03	-2.66022e-02	4.77500e+02
1377	4.79410e+02	1.37700e+03	-2.66724e-02	4.78500e+02
1379	4.80388e+02	1.37900e+03	-2.67293e-02	4.79500e+02
1381	4.81386e+02	1.38100e+03	-2.67665e-02	4.80500e+02
1383	4.82368e+02	1.38300e+03	-2.67984e-02	4.81500e+02
1385	4.83371e+02	1.38500e+03	-2.68261e-02	4.82500e+02
1387	4.84361e+02	1.38700e+03	-2.68762e-02	4.83500e+02
1389	4.85350e+02	1.38900e+03	-2.69519e-02	4.84500e+02
1391	4.86338e+02	1.39100e+03	-2.70186e-02	4.85500e+02
1393	4.87316e+02	1.39300e+03	-2.70804e-02	4.86500e+02
1395	4.88300e+02	1.39500e+03	-2.71252e-02	4.87500e+02
1397	4.89275e+02	1.39700e+03	-2.71391e-02	4.88500e+02
1399	4.90250e+02	1.39900e+03	-2.71541e-02	4.89500e+02
1401	4.91225e+02	1.40100e+03	-2.71731e-02	4.90500e+02
1403	4.92220e+02	1.40300e+03	-2.72226e-02	4.91500e+02
1405	4.93209e+02	1.40500e+03	-2.73225e-02	4.92500e+02
1407	4.94203e+02	1.40700e+03	-2.74232e-02	4.93500e+02
1409	4.95177e+02	1.40900e+03	-2.75298e-02	4.94500e+02
1411	4.96171e+02	1.41100e+03	-2.76133e-02	4.95500e+02
1413	4.97163e+02	1.41300e+03	-2.76590e-02	4.96500e+02
1415	4.98139e+02	1.41500e+03	-2.77026e-02	4.97500e+02
1417	4.99110e+02	1.41700e+03	-2.77395e-02	4.98500e+02
1419	5.00075e+02	1.41900e+03	-2.77869e-02	4.99500e+02
1421	5.01044e+02	1.42100e+03	-2.78458e-02	5.00500e+02
1423	5.02021e+02	1.42300e+03	-2.79028e-02	5.01500e+02
1425	5.03026e+02	1.42500e+03	-2.79642e-02	5.02500e+02
1427	5.04020e+02	1.42700e+03	-2.80175e-02	5.03500e+02
1429	5.04992e+02	1.42900e+03	-2.80548e-02	5.04500e+02
1431	5.05959e+02	1.43100e+03	-2.80857e-02	5.05500e+02
1433	5.06913e+02	1.43300e+03	-2.80891e-02	5.06500e+02
1435	5.07868e+02	1.43500e+03	-2.81040e-02	5.07500e+02
1437	5.08832e+02	1.43700e+03	-2.81321e-02	5.08500e+02
1439	5.09818e+02	1.43900e+03	-2.81791e-02	5.09500e+02
1441	5.10785e+02	1.44100e+03	-2.82566e-02	5.10500e+02
1443	5.11741e+02	1.44300e+03	-2.83198e-02	5.11500e+02
1445	5.12719e+02	1.44500e+03	-2.83863e-02	5.12500e+02
1447	5.13690e+02	1.44700e+03	-2.84633e-02	5.13500e+02
1449	5.14665e+02	1.44900e+03	-2.85670e-02	5.14500e+02
1451	5.15637e+02	1.45100e+03	-2.86566e-02	5.15500e+02
1453	5.16607e+02	1.45300e+03	-2.86812e-02	5.16500e+02
1455	5.17589e+02	1.45500e+03	-2.86300e-02	5.17500e+02
1457	5.18577e+02	1.45700e+03	-2.84460e-02	5.18500e+02
1459	5.19568e+02	1.45900e+03	-2.83001e-02	5.19500e+02
1461	5.20546e+02	1.46100e+03	-2.81835e-02	5.20500e+02
1463	5.21533e+02	1.46300e+03	-2.81302e-02	5.21500e+02
1465	5.22517e+02	1.46500e+03	-2.81949e-02	5.22500e+02
1467	5.23503e+02	1.46700e+03	-2.82744e-02	5.23500e+02
1469	5.24487e+02	1.46900e+03	-2.84097e-02	5.24500e+02
1471	5.25459e+02	1.47100e+03	-2.85216e-02	5.25500e+02
1473	5.26449e+02	1.47300e+03	-2.86258e-02	5.26500e+02
1475	5.27426e+02	1.47500e+03	-2.87138e-02	5.27500e+02
1477	5.28408e+02	1.47700e+03	-2.87597e-02	5.28500e+02
1479	5.29396e+02	1.47900e+03	-2.87869e-02	5.29500e+02
1481	5.30382e+02	1.48100e+03	-2.87705e-02	5.30500e+02
1483	5.31346e+02	1.48300e+03	-2.87654e-02	5.31500e+02
1485	5.32335e+02	1.48500e+03	-2.87658e-02	5.32500e+02
1487	5.33300e+02	1.48700e+03	-2.87753e-02	5.33500e+02
1489	5.34294e+02	1.48900e+03	-2.87916e-02	5.34500e+02
1491	5.35271e+02	1.49100e+03	-2.88001e-02	5.35500e+02
1493	5.36249e+02	1.49300e+03	-2.88203e-02	5.36500e+02
1495	5.37231e+02	1.49500e+03	-2.88637e-02	5.37500e+02
1497	5.38213e+02	1.49700e+03	-2.89390e-02	5.38500e+02
1499	5.39198e+02	1.49900e+03	-2.90058e-02	5.39500e+02
1501	5.40167e+02	1.50100e+03	-2.90622e-02	5.40500e+02
1503	5.41146e+02	1.50300e+03	-2.91097e-02	5.41500e+02
1505	5.42129e+02	1.50500e+03	-2.91342e-02	5.42500e+02
1507	5.43107e+02	1.50700e+03	-2.91583e-02	5.43500e+02
1509	5.44075e+02	1.50900e+03	-2.91699e-02	5.44500e+02
1511	5.45047e+02	1.51100e+03	-2.91810e-02	5.45500e+02
1513	5.46025e+02	1.51300e+03	-2.91889e-02	5.46500e+02
1515	5.46999e+02	1.51500e+03	-2.92049e-02	5.47500e+02
1517	5.47964e+02	1.51700e+03	-2.92439e-02	5.48500e+02
1519	5.48960e+02	1.51900e+03	-2.92997e-02	5.49500e+02
1521	5.49944e+02	1.52100e+03	-2.93782e-02	5.50500e+02
1523	5.50919e+02	1.52300e+03	-2.94335e-02	5.51500e+02
1525	5.51908e+02	1.52500e+03	-2.94720e-02	5.52500e+02
1527	5.52870e+02	1.52700e+03	-2.95065e-02	5.53500e+02
1529	5.53845e+02	1.52900e+03	-2.95595e-02	5.54500e+02
1531	5.54813e+02	1.53100e+03	-2.96503e-02	5.55500e+02
1533	5.55784e+02	1.53300e+03	-2.97770e-02	5.56500e+02
1535	5.56770e+02	1.53500e+03	-2.98466e-02	5.57500e+02
1537	5.57738e+02	1.53700e+03	-2.98079e-02	5.58500e+02
1539	5.58725e+02	1.53900e+03	-2.97273e-02	5.59500e+02
1541	5.59698e+02	1.54100e+03	-2.95703e-02	5.60500e+02
1543	5.60682e+02	1.54300e+03	-2.94823e-02	5.61500e+02
1545	5.61621e+02	1.54500e+03	-2.94741e-02	5.62500e+02
1547	5.62585e+02	1.54700e+03	-2.94868e-02	5.63500e+02
1549	5.63567e+02	1.54900e+03	-2.95533e-02	5.64500e+02
1551	5.64540e+02	1.55100e+03	-2.95922e-02	5.65500e+02
1553	5.65517e+02	1.55300e+03	-2.96053e-02	5.66500e+02
1555	5.66489e+02	1.55500e+03	-2.96037e-02	5.67500e+02
1557	5.67449e+02	1.55700e+03	-2.95792e-02	5.68500e+02
1559	5.68424e+02	1.55900e+03	-2.95752e-02	5.69500e+02
1561	5.69404e+02	1.56100e+03	-2.96017e-02	5.70500e+02
1563	5.70364e+02	1.56300e+03	-2.96414e-02	5.71500e+02
1565	5.71340e+02	1.56500e+03	-2.97151e-02	5.72500e+02
1567	5.72306e+02	1.56700e+03	-2.97792e-02	5.73500e+02
1569	5.73297e+02	1.56900e+03	-2.98369e-02	5.74500e+02
1571	5.74279e+02	1.57100e+03	-2.98707e-02	5.75500e+02
1573	5.75262e+02	1.57300e+03	-2.98613e-02	5.76500e+02
1575	5.76232e+02	1.57500e+03	-2.98469e-02	5.77500e+02
1577	5.77206e+02	1.57700e+03	-2.98054e-02	5.78500e+02
1579	5.78183e+02	1.57900e+03	-2.97779e-02	5.79500e+02
1581	5.79188e+02	1.58100e+03	-2.97602e-02	5.80500e+02
1583	5.80177e+02	1.58300e+03	-2.97489e-02	5.81500e+02
1585	5.81167e+02	1.58500e+03	-2.97541e-02	5.82500e+02
1587	5.82156e+02	1.58700e+03	-2.97649e-02	5.83500e+02
1589	5.83141e+02	1.58900e+03	-2.97902e-02	5.84500e+02
1591	5.84150e+02	1.59100e+03	-2.98094e-02	5.85500e+02
1593	5.85148e+02	1.59300e+03	-2.98209e-02	5.86500e+02
1595	5.86157e+02	1.59500e+03	-2.98225e-02	5.87500e+02
1597	5.87173e+02	1.59700e+03	-2.98168e-02	5.88500e+02
1599	5.88172e+02	1.59900e+03	-2.98232e-02	5.89500e+02
1601	5.89142e+02	1.60100e+03	-2.98529e-02	5.90500e+02
1603	5.90116e+02	1.60300e+03	-2.98913e-02	5.91500e+02
1605	5.91115e+02	1.60500e+03	-2.99497e-02	5.92500e+02
1607	5.92107e+02	1.60700e+03	-2.99974e-02	5.93500e+02
1609	5.93112e+02	1.60900e+03	-3.00395e-02	5.94500e+02
1611	5.94110e+02	1.61100e+03	-3.00776e-02	5.95500e+02
1613	5.95096e+02	1.61300e+03	-3.01102e-02	5.96500e+02
1615	5.96104e+02	1.61500e+03	-3.01463e-02	5.97500e+02
1617	5.97094e+02	1.61700e+03	-3.01717e-02	5.98500e+02
1619	5.98085e+02	1.61900e+03	-3.01791e-02	5.99500e+02
1621	5.99068e+02	1.62100e+03	-3.01593e-02	6.00500e+02
1623	6.00065e+02	1.62300e+03	-3.01405e-02	6.01500e+02
1625	6.01057e+02	1.62500e+03	-3.01197e-02	6.02500e+02
1627	6.02059e+02	1.62700e+03	-3.01150e-02	6.03500e+02
1629	6.03061e+02	1.62900e+03	-3.01246e-02	6.04500e+02
1631	6.04057e+02	1.63100e+03	-3.01245e-02	6.05500e+02
1633	6.05050e+02	1.63300e+03	-3.01138e-02	6.06500e+02
1635	6.06051e+02	1.63500e+03	-3.01007e-02	6.07500e+02
1637	6.07049e+02	1.63700e+03	-3.00816e-02	6.08500e+02
1639	6.08035e+02	1.63900e+03	-3.00686e-02	6.09500e+02
1641	6.09042e+02	1.64100e+03	-3.00614e-02	6.10500e+02
1643	6.10052e+02	1.64300e+03	-3.00590e-02	6.11500e+02
1645	6.11063e+02	1.64500e+03	-3.00716e-02	6.12500e+02
1647	6.12077e+02	1.64700e+03	-3.00893e-02	6.13500e+02
1649	6.13090e+02	1.64900e+03	-3.01139e-02	6.14500e+02
1651	6.14125e+02	1.65100e+03	-3.01211e-02	6.15500e+02
1653	6.15189e+02	1.65300e+03	-3.01035e-02	6.16500e+02
1655	6.16302e+02	1.65500e+03	-3.00781e-02	6.17500e+02
1657	6.17713e+02	1.65700e+03	-3.00434e-02	6.18500e+02
1659	6.19277e+02	1.65900e+03	-3.00290e-02	6.19500e+02
1661	6.20436e+02	1.66100e+03	-3.00557e-02	6.20500e+02
1663	6.21716e+02	1.66300e+03	-3.00942e-02	6.21500e+02
1665	6.22790e+02	1.66500e+03	-3.01533e-02	6.22500e+02
1667	6.23873e+02	1.66700e+03	-3.01850e-02	6.23500e+02
1669	6.24922e+02	1.66900e+03	-3.01778e-02	6.24500e+02
1671	6.25963e+02	1.67100e+03	-3.01660e-02	6.25500e+02
1673	6.27126e+02	1.67300e+03	-3.01423e-02	6.26500e+02
1675	6.28552e+02	1.67500e+03	-3.01430e-02	6.27500e+02
1677	6.29699e+02	1.67700e+03	-3.01699e-02	6.28500e+02
1679	6.30578e+02	1.67900e+03	-3.01937e-02	6.29500e+02
1681	6.31525e+02	1.68100e+03	-3.02225e-02	6.30500e+02
1683	6.32465e+02	1.68300e+03	-3.02450e-02	6.31500e+02
1685	6.33390e+02	1.68500e+03	-3.02519e-02	6.32500e+02
1687	6.34291e+02	1.68700e+03	-3.02515e-02	6.33500e+02
1689	6.35250e+02	1.68900e+03	-3.02332e-02	6.34500e+02
1691	6.36189e+02	1.69100e+03	-3.02142e-02	6.35500e+02
1693	6.37125e+02	1.69300e+03	-3.01847e-02	6.36500e+02
1695	6.38115e+02	1.69500e+03	-3.01666e-02	6.37500e+02
1697	6.39101e+02	1.69700e+03	-3.01558e-02	6.38500e+02
1699	6.40113e+02	1.69900e+03	-3.01466e-02	6.39500e+02
1701	6.41111e+02	1.70100e+03	-3.01469e-02	6.40500e+02
1703	6.42088e+02	1.70300e+03	-3.01453e-02	6.41500e+02
1705	6.43066e+02	1.70500e+03	-3.01512e-02	6.42500e+02
1707	6.44060e+02	1.70700e+03	-3.01606e-02	6.43500e+02
1709	6.45059e+02	1.70900e+03	-3.01746e-02	6.44500e+02
1711	6.46048e+02	1.71100e+03	-3.01830e-02	6.45500e+02
1713	6.47029e+02	1.71300e+03	-3.01885e-02	6.46500e+02
1715	6.47999e+02	1.71500e+03	-3.01999e-02	6.47500e+02
1717	6.48994e+02	1.71700e+03	-3.02308e-02	6.48500e+02
1719	6.49974e+02	1.71900e+03	-3.02836e-02	6.49500e+02
1721	6.50973e+02	1.72100e+03	-3.03763e-02	6.50500e+02
1723	6.51932e+02	1.72300e+03	-3.04471e-02	6.51500e+02
1725	6.52894e+02	1.72500e+03	-3.04567e-02	6.52500e+02
1727	6.53869e+02	1.72700e+03	-3.03998e-02	6.53500e+02
1729	6.54837e+02	1.72900e+03	-3.02059e-02	6.54500e+02
1731	6.55836e+02	1.73100e+03	-3.00212e-02	6.55500e+02
1733	6.56810e+02	1.73300e+03	-2.98261e-02	6.56500e+02
1735	6.57804e+02	1.73500e+03	-2.97022e-02	6.57500e+02
1737	6.58807e+02	1.73700e+03	-2.96991e-02	6.58500e+02
1739	6.59790e+02	1.73900e+03	-2.97234e-02	6.59500e+02
1741	6.60790e+02	1.74100e+03	-2.98505e-02	6.60500e+02
1743	6.61790e+02	1.74300e+03	-2.99595e-02	6.61500e+02
1745	6.62768e+02	1.74500e+03	-3.00811e-02	6.62500e+02
1747	6.63756e+02	1.74700e+03	-3.01783e-02	6.63500e+02
1749	6.64730e+02	1.74900e+03	-3.02344e-02	6.64500e+02
1751	6.65711e+02	1.75100e+03	-3.02732e-02	6.65500e+02
1753	6.66696e+02	1.75300e+03	-3.02622e-02	6.66500e+02
1755	6.67689e+02	1.75500e+03	-3.02592e-02	6.67500e+02
1757	6.68663e+02	1.75700e+03	-3.02483e-02	6.68500e+02
1759	6.69642e+02	1.75900e+03	-3.02544e-02	6.69500e+02
1761	6.70619e+02	1.76100e+03	-3.02804e-02	6.70500e+02
1763	6.71572e+02	1.76300e+03	-3.02969e-02	6.71500e+02
1765	6.72545e+02	1.76500e+03	-3.03076e-02	6.72500e+02
1767	6.73514e+02	1.76700e+03	-3.03065e-02	6.73500e+02
1769	6.74514e+02	1.76900e+03	-3.02829e-02	6.74500e+02
1771	6.75495e+02	1.77100e+03	-3.02659e-02	6.75500e+02
1773	6.76479e+02	1.77300e+03	-3.02619e-02	6.76500e+02
1775	6.77453e+02	1.77500e+03	-3.02916e-02	6.77500e+02
1777	6.78440e+02	1.77700e+03	-3.03674e-02	6.78500e+02
1779	6.79428e+02	1.77900e+03	-3.04231e-02	6.79500e+02
1781	6.80432e+02	1.78100e+03	-3.04702e-02	6.80500e+02
1783	6.81443e+02	1.78300e+03	-3.05083e-02	6.81500e+02
1785	6.82444e+02	1.78500e+03	-3.05571e-02	6.82500e+02
1787	6.83452e+02	1.78700e+03	-3.06271e-02	6.83500e+02
1789	6.84455e+02	1.78900e+03	-3.06996e-02	6.84500e+02
1791	6.85448e+02	1.79100e+03	-3.07082e-02	6.85500e+02
1793	6.86454e+02	1.79300e+03	-3.05869e-02	6.86500e+02
1795	6.87106e+02	1.79500e+03	-3.04359e-02	6.87500e+02
1797	6.87566e+02	1.79700e+03	-3.02106e-02	6.88500e+02
1799	6.88312e+02	1.79900e+03	-3.00513e-02	6.89500e+02
1801	6.89029e+02	1.80100e+03	-2.99770e-02	6.90500e+02
1803	6.89698e+02	1.80300e+03	-2.99618e-02	6.91500e+02
1805	6.90325e+02	1.80500e+03	-3.00592e-02	6.92500e+02
1807	6.90904e+02	1.80700e+03	-3.01442e-02	6.93500e+02
1809	6.91465e+02	1.80900e+03	-3.02479e-02	6.94500e+02
1811	6.91994e+02	1.81100e+03	-3.03123e-02	6.95500e+02
1813	6.92494e+02	1.81300e+03	-3.03316e-02	6.96500e+02
1815	6.92936e+02	1.81500e+03	-3.03515e-02	6.97500e+02
1817	6.93376e+02	1.81700e+03	-3.03414e-02	6.98500e+02
1819	6.93774e+02	1.81900e+03	-3.03227e-02	6.99500e+02
1820	6.93967e+02	1.82000e+03	-3.02981e-02	7.00000e+02