File: Experiments/TUBS/tga_nonisotherm/tga_dynamic_n2_dyn20_powder_3mg_r3.txt
index	ts	t	weight	tr
[#]	[°C]	[s]	[mg]	[°C]
723	1.29954e+02	7.23000e+02	2.99419e+00	1.31000e+02
725	1.30619e+02	7.25000e+02	2.99411e+00	1.31667e+02
727	1.31276e+02	7.27000e+02	2.99403e+00	1.32333e+02
729	1.31946e+02	7.29000e+02	2.99394e+00	1.33000e+02
731	1.32614e+02	7.31000e+02	2.99385e+00	1.33667e+02
733	1.33277e+02	7.33000e+02	2.99375e+00	1.34333e+02
735	1.33947e+02	7.35000e+02	2.99366e+00	1.35000e+02
737	1.34600e+02	7.37000e+02	2.99354e+00	1.35667e+02
739	1.35261e+02	7.39000e+02	2.99342e+00	1.36333e+02
741	1.35930e+02	7.41000e+02	2.99326e+00	1.37000e+02
743	1.36607e+02	7.43000e+02	2.99310e+00	1.37667e+02
745	1.37264e+02	7.45000e+02	2.99293e+00	1.38333e+02
747	1.37934e+02	7.47000e+02	2.99276e+00	1.39000e+02
749	1.38596e+02	7.49000e+02	2.99258e+00	1.39667e+02
751	1.39270e+02	7.51000e+02	2.99239e+00	1.40333e+02
753	1.39934e+02	7.53000e+02	2.99221e+00	1.41000e+02
755	1.40599e+02	7.55000e+02	2.99203e+00	1.41667e+02
757	1.41268e+02	7.57000e+02	2.99187e+00	1.42333e+02
759	1.41946e+02	7.59000e+02	2.99171e+00	1.43000e+02
761	1.42613e+02	7.61000e+02	2.99155e+00	1.43667e+02
763	1.43280e+02	7.63000e+02	2.99137e+00	1.44333e+02
765	1.43942e+02	7.65000e+02	2.99116e+00	1.45000e+02
767	1.44616e+02	7.67000e+02	2.99094e+00	1.45667e+02
769	1.45281e+02	7.69000e+02	2.99070e+00	1.46333e+02
771	1.45953e+02	7.71000e+02	2.99046e+00	1.47000e+02
773	1.46624e+02	7.73000e+02	2.99021e+00	1.47667e+02
775	1.47298e+02	7.75000e+02	2.98993e+00	1.48333e+02
777	1.47961e+02	7.77000e+02	2.98964e+00	1.49000e+02
779	1.48636e+02	7.79000e+02	2.98935e+00	1.49667e+02
781	1.49302e+02	7.81000e+02	2.98906e+00	1.50333e+02
783	1.49983e+02	7.83000e+02	2.98877e+00	1.51000e+02
785	1.50641e+02	7.85000e+02	2.98846e+00	1.51667e+02
787	1.51321e+02	7.87000e+02	2.98814e+00	1.52333e+02
789	1.51989e+02	7.89000e+02	2.98779e+00	1.53000e+02
791	1.52658e+02	7.91000e+02	2.98746e+00	1.53667e+02
793	1.53322e+02	7.93000e+02	2.98711e+00	1.54333e+02
795	1.54003e+02	7.95000e+02	2.98675e+00	1.55000e+02
797	1.54662e+02	7.97000e+02	2.98636e+00	1.55667e+02
799	1.55337e+02	7.99000e+02	2.98599e+00	1.56333e+02
801	1.56022e+02	8.01000e+02	2.98561e+00	1.57000e+02
803	1.56692e+02	8.03000e+02	2.98522e+00	1.57667e+02
805	1.57359e+02	8.05000e+02	2.98483e+00	1.58333e+02
807	1.58031e+02	8.07000e+02	2.98443e+00	1.59000e+02
809	1.58713e+02	8.09000e+02	2.98403e+00	1.59667e+02
811	1.59379e+02	8.11000e+02	2.98363e+00	1.60333e+02
813	1.60052e+02	8.13000e+02	2.98324e+00	1.61000e+02
815	1.60728e+02	8.15000e+02	2.98285e+00	1.61667e+02
817	1.61396e+02	8.17000e+02	2.98244e+00	1.62333e+02
819	1.62067e+02	8.19000e+02	2.98201e+00	1.63000e+02
821	1.62745e+02	8.21000e+02	2.98156e+00	1.63667e+02
823	1.63441e+02	8.23000e+02	2.98111e+00	1.64333e+02
825	1.64103e+02	8.25000e+02	2.98064e+00	1.65000e+02
827	1.64781e+02	8.27000e+02	2.98016e+00	1.65667e+02
829	1.65464e+02	8.29000e+02	2.97965e+00	1.66333e+02
831	1.66120e+02	8.31000e+02	2.97912e+00	1.67000e+02
833	1.66808e+02	8.33000e+02	2.97854e+00	1.67667e+02
835	1.67475e+02	8.35000e+02	2.97794e+00	1.68333e+02
837	1.68160e+02	8.37000e+02	2.97727e+00	1.69000e+02
839	1.68834e+02	8.39000e+02	2.97659e+00	1.69667e+02
841	1.69510e+02	8.41000e+02	2.97584e+00	1.70333e+02
843	1.70189e+02	8.43000e+02	2.97508e+00	1.71000e+02
845	1.70863e+02	8.45000e+02	2.97426e+00	1.71667e+02
847	1.71539e+02	8.47000e+02	2.97342e+00	1.72333e+02
849	1.72224e+02	8.49000e+02	2.97250e+00	1.73000e+02
851	1.72889e+02	8.51000e+02	2.97153e+00	1.73667e+02
853	1.73576e+02	8.53000e+02	2.97046e+00	1.74333e+02
855	1.74254e+02	8.55000e+02	2.96937e+00	1.75000e+02
857	1.74927e+02	8.57000e+02	2.96819e+00	1.75667e+02
859	1.75625e+02	8.59000e+02	2.96697e+00	1.76333e+02
861	1.76289e+02	8.61000e+02	2.96563e+00	1.77000e+02
863	1.76975e+02	8.63000e+02	2.96425e+00	1.77667e+02
865	1.77652e+02	8.65000e+02	2.96272e+00	1.78333e+02
867	1.78335e+02	8.67000e+02	2.96116e+00	1.79000e+02
869	1.79007e+02	8.69000e+02	2.95947e+00	1.79667e+02
871	1.79678e+02	8.71000e+02	2.95777e+00	1.80333e+02
873	1.80371e+02	8.73000e+02	2.95598e+00	1.81000e+02
875	1.81039e+02	8.75000e+02	2.95418e+00	1.81667e+02
877	1.81726e+02	8.77000e+02	2.95228e+00	1.82333e+02
879	1.82402e+02	8.79000e+02	2.95035e+00	1.83000e+02
881	1.83083e+02	8.81000e+02	2.94830e+00	1.83667e+02
883	1.83756e+02	8.83000e+02	2.94625e+00	1.84333e+02
885	1.84438e+02	8.85000e+02	2.94411e+00	1.85000e+02
887	1.85114e+02	8.87000e+02	2.94193e+00	1.85667e+02
889	1.85787e+02	8.89000e+02	2.93964e+00	1.86333e+02
891	1.86460e+02	8.91000e+02	2.93734e+00	1.87000e+02
893	1.87132e+02	8.93000e+02	2.93495e+00	1.87667e+02
895	1.87819e+02	8.95000e+02	2.93256e+00	1.88333e+02
897	1.88487e+02	8.97000e+02	2.93013e+00	1.89000e+02
899	1.89174e+02	8.99000e+02	2.92772e+00	1.89667e+02
901	1.89839e+02	9.01000e+02	2.92530e+00	1.90333e+02
903	1.90534e+02	9.03000e+02	2.92290e+00	1.91000e+02
905	1.91193e+02	9.05000e+02	2.92050e+00	1.91667e+02
907	1.91884e+02	9.07000e+02	2.91812e+00	1.92333e+02
909	1.92560e+02	9.09000e+02	2.91576e+00	1.93000e+02
911	1.93234e+02	9.11000e+02	2.91341e+00	1.93667e+02
913	1.93913e+02	9.13000e+02	2.91110e+00	1.94333e+02
915	1.94592e+02	9.15000e+02	2.90882e+00	1.95000e+02
917	1.95272e+02	9.17000e+02	2.90661e+00	1.95667e+02
919	1.95956e+02	9.19000e+02	2.90443e+00	1.96333e+02
921	1.96629e+02	9.21000e+02	2.90236e+00	1.97000e+02
923	1.97300e+02	9.23000e+02	2.90034e+00	1.97667e+02
925	1.97988e+02	9.25000e+02	2.89846e+00	1.98333e+02
927	1.98669e+02	9.27000e+02	2.89661e+00	1.99000e+02
929	1.99336e+02	9.29000e+02	2.89492e+00	1.99667e+02
931	2.00016e+02	9.31000e+02	2.89326e+00	2.00333e+02
933	2.00704e+02	9.33000e+02	2.89177e+00	2.01000e+02
935	2.01376e+02	9.35000e+02	2.89030e+00	2.01667e+02
937	2.02057e+02	9.37000e+02	2.88897e+00	2.02333e+02
939	2.02734e+02	9.39000e+02	2.88767e+00	2.03000e+02
941	2.03423e+02	9.41000e+02	2.88649e+00	2.03667e+02
943	2.04098e+02	9.43000e+02	2.88533e+00	2.04333e+02
945	2.04775e+02	9.45000e+02	2.88428e+00	2.05000e+02
947	2.05452e+02	9.47000e+02	2.88327e+00	2.05667e+02
949	2.06120e+02	9.49000e+02	2.88237e+00	2.06333e+02
951	2.06807e+02	9.51000e+02	2.88150e+00	2.07000e+02
953	2.07489e+02	9.53000e+02	2.88073e+00	2.07667e+02
955	2.08162e+02	9.55000e+02	2.87997e+00	2.08333e+02
957	2.08863e+02	9.57000e+02	2.87929e+00	2.09000e+02
959	2.09527e+02	9.59000e+02	2.87861e+00	2.09667e+02
961	2.10206e+02	9.61000e+02	2.87797e+00	2.10333e+02
963	2.10894e+02	9.63000e+02	2.87735e+00	2.11000e+02
965	2.11572e+02	9.65000e+02	2.87677e+00	2.11667e+02
967	2.12249e+02	9.67000e+02	2.87621e+00	2.12333e+02
969	2.12920e+02	9.69000e+02	2.87571e+00	2.13000e+02
971	2.13612e+02	9.71000e+02	2.87520e+00	2.13667e+02
973	2.14281e+02	9.73000e+02	2.87473e+00	2.14333e+02
975	2.14974e+02	9.75000e+02	2.87424e+00	2.15000e+02
977	2.15635e+02	9.77000e+02	2.87375e+00	2.15667e+02
979	2.16313e+02	9.79000e+02	2.87325e+00	2.16333e+02
981	2.16990e+02	9.81000e+02	2.87275e+00	2.17000e+02
983	2.17680e+02	9.83000e+02	2.87224e+00	2.17667e+02
985	2.18354e+02	9.85000e+02	2.87172e+00	2.18333e+02
987	2.19036e+02	9.87000e+02	2.87119e+00	2.19000e+02
989	2.19710e+02	9.89000e+02	2.87066e+00	2.19667e+02
991	2.20385e+02	9.91000e+02	2.87017e+00	2.20333e+02
993	2.21062e+02	9.93000e+02	2.86971e+00	2.21000e+02
995	2.21741e+02	9.95000e+02	2.86925e+00	2.21667e+02
997	2.22403e+02	9.97000e+02	2.86878e+00	2.22333e+02
999	2.23077e+02	9.99000e+02	2.86828e+00	2.23000e+02
1001	2.23757e+02	1.00100e+03	2.86773e+00	2.23667e+02
1003	2.24433e+02	1.00300e+03	2.86718e+00	2.24333e+02
1005	2.25108e+02	1.00500e+03	2.86661e+00	2.25000e+02
1007	2.25780e+02	1.00700e+03	2.86605e+00	2.25667e+02
1009	2.26453e+02	1.00900e+03	2.86550e+00	2.26333e+02
1011	2.27126e+02	1.01100e+03	2.86496e+00	2.27000e+02
1013	2.27803e+02	1.01300e+03	2.86443e+00	2.27667e+02
1015	2.28466e+02	1.01500e+03	2.86392e+00	2.28333e+02
1017	2.29141e+02	1.01700e+03	2.86345e+00	2.29000e+02
1019	2.29822e+02	1.01900e+03	2.86300e+00	2.29667e+02
1021	2.30496e+02	1.02100e+03	2.86258e+00	2.30333e+02
1023	2.31175e+02	1.02300e+03	2.86214e+00	2.31000e+02
1025	2.31855e+02	1.02500e+03	2.86170e+00	2.31667e+02
1027	2.32535e+02	1.02700e+03	2.86125e+00	2.32333e+02
1029	2.33200e+02	1.02900e+03	2.86080e+00	2.33000e+02
1031	2.33884e+02	1.03100e+03	2.86035e+00	2.33667e+02
1033	2.34555e+02	1.03300e+03	2.85990e+00	2.34333e+02
1035	2.35219e+02	1.03500e+03	2.85945e+00	2.35000e+02
1037	2.35868e+02	1.03700e+03	2.85901e+00	2.35667e+02
1039	2.36548e+02	1.03900e+03	2.85859e+00	2.36333e+02
1041	2.37235e+02	1.04100e+03	2.85819e+00	2.37000e+02
1043	2.37917e+02	1.04300e+03	2.85780e+00	2.37667e+02
1045	2.38626e+02	1.04500e+03	2.85745e+00	2.38333e+02
1047	2.39320e+02	1.04700e+03	2.85709e+00	2.39000e+02
1049	2.39989e+02	1.04900e+03	2.85674e+00	2.39667e+02
1051	2.40649e+02	1.05100e+03	2.85640e+00	2.40333e+02
1053	2.41334e+02	1.05300e+03	2.85606e+00	2.41000e+02
1055	2.41993e+02	1.05500e+03	2.85573e+00	2.41667e+02
1057	2.42670e+02	1.05700e+03	2.85542e+00	2.42333e+02
1059	2.43350e+02	1.05900e+03	2.85510e+00	2.43000e+02
1061	2.44043e+02	1.06100e+03	2.85478e+00	2.43667e+02
1063	2.44740e+02	1.06300e+03	2.85447e+00	2.44333e+02
1065	2.45423e+02	1.06500e+03	2.85417e+00	2.45000e+02
1067	2.46105e+02	1.06700e+03	2.85387e+00	2.45667e+02
1069	2.46790e+02	1.06900e+03	2.85361e+00	2.46333e+02
1071	2.47478e+02	1.07100e+03	2.85335e+00	2.47000e+02
1073	2.48151e+02	1.07300e+03	2.85309e+00	2.47667e+02
1075	2.48828e+02	1.07500e+03	2.85282e+00	2.48333e+02
1077	2.49546e+02	1.07700e+03	2.85253e+00	2.49000e+02
1079	2.50243e+02	1.07900e+03	2.85225e+00	2.49667e+02
1081	2.50950e+02	1.08100e+03	2.85197e+00	2.50333e+02
1083	2.51668e+02	1.08300e+03	2.85170e+00	2.51000e+02
1085	2.52394e+02	1.08500e+03	2.85142e+00	2.51667e+02
1087	2.53126e+02	1.08700e+03	2.85114e+00	2.52333e+02
1089	2.53833e+02	1.08900e+03	2.85085e+00	2.53000e+02
1091	2.54530e+02	1.09100e+03	2.85055e+00	2.53667e+02
1093	2.55214e+02	1.09300e+03	2.85027e+00	2.54333e+02
1095	2.55887e+02	1.09500e+03	2.84998e+00	2.55000e+02
1097	2.56562e+02	1.09700e+03	2.84972e+00	2.55667e+02
1099	2.57270e+02	1.09900e+03	2.84946e+00	2.56333e+02
1101	2.57955e+02	1.10100e+03	2.84921e+00	2.57000e+02
1103	2.58633e+02	1.10300e+03	2.84895e+00	2.57667e+02
1105	2.59320e+02	1.10500e+03	2.84870e+00	2.58333e+02
1107	2.59984e+02	1.10700e+03	2.84845e+00	2.59000e+02
1109	2.60662e+02	1.10900e+03	2.84818e+00	2.59667e+02
1111	2.61353e+02	1.11100e+03	2.84790e+00	2.60333e+02
1113	2.62018e+02	1.11300e+03	2.84761e+00	2.61000e+02
1115	2.62715e+02	1.11500e+03	2.84731e+00	2.61667e+02
1117	2.63384e+02	1.11700e+03	2.84699e+00	2.62333e+02
1119	2.64053e+02	1.11900e+03	2.84668e+00	2.63000e+02
1121	2.64755e+02	1.12100e+03	2.84638e+00	2.63667e+02
1123	2.65439e+02	1.12300e+03	2.84607e+00	2.64333e+02
1125	2.66128e+02	1.12500e+03	2.84577e+00	2.65000e+02
1127	2.66818e+02	1.12700e+03	2.84546e+00	2.65667e+02
1129	2.67499e+02	1.12900e+03	2.84512e+00	2.66333e+02
1131	2.68181e+02	1.13100e+03	2.84475e+00	2.67000e+02
1133	2.68863e+02	1.13300e+03	2.84434e+00	2.67667e+02
1135	2.69546e+02	1.13500e+03	2.84394e+00	2.68333e+02
1137	2.70226e+02	1.13700e+03	2.84352e+00	2.69000e+02
1139	2.70913e+02	1.13900e+03	2.84311e+00	2.69667e+02
1141	2.71599e+02	1.14100e+03	2.84269e+00	2.70333e+02
1143	2.72261e+02	1.14300e+03	2.84225e+00	2.71000e+02
1145	2.72927e+02	1.14500e+03	2.84177e+00	2.71667e+02
1147	2.73612e+02	1.14700e+03	2.84128e+00	2.72333e+02
1149	2.74286e+02	1.14900e+03	2.84074e+00	2.73000e+02
1151	2.74953e+02	1.15100e+03	2.84020e+00	2.73667e+02
1153	2.75619e+02	1.15300e+03	2.83963e+00	2.74333e+02
1155	2.76286e+02	1.15500e+03	2.83906e+00	2.75000e+02
1157	2.77003e+02	1.15700e+03	2.83848e+00	2.75667e+02
1159	2.77692e+02	1.15900e+03	2.83789e+00	2.76333e+02
1161	2.78372e+02	1.16100e+03	2.83726e+00	2.77000e+02
1163	2.79030e+02	1.16300e+03	2.83660e+00	2.77667e+02
1165	2.79722e+02	1.16500e+03	2.83588e+00	2.78333e+02
1167	2.80352e+02	1.16700e+03	2.83515e+00	2.79000e+02
1169	2.81010e+02	1.16900e+03	2.83437e+00	2.79667e+02
1171	2.81672e+02	1.17100e+03	2.83358e+00	2.80333e+02
1173	2.82337e+02	1.17300e+03	2.83275e+00	2.81000e+02
1175	2.82992e+02	1.17500e+03	2.83189e+00	2.81667e+02
1177	2.83663e+02	1.17700e+03	2.83096e+00	2.82333e+02
1179	2.84305e+02	1.17900e+03	2.83002e+00	2.83000e+02
1181	2.84965e+02	1.18100e+03	2.82900e+00	2.83667e+02
1183	2.85631e+02	1.18300e+03	2.82796e+00	2.84333e+02
1185	2.86270e+02	1.18500e+03	2.82686e+00	2.85000e+02
1187	2.86939e+02	1.18700e+03	2.82575e+00	2.85667e+02
1189	2.87574e+02	1.18900e+03	2.82455e+00	2.86333e+02
1191	2.88242e+02	1.19100e+03	2.82334e+00	2.87000e+02
1193	2.88880e+02	1.19300e+03	2.82204e+00	2.87667e+02
1195	2.89518e+02	1.19500e+03	2.82071e+00	2.88333e+02
1197	2.90176e+02	1.19700e+03	2.81931e+00	2.89000e+02
1199	2.90844e+02	1.19900e+03	2.81788e+00	2.89667e+02
1201	2.91506e+02	1.20100e+03	2.81637e+00	2.90333e+02
1203	2.92154e+02	1.20300e+03	2.81482e+00	2.91000e+02
1205	2.92838e+02	1.20500e+03	2.81316e+00	2.91667e+02
1207	2.93506e+02	1.20700e+03	2.81146e+00	2.92333e+02
1209	2.94170e+02	1.20900e+03	2.80965e+00	2.93000e+02
1211	2.94837e+02	1.21100e+03	2.80784e+00	2.93667e+02
1213	2.95549e+02	1.21300e+03	2.80595e+00	2.94333e+02
1215	2.96210e+02	1.21500e+03	2.80403e+00	2.95000e+02
1217	2.96885e+02	1.21700e+03	2.80203e+00	2.95667e+02
1219	2.97572e+02	1.21900e+03	2.79998e+00	2.96333e+02
1221	2.98241e+02	1.22100e+03	2.79781e+00	2.97000e+02
1223	2.98934e+02	1.22300e+03	2.79561e+00	2.97667e+02
1225	2.99643e+02	1.22500e+03	2.79330e+00	2.98333e+02
1227	3.00342e+02	1.22700e+03	2.79099e+00	2.99000e+02
1229	3.01023e+02	1.22900e+03	2.78860e+00	2.99667e+02
1231	3.01682e+02	1.23100e+03	2.78619e+00	3.00333e+02
1233	3.02391e+02	1.23300e+03	2.78368e+00	3.01000e+02
1235	3.03072e+02	1.23500e+03	2.78115e+00	3.01667e+02
1237	3.03734e+02	1.23700e+03	2.77852e+00	3.02333e+02
1239	3.04379e+02	1.23900e+03	2.77588e+00	3.03000e+02
1241	3.05072e+02	1.24100e+03	2.77317e+00	3.03667e+02
1243	3.05726e+02	1.24300e+03	2.77045e+00	3.04333e+02
1245	3.06370e+02	1.24500e+03	2.76769e+00	3.05000e+02
1247	3.07010e+02	1.24700e+03	2.76492e+00	3.05667e+02
1249	3.07665e+02	1.24900e+03	2.76209e+00	3.06333e+02
1251	3.08310e+02	1.25100e+03	2.75926e+00	3.07000e+02
1253	3.08940e+02	1.25300e+03	2.75638e+00	3.07667e+02
1255	3.09601e+02	1.25500e+03	2.75349e+00	3.08333e+02
1257	3.10272e+02	1.25700e+03	2.75056e+00	3.09000e+02
1259	3.10928e+02	1.25900e+03	2.74763e+00	3.09667e+02
1261	3.11592e+02	1.26100e+03	2.74468e+00	3.10333e+02
1263	3.12241e+02	1.26300e+03	2.74172e+00	3.11000e+02
1265	3.12900e+02	1.26500e+03	2.73874e+00	3.11667e+02
1267	3.13550e+02	1.26700e+03	2.73577e+00	3.12333e+02
1269	3.14191e+02	1.26900e+03	2.73279e+00	3.13000e+02
1271	3.14856e+02	1.27100e+03	2.72979e+00	3.13667e+02
1273	3.15510e+02	1.27300e+03	2.72676e+00	3.14333e+02
1275	3.16174e+02	1.27500e+03	2.72372e+00	3.15000e+02
1277	3.16832e+02	1.27700e+03	2.72066e+00	3.15667e+02
1279	3.17492e+02	1.27900e+03	2.71760e+00	3.16333e+02
1281	3.18149e+02	1.28100e+03	2.71453e+00	3.17000e+02
1283	3.18809e+02	1.28300e+03	2.71144e+00	3.17667e+02
1285	3.19464e+02	1.28500e+03	2.70831e+00	3.18333e+02
1287	3.20121e+02	1.28700e+03	2.70516e+00	3.19000e+02
1289	3.20774e+02	1.28900e+03	2.70192e+00	3.19667e+02
1291	3.21442e+02	1.29100e+03	2.69865e+00	3.20333e+02
1293	3.22089e+02	1.29300e+03	2.69528e+00	3.21000e+02
1295	3.22765e+02	1.29500e+03	2.69189e+00	3.21667e+02
1297	3.23423e+02	1.29700e+03	2.68838e+00	3.22333e+02
1299	3.24090e+02	1.29900e+03	2.68482e+00	3.23000e+02
1301	3.24757e+02	1.30100e+03	2.68110e+00	3.23667e+02
1303	3.25418e+02	1.30300e+03	2.67733e+00	3.24333e+02
1305	3.26068e+02	1.30500e+03	2.67336e+00	3.25000e+02
1307	3.26734e+02	1.30700e+03	2.66931e+00	3.25667e+02
1309	3.27365e+02	1.30900e+03	2.66503e+00	3.26333e+02
1311	3.28026e+02	1.31100e+03	2.66067e+00	3.27000e+02
1313	3.28683e+02	1.31300e+03	2.65604e+00	3.27667e+02
1315	3.29341e+02	1.31500e+03	2.65133e+00	3.28333e+02
1317	3.29996e+02	1.31700e+03	2.64632e+00	3.29000e+02
1319	3.30663e+02	1.31900e+03	2.64121e+00	3.29667e+02
1321	3.31314e+02	1.32100e+03	2.63575e+00	3.30333e+02
1323	3.31974e+02	1.32300e+03	2.63018e+00	3.31000e+02
1325	3.32622e+02	1.32500e+03	2.62423e+00	3.31667e+02
1327	3.33275e+02	1.32700e+03	2.61817e+00	3.32333e+02
1329	3.33930e+02	1.32900e+03	2.61170e+00	3.33000e+02
1331	3.34592e+02	1.33100e+03	2.60513e+00	3.33667e+02
1333	3.35247e+02	1.33300e+03	2.59811e+00	3.34333e+02
1335	3.35913e+02	1.33500e+03	2.59097e+00	3.35000e+02
1337	3.36581e+02	1.33700e+03	2.58334e+00	3.35667e+02
1339	3.37246e+02	1.33900e+03	2.57557e+00	3.36333e+02
1341	3.37909e+02	1.34100e+03	2.56726e+00	3.37000e+02
1343	3.38588e+02	1.34300e+03	2.55880e+00	3.37667e+02
1345	3.39255e+02	1.34500e+03	2.54977e+00	3.38333e+02
1347	3.39928e+02	1.34700e+03	2.54057e+00	3.39000e+02
1349	3.40585e+02	1.34900e+03	2.53073e+00	3.39667e+02
1351	3.41264e+02	1.35100e+03	2.52072e+00	3.40333e+02
1353	3.41923e+02	1.35300e+03	2.51005e+00	3.41000e+02
1355	3.42591e+02	1.35500e+03	2.49922e+00	3.41667e+02
1357	3.43248e+02	1.35700e+03	2.48771e+00	3.42333e+02
1359	3.43914e+02	1.35900e+03	2.47600e+00	3.43000e+02
1361	3.44587e+02	1.36100e+03	2.46353e+00	3.43667e+02
1363	3.45265e+02	1.36300e+03	2.45088e+00	3.44333e+02
1365	3.45924e+02	1.36500e+03	2.43745e+00	3.45000e+02
1367	3.46597e+02	1.36700e+03	2.42381e+00	3.45667e+02
1369	3.47263e+02	1.36900e+03	2.40937e+00	3.46333e+02
1371	3.47948e+02	1.37100e+03	2.39475e+00	3.47000e+02
1373	3.48623e+02	1.37300e+03	2.37931e+00	3.47667e+02
1375	3.49321e+02	1.37500e+03	2.36368e+00	3.48333e+02
1377	3.50009e+02	1.37700e+03	2.34720e+00	3.49000e+02
1379	3.50689e+02	1.37900e+03	2.33051e+00	3.49667e+02
1381	3.51371e+02	1.38100e+03	2.31296e+00	3.50333e+02
1383	3.52040e+02	1.38300e+03	2.29520e+00	3.51000e+02
1385	3.52707e+02	1.38500e+03	2.27656e+00	3.51667e+02
1387	3.53412e+02	1.38700e+03	2.25769e+00	3.52333e+02
1389	3.54104e+02	1.38900e+03	2.23793e+00	3.53000e+02
1391	3.54806e+02	1.39100e+03	2.21797e+00	3.53667e+02
1393	3.55487e+02	1.39300e+03	2.19711e+00	3.54333e+02
1395	3.56142e+02	1.39500e+03	2.17605e+00	3.55000e+02
1397	3.56830e+02	1.39700e+03	2.15411e+00	3.55667e+02
1399	3.57523e+02	1.39900e+03	2.13199e+00	3.56333e+02
1401	3.58201e+02	1.40100e+03	2.10904e+00	3.57000e+02
1403	3.58889e+02	1.40300e+03	2.08590e+00	3.57667e+02
1405	3.59566e+02	1.40500e+03	2.06196e+00	3.58333e+02
1407	3.60223e+02	1.40700e+03	2.03786e+00	3.59000e+02
1409	3.60889e+02	1.40900e+03	2.01301e+00	3.59667e+02
1411	3.61582e+02	1.41100e+03	1.98797e+00	3.60333e+02
1413	3.62226e+02	1.41300e+03	1.96219e+00	3.61000e+02
1415	3.62873e+02	1.41500e+03	1.93625e+00	3.61667e+02
1417	3.63549e+02	1.41700e+03	1.90961e+00	3.62333e+02
1419	3.64249e+02	1.41900e+03	1.88278e+00	3.63000e+02
1421	3.64947e+02	1.42100e+03	1.85522e+00	3.63667e+02
1423	3.65630e+02	1.42300e+03	1.82748e+00	3.64333e+02
1425	3.66323e+02	1.42500e+03	1.79903e+00	3.65000e+02
1427	3.67029e+02	1.42700e+03	1.77043e+00	3.65667e+02
1429	3.67693e+02	1.42900e+03	1.74113e+00	3.66333e+02
1431	3.68352e+02	1.43100e+03	1.71169e+00	3.67000e+02
1433	3.69012e+02	1.43300e+03	1.68159e+00	3.67667e+02
1435	3.69695e+02	1.43500e+03	1.65143e+00	3.68333e+02
1437	3.70336e+02	1.43700e+03	1.62079e+00	3.69000e+02
1439	3.70981e+02	1.43900e+03	1.59013e+00	3.69667e+02
1441	3.71608e+02	1.44100e+03	1.55918e+00	3.70333e+02
1443	3.72272e+02	1.44300e+03	1.52827e+00	3.71000e+02
1445	3.72926e+02	1.44500e+03	1.49722e+00	3.71667e+02
1447	3.73582e+02	1.44700e+03	1.46612e+00	3.72333e+02
1449	3.74231e+02	1.44900e+03	1.43487e+00	3.73000e+02
1451	3.74906e+02	1.45100e+03	1.40355e+00	3.73667e+02
1453	3.75562e+02	1.45300e+03	1.37199e+00	3.74333e+02
1455	3.76232e+02	1.45500e+03	1.34022e+00	3.75000e+02
1457	3.76896e+02	1.45700e+03	1.30780e+00	3.75667e+02
1459	3.77564e+02	1.45900e+03	1.27497e+00	3.76333e+02
1461	3.78256e+02	1.46100e+03	1.24095e+00	3.77000e+02
1463	3.78919e+02	1.46300e+03	1.20648e+00	3.77667e+02
1465	3.79582e+02	1.46500e+03	1.17085e+00	3.78333e+02
1467	3.80259e+02	1.46700e+03	1.13542e+00	3.79000e+02
1469	3.80951e+02	1.46900e+03	1.09997e+00	3.79667e+02
1471	3.81627e+02	1.47100e+03	1.06511e+00	3.80333e+02
1473	3.82294e+02	1.47300e+03	1.03119e+00	3.81000e+02
1475	3.82962e+02	1.47500e+03	9.97504e-01	3.81667e+02
1477	3.83648e+02	1.47700e+03	9.64741e-01	3.82333e+02
1479	3.84316e+02	1.47900e+03	9.32150e-01	3.83000e+02
1481	3.85002e+02	1.48100e+03	9.00326e-01	3.83667e+02
1483	3.85680e+02	1.48300e+03	8.68621e-01	3.84333e+02
1485	3.86376e+02	1.48500e+03	8.37590e-01	3.85000e+02
1487	3.87044e+02	1.48700e+03	8.06729e-01	3.85667e+02
1489	3.87719e+02	1.48900e+03	7.76542e-01	3.86333e+02
1491	3.88364e+02	1.49100e+03	7.46535e-01	3.87000e+02
1493	3.89032e+02	1.49300e+03	7.17296e-01	3.87667e+02
1495	3.89703e+02	1.49500e+03	6.88317e-01	3.88333e+02
1497	3.90402e+02	1.49700e+03	6.60246e-01	3.89000e+02
1499	3.91125e+02	1.49900e+03	6.32406e-01	3.89667e+02
1501	3.91762e+02	1.50100e+03	6.05569e-01	3.90333e+02
1503	3.92403e+02	1.50300e+03	5.79033e-01	3.91000e+02
1505	3.93069e+02	1.50500e+03	5.53607e-01	3.91667e+02
1507	3.93739e+02	1.50700e+03	5.28454e-01	3.92333e+02
1509	3.94408e+02	1.50900e+03	5.04449e-01	3.93000e+02
1511	3.95080e+02	1.51100e+03	4.80747e-01	3.93667e+02
1513	3.95755e+02	1.51300e+03	4.58248e-01	3.94333e+02
1515	3.96430e+02	1.51500e+03	4.36037e-01	3.95000e+02
1517	3.97106e+02	1.51700e+03	4.15042e-01	3.95667e+02
1519	3.97784e+02	1.51900e+03	3.94327e-01	3.96333e+02
1521	3.98458e+02	1.52100e+03	3.74820e-01	3.97000e+02
1523	3.99116e+02	1.52300e+03	3.55597e-01	3.97667e+02
1525	3.99795e+02	1.52500e+03	3.37571e-01	3.98333e+02
1527	4.00457e+02	1.52700e+03	3.19811e-01	3.99000e+02
1529	4.01132e+02	1.52900e+03	3.03213e-01	3.99667e+02
1531	4.01754e+02	1.53100e+03	2.86881e-01	4.00333e+02
1533	4.02405e+02	1.53300e+03	2.71674e-01	4.01000e+02
1535	4.03075e+02	1.53500e+03	2.56703e-01	4.01667e+02
1537	4.03754e+02	1.53700e+03	2.42804e-01	4.02333e+02
1539	4.04426e+02	1.53900e+03	2.29141e-01	4.03000e+02
1541	4.05069e+02	1.54100e+03	2.16503e-01	4.03667e+02
1543	4.05735e+02	1.54300e+03	2.04075e-01	4.04333e+02
1545	4.06396e+02	1.54500e+03	1.92603e-01	4.05000e+02
1547	4.07063e+02	1.54700e+03	1.81323e-01	4.05667e+02
1549	4.07724e+02	1.54900e+03	1.70940e-01	4.06333e+02
1551	4.08376e+02	1.55100e+03	1.60734e-01	4.07000e+02
1553	4.09037e+02	1.55300e+03	1.51373e-01	4.07667e+02
1555	4.09704e+02	1.55500e+03	1.42188e-01	4.08333e+02
1557	4.10370e+02	1.55700e+03	1.33802e-01	4.09000e+02
1559	4.11043e+02	1.55900e+03	1.25570e-01	4.09667e+02
1561	4.11717e+02	1.56100e+03	1.18082e-01	4.10333e+02
1563	4.12393e+02	1.56300e+03	1.10747e-01	4.11000e+02
1565	4.13075e+02	1.56500e+03	1.04111e-01	4.11667e+02
1567	4.13775e+02	1.56700e+03	9.76128e-02	4.12333e+02
1569	4.14455e+02	1.56900e+03	9.17523e-02	4.13000e+02
1571	4.15127e+02	1.57100e+03	8.60134e-02	4.13667e+02
1573	4.15826e+02	1.57300e+03	8.08625e-02	4.14333e+02
1575	4.16450e+02	1.57500e+03	7.58320e-02	4.15000e+02
1577	4.17122e+02	1.57700e+03	7.13389e-02	4.15667e+02
1579	4.17785e+02	1.57900e+03	6.69369e-02	4.16333e+02
1581	4.18444e+02	1.58100e+03	6.30081e-02	4.17000e+02
1583	4.19114e+02	1.58300e+03	5.91722e-02	4.17667e+02
1585	4.19754e+02	1.58500e+03	5.57648e-02	4.18333e+02
1587	4.20387e+02	1.58700e+03	5.24344e-02	4.19000e+02
1589	4.21036e+02	1.58900e+03	4.94832e-02	4.19667e+02
1591	4.21681e+02	1.59100e+03	4.66008e-02	4.20333e+02
1593	4.22336e+02	1.59300e+03	4.40512e-02	4.21000e+02
1595	4.22971e+02	1.59500e+03	4.15626e-02	4.21667e+02
1597	4.23635e+02	1.59700e+03	3.93739e-02	4.22333e+02
1599	4.24297e+02	1.59900e+03	3.72457e-02	4.23000e+02
1601	4.24966e+02	1.60100e+03	3.53897e-02	4.23667e+02
1603	4.25636e+02	1.60300e+03	3.35757e-02	4.24333e+02
1605	4.26294e+02	1.60500e+03	3.19863e-02	4.25000e+02
1607	4.26958e+02	1.60700e+03	3.04269e-02	4.25667e+02
1609	4.27631e+02	1.60900e+03	2.90523e-02	4.26333e+02
1611	4.28304e+02	1.61100e+03	2.77143e-02	4.27000e+02
1613	4.28961e+02	1.61300e+03	2.65511e-02	4.27667e+02
1615	4.29610e+02	1.61500e+03	2.54255e-02	4.28333e+02
1617	4.30259e+02	1.61700e+03	2.44635e-02	4.29000e+02
1619	4.30902e+02	1.61900e+03	2.35234e-02	4.29667e+02
1621	4.31551e+02	1.62100e+03	2.27104e-02	4.30333e+02
1623	4.32220e+02	1.62300e+03	2.19102e-02	4.31000e+02
1625	4.32863e+02	1.62500e+03	2.12120e-02	4.31667e+02
1627	4.33514e+02	1.62700e+03	2.05366e-02	4.32333e+02
1629	4.34160e+02	1.62900e+03	1.99538e-02	4.33000e+02
1631	4.34826e+02	1.63100e+03	1.93794e-02	4.33667e+02
1633	4.35484e+02	1.63300e+03	1.88691e-02	4.34333e+02
1635	4.36139e+02	1.63500e+03	1.83663e-02	4.35000e+02
1637	4.36828e+02	1.63700e+03	1.79207e-02	4.35667e+02
1639	4.37506e+02	1.63900e+03	1.75042e-02	4.36333e+02
1641	4.38181e+02	1.64100e+03	1.71544e-02	4.37000e+02
1643	4.38848e+02	1.64300e+03	1.68100e-02	4.37667e+02
1645	4.39516e+02	1.64500e+03	1.65233e-02	4.38333e+02
1647	4.40171e+02	1.64700e+03	1.62454e-02	4.39000e+02
1649	4.40834e+02	1.64900e+03	1.60101e-02	4.39667e+02
1651	4.41481e+02	1.65100e+03	1.57820e-02	4.40333e+02
1653	4.42150e+02	1.65300e+03	1.55998e-02	4.41000e+02
1655	4.42775e+02	1.65500e+03	1.54290e-02	4.41667e+02
1657	4.43421e+02	1.65700e+03	1.52835e-02	4.42333e+02
1659	4.44075e+02	1.65900e+03	1.51301e-02	4.43000e+02
1661	4.44726e+02	1.66100e+03	1.49842e-02	4.43667e+02
1663	4.45370e+02	1.66300e+03	1.48500e-02	4.44333e+02
1665	4.46031e+02	1.66500e+03	1.47379e-02	4.45000e+02
1667	4.46685e+02	1.66700e+03	1.46316e-02	4.45667e+02
1669	4.47331e+02	1.66900e+03	1.45454e-02	4.46333e+02
1671	4.47976e+02	1.67100e+03	1.44725e-02	4.47000e+02
1673	4.48628e+02	1.67300e+03	1.44464e-02	4.47667e+02
1675	4.49256e+02	1.67500e+03	1.44389e-02	4.48333e+02
1677	4.49899e+02	1.67700e+03	1.44544e-02	4.49000e+02
1679	4.50537e+02	1.67900e+03	1.44239e-02	4.49667e+02
1681	4.51179e+02	1.68100e+03	1.43478e-02	4.50333e+02
1683	4.51817e+02	1.68300e+03	1.42651e-02	4.51000e+02
1685	4.52462e+02	1.68500e+03	1.41670e-02	4.51667e+02
1687	4.53110e+02	1.68700e+03	1.40996e-02	4.52333e+02
1689	4.53740e+02	1.68900e+03	1.40661e-02	4.53000e+02
1691	4.54386e+02	1.69100e+03	1.40394e-02	4.53667e+02
1693	4.55049e+02	1.69300e+03	1.40372e-02	4.54333e+02
1695	4.55705e+02	1.69500e+03	1.40238e-02	4.55000e+02
1697	4.56376e+02	1.69700e+03	1.40002e-02	4.55667e+02
1699	4.57028e+02	1.69900e+03	1.39708e-02	4.56333e+02
1701	4.57705e+02	1.70100e+03	1.39244e-02	4.57000e+02
1703	4.58355e+02	1.70300e+03	1.38860e-02	4.57667e+02
1705	4.59019e+02	1.70500e+03	1.38529e-02	4.58333e+02
1707	4.59693e+02	1.70700e+03	1.38256e-02	4.59000e+02
1709	4.60344e+02	1.70900e+03	1.38085e-02	4.59667e+02
1711	4.61004e+02	1.71100e+03	1.37870e-02	4.60333e+02
1713	4.61655e+02	1.71300e+03	1.37650e-02	4.61000e+02
1715	4.62298e+02	1.71500e+03	1.37462e-02	4.61667e+02
1717	4.62960e+02	1.71700e+03	1.37326e-02	4.62333e+02
1719	4.63605e+02	1.71900e+03	1.37149e-02	4.63000e+02
1721	4.64258e+02	1.72100e+03	1.36809e-02	4.63667e+02
1723	4.64918e+02	1.72300e+03	1.36376e-02	4.64333e+02
1725	4.65591e+02	1.72500e+03	1.35946e-02	4.65000e+02
1727	4.66242e+02	1.72700e+03	1.35746e-02	4.65667e+02
1729	4.66901e+02	1.72900e+03	1.35731e-02	4.66333e+02
1731	4.67559e+02	1.73100e+03	1.35552e-02	4.67000e+02
1733	4.68249e+02	1.73300e+03	1.35319e-02	4.67667e+02
1735	4.68955e+02	1.73500e+03	1.35140e-02	4.68333e+02
1737	4.69741e+02	1.73700e+03	1.34972e-02	4.69000e+02
1739	4.70441e+02	1.73900e+03	1.34692e-02	4.69667e+02
1741	4.71168e+02	1.74100e+03	1.34373e-02	4.70333e+02
1743	4.71844e+02	1.74300e+03	1.34118e-02	4.71000e+02
1745	4.72492e+02	1.74500e+03	1.33866e-02	4.71667e+02
1747	4.73147e+02	1.74700e+03	1.33680e-02	4.72333e+02
1749	4.73797e+02	1.74900e+03	1.33644e-02	4.73000e+02
1751	4.74452e+02	1.75100e+03	1.33656e-02	4.73667e+02
1753	4.75157e+02	1.75300e+03	1.33666e-02	4.74333e+02
1755	4.75859e+02	1.75500e+03	1.33502e-02	4.75000e+02
1757	4.76575e+02	1.75700e+03	1.33052e-02	4.75667e+02
1759	4.77389e+02	1.75900e+03	1.32641e-02	4.76333e+02
1761	4.78188e+02	1.76100e+03	1.32183e-02	4.77000e+02
1763	4.78853e+02	1.76300e+03	1.31864e-02	4.77667e+02
1765	4.79529e+02	1.76500e+03	1.31741e-02	4.78333e+02
1767	4.80169e+02	1.76700e+03	1.31654e-02	4.79000e+02
1769	4.80822e+02	1.76900e+03	1.31674e-02	4.79667e+02
1771	4.81510e+02	1.77100e+03	1.31637e-02	4.80333e+02
1773	4.82245e+02	1.77300e+03	1.31489e-02	4.81000e+02
1775	4.82968e+02	1.77500e+03	1.31230e-02	4.81667e+02
1777	4.83557e+02	1.77700e+03	1.30873e-02	4.82333e+02
1779	4.84154e+02	1.77900e+03	1.30637e-02	4.83000e+02
1781	4.84755e+02	1.78100e+03	1.30543e-02	4.83667e+02
1783	4.85352e+02	1.78300e+03	1.30537e-02	4.84333e+02
1785	4.85957e+02	1.78500e+03	1.30697e-02	4.85000e+02
1787	4.86561e+02	1.78700e+03	1.30808e-02	4.85667e+02
1789	4.87179e+02	1.78900e+03	1.30924e-02	4.86333e+02
1791	4.87810e+02	1.79100e+03	1.31033e-02	4.87000e+02
1793	4.88462e+02	1.79300e+03	1.31114e-02	4.87667e+02
1795	4.89064e+02	1.79500e+03	1.31183e-02	4.88333e+02
1797	4.89695e+02	1.79700e+03	1.31143e-02	4.89000e+02
1799	4.90334e+02	1.79900e+03	1.31035e-02	4.89667e+02
1801	4.90979e+02	1.80100e+03	1.30819e-02	4.90333e+02
1803	4.91614e+02	1.80300e+03	1.30736e-02	4.91000e+02
1805	4.92246e+02	1.80500e+03	1.30828e-02	4.91667e+02
1807	4.92866e+02	1.80700e+03	1.30968e-02	4.92333e+02
1809	4.93521e+02	1.80900e+03	1.31139e-02	4.93000e+02
1811	4.94236e+02	1.81100e+03	1.31131e-02	4.93667e+02
1813	4.94983e+02	1.81300e+03	1.31024e-02	4.94333e+02
1815	4.95608e+02	1.81500e+03	1.31089e-02	4.95000e+02
1817	4.96208e+02	1.81700e+03	1.31203e-02	4.95667e+02
1819	4.96823e+02	1.81900e+03	1.31152e-02	4.96333e+02
1821	4.97425e+02	1.82100e+03	1.30981e-02	4.97000e+02
1823	4.98023e+02	1.82300e+03	1.30767e-02	4.97667e+02
1825	4.98636e+02	1.82500e+03	1.30347e-02	4.98333e+02
1827	4.99268e+02	1.82700e+03	1.29950e-02	4.99000e+02
1829	4.99895e+02	1.82900e+03	1.29616e-02	4.99667e+02
1831	5.00472e+02	1.83100e+03	1.29418e-02	5.00333e+02
1833	5.01069e+02	1.83300e+03	1.29417e-02	5.01000e+02
1835	5.01648e+02	1.83500e+03	1.29332e-02	5.01667e+02
1837	5.02230e+02	1.83700e+03	1.29270e-02	5.02333e+02
1839	5.02818e+02	1.83900e+03	1.29181e-02	5.03000e+02
1841	5.03406e+02	1.84100e+03	1.29136e-02	5.03667e+02
1843	5.04006e+02	1.84300e+03	1.29167e-02	5.04333e+02
1845	5.04618e+02	1.84500e+03	1.29148e-02	5.05000e+02
1847	5.05228e+02	1.84700e+03	1.28962e-02	5.05667e+02
1849	5.05838e+02	1.84900e+03	1.28650e-02	5.06333e+02
1851	5.06465e+02	1.85100e+03	1.28420e-02	5.07000e+02
1853	5.07117e+02	1.85300e+03	1.28217e-02	5.07667e+02
1855	5.07755e+02	1.85500e+03	1.28000e-02	5.08333e+02
1857	5.08385e+02	1.85700e+03	1.27805e-02	5.09000e+02
1859	5.09015e+02	1.85900e+03	1.27651e-02	5.09667e+02
1861	5.09661e+02	1.86100e+03	1.27537e-02	5.10333e+02
1863	5.10294e+02	1.86300e+03	1.27432e-02	5.11000e+02
1865	5.10933e+02	1.86500e+03	1.27341e-02	5.11667e+02
1867	5.11572e+02	1.86700e+03	1.27208e-02	5.12333e+02
1869	5.12225e+02	1.86900e+03	1.27103e-02	5.13000e+02
1871	5.12867e+02	1.87100e+03	1.27149e-02	5.13667e+02
1873	5.13506e+02	1.87300e+03	1.27339e-02	5.14333e+02
1875	5.14139e+02	1.87500e+03	1.27469e-02	5.15000e+02
1877	5.14783e+02	1.87700e+03	1.27471e-02	5.15667e+02
1879	5.15424e+02	1.87900e+03	1.27374e-02	5.16333e+02
1881	5.16073e+02	1.88100e+03	1.27141e-02	5.17000e+02
1883	5.16709e+02	1.88300e+03	1.27061e-02	5.17667e+02
1885	5.17360e+02	1.88500e+03	1.27136e-02	5.18333e+02
1887	5.18017e+02	1.88700e+03	1.27220e-02	5.19000e+02
1889	5.18651e+02	1.88900e+03	1.27386e-02	5.19667e+02
1891	5.19285e+02	1.89100e+03	1.27519e-02	5.20333e+02
1893	5.19948e+02	1.89300e+03	1.27644e-02	5.21000e+02
1895	5.20587e+02	1.89500e+03	1.27705e-02	5.21667e+02
1897	5.21237e+02	1.89700e+03	1.27571e-02	5.22333e+02
1899	5.21871e+02	1.89900e+03	1.27275e-02	5.23000e+02
1901	5.22531e+02	1.90100e+03	1.26821e-02	5.23667e+02
1903	5.23183e+02	1.90300e+03	1.26507e-02	5.24333e+02
1905	5.23839e+02	1.90500e+03	1.26327e-02	5.25000e+02
1907	5.24496e+02	1.90700e+03	1.26239e-02	5.25667e+02
1909	5.25152e+02	1.90900e+03	1.26353e-02	5.26333e+02
1911	5.25792e+02	1.91100e+03	1.26397e-02	5.27000e+02
1913	5.26444e+02	1.91300e+03	1.26429e-02	5.27667e+02
1915	5.27082e+02	1.91500e+03	1.26379e-02	5.28333e+02
1917	5.27731e+02	1.91700e+03	1.26111e-02	5.29000e+02
1919	5.28364e+02	1.91900e+03	1.25776e-02	5.29667e+02
1921	5.29022e+02	1.92100e+03	1.25472e-02	5.30333e+02
1923	5.29665e+02	1.92300e+03	1.25396e-02	5.31000e+02
1925	5.30318e+02	1.92500e+03	1.25619e-02	5.31667e+02
1927	5.30947e+02	1.92700e+03	1.25833e-02	5.32333e+02
1929	5.31599e+02	1.92900e+03	1.26153e-02	5.33000e+02
1931	5.32252e+02	1.93100e+03	1.26335e-02	5.33667e+02
1933	5.32894e+02	1.93300e+03	1.26359e-02	5.34333e+02
1935	5.33547e+02	1.93500e+03	1.26391e-02	5.35000e+02
1937	5.34198e+02	1.93700e+03	1.26381e-02	5.35667e+02
1939	5.34851e+02	1.93900e+03	1.26438e-02	5.36333e+02
1941	5.35500e+02	1.94100e+03	1.26481e-02	5.37000e+02
1943	5.36155e+02	1.94300e+03	1.26431e-02	5.37667e+02
1945	5.36802e+02	1.94500e+03	1.26265e-02	5.38333e+02
1947	5.37453e+02	1.94700e+03	1.26101e-02	5.39000e+02
1949	5.38113e+02	1.94900e+03	1.25827e-02	5.39667e+02
1951	5.38756e+02	1.95100e+03	1.25574e-02	5.40333e+02
1953	5.39415e+02	1.95300e+03	1.25438e-02	5.41000e+02
1955	5.40068e+02	1.95500e+03	1.25468e-02	5.41667e+02
1957	5.40714e+02	1.95700e+03	1.25740e-02	5.42333e+02
1959	5.41355e+02	1.95900e+03	1.25911e-02	5.43000e+02
1961	5.42007e+02	1.96100e+03	1.26094e-02	5.43667e+02
1963	5.42660e+02	1.96300e+03	1.26241e-02	5.44333e+02
1965	5.43318e+02	1.96500e+03	1.26282e-02	5.45000e+02
1967	5.43962e+02	1.96700e+03	1.26201e-02	5.45667e+02
1969	5.44614e+02	1.96900e+03	1.26005e-02	5.46333e+02
1971	5.45268e+02	1.97100e+03	1.25853e-02	5.47000e+02
1973	5.45929e+02	1.97300e+03	1.25671e-02	5.47667e+02
1975	5.46577e+02	1.97500e+03	1.25498e-02	5.48333e+02
1977	5.47234e+02	1.97700e+03	1.25370e-02	5.49000e+02
1979	5.47901e+02	1.97900e+03	1.25274e-02	5.49667e+02
1981	5.48543e+02	1.98100e+03	1.25259e-02	5.50333e+02
1983	5.49211e+02	1.98300e+03	1.25195e-02	5.51000e+02
1985	5.49865e+02	1.98500e+03	1.25020e-02	5.51667e+02
1987	5.50521e+02	1.98700e+03	1.24778e-02	5.52333e+02
1989	5.51172e+02	1.98900e+03	1.24285e-02	5.53000e+02
1991	5.51846e+02	1.99100e+03	1.23682e-02	5.53667e+02
1993	5.52500e+02	1.99300e+03	1.23001e-02	5.54333e+02
1995	5.53165e+02	1.99500e+03	1.22556e-02	5.55000e+02
1997	5.53819e+02	1.99700e+03	1.22448e-02	5.55667e+02
1999	5.54485e+02	1.99900e+03	1.22547e-02	5.56333e+02
2001	5.55148e+02	2.00100e+03	1.23192e-02	5.57000e+02
2003	5.55814e+02	2.00300e+03	1.23773e-02	5.57667e+02
2005	5.56473e+02	2.00500e+03	1.24349e-02	5.58333e+02
2007	5.57138e+02	2.00700e+03	1.24614e-02	5.59000e+02
2009	5.57797e+02	2.00900e+03	1.24409e-02	5.59667e+02
2011	5.58446e+02	2.01100e+03	1.24167e-02	5.60333e+02
2013	5.59118e+02	2.01300e+03	1.23630e-02	5.61000e+02
2015	5.59772e+02	2.01500e+03	1.23230e-02	5.61667e+02
2017	5.60433e+02	2.01700e+03	1.22999e-02	5.62333e+02
2019	5.61085e+02	2.01900e+03	1.22991e-02	5.63000e+02
2021	5.61752e+02	2.02100e+03	1.23395e-02	5.63667e+02
2023	5.62410e+02	2.02300e+03	1.23799e-02	5.64333e+02
2025	5.63058e+02	2.02500e+03	1.24338e-02	5.65000e+02
2027	5.63718e+02	2.02700e+03	1.24740e-02	5.65667e+02
2029	5.64366e+02	2.02900e+03	1.25004e-02	5.66333e+02
2031	5.65022e+02	2.03100e+03	1.25196e-02	5.67000e+02
2033	5.65677e+02	2.03300e+03	1.25137e-02	5.67667e+02
2035	5.66349e+02	2.03500e+03	1.25076e-02	5.68333e+02
2037	5.67005e+02	2.03700e+03	1.25002e-02	5.69000e+02
2039	5.67660e+02	2.03900e+03	1.25070e-02	5.69667e+02
2041	5.68311e+02	2.04100e+03	1.25275e-02	5.70333e+02
2043	5.68978e+02	2.04300e+03	1.25337e-02	5.71000e+02
2045	5.69618e+02	2.04500e+03	1.25138e-02	5.71667e+02
2047	5.70291e+02	2.04700e+03	1.24840e-02	5.72333e+02
2049	5.70933e+02	2.04900e+03	1.24433e-02	5.73000e+02
2051	5.71598e+02	2.05100e+03	1.24231e-02	5.73667e+02
2053	5.72252e+02	2.05300e+03	1.24214e-02	5.74333e+02
2055	5.72898e+02	2.05500e+03	1.24047e-02	5.75000e+02
2057	5.73568e+02	2.05700e+03	1.23755e-02	5.75667e+02
2059	5.74214e+02	2.05900e+03	1.23498e-02	5.76333e+02
2061	5.74873e+02	2.06100e+03	1.23389e-02	5.77000e+02
2063	5.75535e+02	2.06300e+03	1.23515e-02	5.77667e+02
2065	5.76180e+02	2.06500e+03	1.23936e-02	5.78333e+02
2067	5.76843e+02	2.06700e+03	1.24174e-02	5.79000e+02
2069	5.77511e+02	2.06900e+03	1.24243e-02	5.79667e+02
2071	5.78166e+02	2.07100e+03	1.24129e-02	5.80333e+02
2073	5.78825e+02	2.07300e+03	1.23697e-02	5.81000e+02
2075	5.79484e+02	2.07500e+03	1.23258e-02	5.81667e+02
2077	5.80141e+02	2.07700e+03	1.22832e-02	5.82333e+02
2079	5.80803e+02	2.07900e+03	1.22601e-02	5.83000e+02
2081	5.81459e+02	2.08100e+03	1.22609e-02	5.83667e+02
2083	5.82124e+02	2.08300e+03	1.22554e-02	5.84333e+02
2085	5.82777e+02	2.08500e+03	1.22606e-02	5.85000e+02
2087	5.83429e+02	2.08700e+03	1.22640e-02	5.85667e+02
2089	5.84094e+02	2.08900e+03	1.22665e-02	5.86333e+02
2091	5.84744e+02	2.09100e+03	1.22732e-02	5.87000e+02
2093	5.85403e+02	2.09300e+03	1.22837e-02	5.87667e+02
2095	5.86075e+02	2.09500e+03	1.23009e-02	5.88333e+02
2097	5.86747e+02	2.09700e+03	1.23306e-02	5.89000e+02
2099	5.87412e+02	2.09900e+03	1.23644e-02	5.89667e+02
2101	5.88088e+02	2.10100e+03	1.23955e-02	5.90333e+02
2103	5.88753e+02	2.10300e+03	1.24111e-02	5.91000e+02
2105	5.89415e+02	2.10500e+03	1.23849e-02	5.91667e+02
2107	5.90088e+02	2.10700e+03	1.23459e-02	5.92333e+02
2109	5.90745e+02	2.10900e+03	1.22765e-02	5.93000e+02
2111	5.91413e+02	2.11100e+03	1.22356e-02	5.93667e+02
2113	5.92087e+02	2.11300e+03	1.22180e-02	5.94333e+02
2115	5.92766e+02	2.11500e+03	1.22036e-02	5.95000e+02
2117	5.93422e+02	2.11700e+03	1.22057e-02	5.95667e+02
2119	5.94073e+02	2.11900e+03	1.22065e-02	5.96333e+02
2121	5.94746e+02	2.12100e+03	1.22144e-02	5.97000e+02
2123	5.95461e+02	2.12300e+03	1.22289e-02	5.97667e+02
2125	5.96127e+02	2.12500e+03	1.22568e-02	5.98333e+02
2127	5.96844e+02	2.12700e+03	1.22811e-02	5.99000e+02
2129	5.97522e+02	2.12900e+03	1.23043e-02	5.99667e+02
2131	5.98186e+02	2.13100e+03	1.23231e-02	6.00333e+02
2133	5.98826e+02	2.13300e+03	1.23347e-02	6.01000e+02
2135	5.99483e+02	2.13500e+03	1.23452e-02	6.01667e+02
2137	6.00102e+02	2.13700e+03	1.23491e-02	6.02333e+02
2139	6.00736e+02	2.13900e+03	1.23476e-02	6.03000e+02
2141	6.01417e+02	2.14100e+03	1.23352e-02	6.03667e+02
2143	6.02082e+02	2.14300e+03	1.23259e-02	6.04333e+02
2145	6.02742e+02	2.14500e+03	1.23230e-02	6.05000e+02
2147	6.03404e+02	2.14700e+03	1.23207e-02	6.05667e+02
2149	6.04063e+02	2.14900e+03	1.23071e-02	6.06333e+02
2151	6.04727e+02	2.15100e+03	1.22751e-02	6.07000e+02
2153	6.05387e+02	2.15300e+03	1.22275e-02	6.07667e+02
2155	6.06042e+02	2.15500e+03	1.22018e-02	6.08333e+02
2157	6.06703e+02	2.15700e+03	1.21918e-02	6.09000e+02
2159	6.07354e+02	2.15900e+03	1.21832e-02	6.09667e+02
2161	6.08004e+02	2.16100e+03	1.21873e-02	6.10333e+02
2163	6.08656e+02	2.16300e+03	1.21955e-02	6.11000e+02
2165	6.09315e+02	2.16500e+03	1.21961e-02	6.11667e+02
2167	6.09960e+02	2.16700e+03	1.21932e-02	6.12333e+02
2169	6.10617e+02	2.16900e+03	1.21857e-02	6.13000e+02
2171	6.11272e+02	2.17100e+03	1.21938e-02	6.13667e+02
2173	6.11937e+02	2.17300e+03	1.22049e-02	6.14333e+02
2175	6.12599e+02	2.17500e+03	1.22047e-02	6.15000e+02
2177	6.13259e+02	2.17700e+03	1.21974e-02	6.15667e+02
2179	6.13935e+02	2.17900e+03	1.21951e-02	6.16333e+02
2181	6.14595e+02	2.18100e+03	1.21942e-02	6.17000e+02
2183	6.15278e+02	2.18300e+03	1.21873e-02	6.17667e+02
2185	6.15938e+02	2.18500e+03	1.21632e-02	6.18333e+02
2187	6.16621e+02	2.18700e+03	1.21318e-02	6.19000e+02
2189	6.17276e+02	2.18900e+03	1.20922e-02	6.19667e+02
2191	6.17952e+02	2.19100e+03	1.20691e-02	6.20333e+02
2193	6.18613e+02	2.19300e+03	1.20660e-02	6.21000e+02
2195	6.19273e+02	2.19500e+03	1.20547e-02	6.21667e+02
2197	6.19946e+02	2.19700e+03	1.20547e-02	6.22333e+02
2199	6.20614e+02	2.19900e+03	1.20633e-02	6.23000e+02
2201	6.21288e+02	2.20100e+03	1.20701e-02	6.23667e+02
2203	6.21949e+02	2.20300e+03	1.20688e-02	6.24333e+02
2205	6.22612e+02	2.20500e+03	1.20642e-02	6.25000e+02
2207	6.23268e+02	2.20700e+03	1.20659e-02	6.25667e+02
2209	6.23955e+02	2.20900e+03	1.20785e-02	6.26333e+02
2211	6.24612e+02	2.21100e+03	1.20980e-02	6.27000e+02
2213	6.25269e+02	2.21300e+03	1.21283e-02	6.27667e+02
2215	6.25931e+02	2.21500e+03	1.21459e-02	6.28333e+02
2217	6.26594e+02	2.21700e+03	1.21428e-02	6.29000e+02
2219	6.27260e+02	2.21900e+03	1.21303e-02	6.29667e+02
2221	6.27944e+02	2.22100e+03	1.21030e-02	6.30333e+02
2223	6.28596e+02	2.22300e+03	1.20914e-02	6.31000e+02
2225	6.29276e+02	2.22500e+03	1.20947e-02	6.31667e+02
2227	6.29965e+02	2.22700e+03	1.21067e-02	6.32333e+02
2229	6.30638e+02	2.22900e+03	1.21292e-02	6.33000e+02
2231	6.31329e+02	2.23100e+03	1.21339e-02	6.33667e+02
2233	6.32010e+02	2.23300e+03	1.21249e-02	6.34333e+02
2235	6.32727e+02	2.23500e+03	1.21109e-02	6.35000e+02
2237	6.33441e+02	2.23700e+03	1.20865e-02	6.35667e+02
2239	6.34187e+02	2.23900e+03	1.20678e-02	6.36333e+02
2241	6.34937e+02	2.24100e+03	1.20570e-02	6.37000e+02
2243	6.35692e+02	2.24300e+03	1.20418e-02	6.37667e+02
2245	6.36388e+02	2.24500e+03	1.20356e-02	6.38333e+02
2247	6.36989e+02	2.24700e+03	1.20386e-02	6.39000e+02
2249	6.37633e+02	2.24900e+03	1.20560e-02	6.39667e+02
2251	6.38251e+02	2.25100e+03	1.20736e-02	6.40333e+02
2253	6.38899e+02	2.25300e+03	1.20967e-02	6.41000e+02
2255	6.39620e+02	2.25500e+03	1.21168e-02	6.41667e+02
2257	6.40299e+02	2.25700e+03	1.21310e-02	6.42333e+02
2259	6.40972e+02	2.25900e+03	1.21434e-02	6.43000e+02
2261	6.41620e+02	2.26100e+03	1.21492e-02	6.43667e+02
2263	6.42266e+02	2.26300e+03	1.21473e-02	6.44333e+02
2265	6.42880e+02	2.26500e+03	1.21322e-02	6.45000e+02
2267	6.43530e+02	2.26700e+03	1.21086e-02	6.45667e+02
2269	6.44187e+02	2.26900e+03	1.20696e-02	6.46333e+02
2271	6.44850e+02	2.27100e+03	1.20482e-02	6.47000e+02
2273	6.45507e+02	2.27300e+03	1.20489e-02	6.47667e+02
2275	6.46170e+02	2.27500e+03	1.20466e-02	6.48333e+02
2277	6.46810e+02	2.27700e+03	1.20464e-02	6.49000e+02
2279	6.47472e+02	2.27900e+03	1.20303e-02	6.49667e+02
2281	6.48118e+02	2.28100e+03	1.20048e-02	6.50333e+02
2283	6.48789e+02	2.28300e+03	1.20035e-02	6.51000e+02
2285	6.49446e+02	2.28500e+03	1.20294e-02	6.51667e+02
2287	6.50106e+02	2.28700e+03	1.20450e-02	6.52333e+02
2289	6.50755e+02	2.28900e+03	1.20599e-02	6.53000e+02
2291	6.51420e+02	2.29100e+03	1.20652e-02	6.53667e+02
2293	6.52076e+02	2.29300e+03	1.20661e-02	6.54333e+02
2295	6.52734e+02	2.29500e+03	1.20756e-02	6.55000e+02
2297	6.53382e+02	2.29700e+03	1.20793e-02	6.55667e+02
2299	6.54055e+02	2.29900e+03	1.20709e-02	6.56333e+02
2301	6.54700e+02	2.30100e+03	1.20593e-02	6.57000e+02
2303	6.55362e+02	2.30300e+03	1.20688e-02	6.57667e+02
2305	6.56030e+02	2.30500e+03	1.20883e-02	6.58333e+02
2307	6.56681e+02	2.30700e+03	1.20896e-02	6.59000e+02
2309	6.57349e+02	2.30900e+03	1.20923e-02	6.59667e+02
2311	6.57997e+02	2.31100e+03	1.21151e-02	6.60333e+02
2313	6.58656e+02	2.31300e+03	1.21555e-02	6.61000e+02
2315	6.59324e+02	2.31500e+03	1.21846e-02	6.61667e+02
2317	6.59990e+02	2.31700e+03	1.22070e-02	6.62333e+02
2319	6.60650e+02	2.31900e+03	1.22152e-02	6.63000e+02
2321	6.61311e+02	2.32100e+03	1.21941e-02	6.63667e+02
2323	6.61967e+02	2.32300e+03	1.21853e-02	6.64333e+02
2325	6.62633e+02	2.32500e+03	1.21742e-02	6.65000e+02
2327	6.63300e+02	2.32700e+03	1.21596e-02	6.65667e+02
2329	6.63959e+02	2.32900e+03	1.21382e-02	6.66333e+02
2331	6.64631e+02	2.33100e+03	1.21188e-02	6.67000e+02
2333	6.65292e+02	2.33300e+03	1.21038e-02	6.67667e+02
2335	6.65957e+02	2.33500e+03	1.20925e-02	6.68333e+02
2337	6.66621e+02	2.33700e+03	1.20881e-02	6.69000e+02
2339	6.67285e+02	2.33900e+03	1.20719e-02	6.69667e+02
2341	6.67948e+02	2.34100e+03	1.20439e-02	6.70333e+02
2343	6.68616e+02	2.34300e+03	1.20221e-02	6.71000e+02
2345	6.69280e+02	2.34500e+03	1.20120e-02	6.71667e+02
2347	6.69939e+02	2.34700e+03	1.19998e-02	6.72333e+02
2349	6.70588e+02	2.34900e+03	1.19924e-02	6.73000e+02
2351	6.71249e+02	2.35100e+03	1.19738e-02	6.73667e+02
2353	6.71909e+02	2.35300e+03	1.19605e-02	6.74333e+02
2355	6.72567e+02	2.35500e+03	1.19670e-02	6.75000e+02
2357	6.73232e+02	2.35700e+03	1.19941e-02	6.75667e+02
2359	6.73887e+02	2.35900e+03	1.20076e-02	6.76333e+02
2361	6.74552e+02	2.36100e+03	1.20055e-02	6.77000e+02
2363	6.75209e+02	2.36300e+03	1.19948e-02	6.77667e+02
2365	6.75878e+02	2.36500e+03	1.19677e-02	6.78333e+02
2367	6.76532e+02	2.36700e+03	1.19558e-02	6.79000e+02
2369	6.77197e+02	2.36900e+03	1.19500e-02	6.79667e+02
2371	6.77861e+02	2.37100e+03	1.19413e-02	6.80333e+02
2373	6.78531e+02	2.37300e+03	1.19286e-02	6.81000e+02
2375	6.79183e+02	2.37500e+03	1.19129e-02	6.81667e+02
2377	6.79835e+02	2.37700e+03	1.18883e-02	6.82333e+02
2379	6.80511e+02	2.37900e+03	1.18587e-02	6.83000e+02
2381	6.81179e+02	2.38100e+03	1.18221e-02	6.83667e+02
2383	6.81835e+02	2.38300e+03	1.17829e-02	6.84333e+02
2385	6.82496e+02	2.38500e+03	1.17358e-02	6.85000e+02
2387	6.83157e+02	2.38700e+03	1.16946e-02	6.85667e+02
2389	6.83818e+02	2.38900e+03	1.16788e-02	6.86333e+02
2391	6.84486e+02	2.39100e+03	1.16876e-02	6.87000e+02
2393	6.85144e+02	2.39300e+03	1.17429e-02	6.87667e+02
2395	6.85814e+02	2.39500e+03	1.17878e-02	6.88333e+02
2397	6.86469e+02	2.39700e+03	1.18278e-02	6.89000e+02
2399	6.87132e+02	2.39900e+03	1.18459e-02	6.89667e+02
2401	6.87797e+02	2.40100e+03	1.18333e-02	6.90333e+02
2403	6.88458e+02	2.40300e+03	1.18260e-02	6.91000e+02
2405	6.88908e+02	2.40500e+03	1.18230e-02	6.91667e+02
2407	6.89246e+02	2.40700e+03	1.18357e-02	6.92333e+02
2409	6.89743e+02	2.40900e+03	1.18604e-02	6.93000e+02
2411	6.90212e+02	2.41100e+03	1.18717e-02	6.93667e+02
2413	6.90667e+02	2.41300e+03	1.18609e-02	6.94333e+02
2415	6.91076e+02	2.41500e+03	1.18375e-02	6.95000e+02
2417	6.91465e+02	2.41700e+03	1.18020e-02	6.95667e+02
2419	6.91841e+02	2.41900e+03	1.17836e-02	6.96333e+02
2421	6.92179e+02	2.42100e+03	1.17766e-02	6.97000e+02
2423	6.92499e+02	2.42300e+03	1.17705e-02	6.97667e+02
2425	6.92802e+02	2.42500e+03	1.17780e-02	6.98333e+02
2427	6.93085e+02	2.42700e+03	1.17932e-02	6.99000e+02
2429	6.93349e+02	2.42900e+03	1.18210e-02	6.99667e+02
2430	6.93485e+02	2.43000e+03	1.18322e-02	7.00000e+02