File: Experiments/TUBS/tga_nonisotherm/tga_dynamic_n2high60_dyn30_powder_3mg_r3.txt
Index	Ts	t	Weight	Tr
[#]	[°C]	[s]	[mg]	[°C]
682	1.30227e+02	6.82000e+02	2.98035	131.0
684	1.31235e+02	6.84000e+02	2.98026	132.0
686	1.32239e+02	6.86000e+02	2.98015	133.0
688	1.33240e+02	6.88000e+02	2.98004	134.0
690	1.34229e+02	6.90000e+02	2.97997	135.0
692	1.35232e+02	6.92000e+02	2.97995	136.0
694	1.36233e+02	6.94000e+02	2.97993	137.0
696	1.37252e+02	6.96000e+02	2.9799	138.0
698	1.38259e+02	6.98000e+02	2.97986	139.0
700	1.39247e+02	7.00000e+02	2.97977	140.0
702	1.40263e+02	7.02000e+02	2.97966	141.0
704	1.41269e+02	7.04000e+02	2.9795	142.0
706	1.42267e+02	7.06000e+02	2.97932	143.0
708	1.43277e+02	7.08000e+02	2.97911	144.0
710	1.44275e+02	7.10000e+02	2.97887	145.0
712	1.45281e+02	7.12000e+02	2.97861	146.0
714	1.46283e+02	7.14000e+02	2.97834	147.0
716	1.47286e+02	7.16000e+02	2.97806	148.0
718	1.48296e+02	7.18000e+02	2.97777	149.0
720	1.49299e+02	7.20000e+02	2.97745	150.0
722	1.50315e+02	7.22000e+02	2.97712	151.0
724	1.51324e+02	7.24000e+02	2.97678	152.0
726	1.52330e+02	7.26000e+02	2.97644	153.0
728	1.53332e+02	7.28000e+02	2.97606	154.0
730	1.54348e+02	7.30000e+02	2.97563	155.0
732	1.55348e+02	7.32000e+02	2.97514	156.0
734	1.56358e+02	7.34000e+02	2.97463	157.0
736	1.57375e+02	7.36000e+02	2.97413	158.0
738	1.58381e+02	7.38000e+02	2.97363	159.0
740	1.59394e+02	7.40000e+02	2.97312	160.0
742	1.60397e+02	7.42000e+02	2.97259	161.0
744	1.61394e+02	7.44000e+02	2.97203	162.0
746	1.62418e+02	7.46000e+02	2.97143	163.0
748	1.63418e+02	7.48000e+02	2.97078	164.0
750	1.64441e+02	7.50000e+02	2.97011	165.0
752	1.65439e+02	7.52000e+02	2.9694	166.0
754	1.66447e+02	7.54000e+02	2.96864	167.0
756	1.67460e+02	7.56000e+02	2.96783	168.0
758	1.68468e+02	7.58000e+02	2.96698	169.0
760	1.69477e+02	7.60000e+02	2.96606	170.0
762	1.70484e+02	7.62000e+02	2.96507	171.0
764	1.71498e+02	7.64000e+02	2.96399	172.0
766	1.72510e+02	7.66000e+02	2.96289	173.0
768	1.73530e+02	7.68000e+02	2.96171	174.0
770	1.74526e+02	7.70000e+02	2.96045	175.0
772	1.75545e+02	7.72000e+02	2.95902	176.0
774	1.76562e+02	7.74000e+02	2.9575	177.0
776	1.77565e+02	7.76000e+02	2.9558	178.0
778	1.78572e+02	7.78000e+02	2.95398	179.0
780	1.79588e+02	7.80000e+02	2.95198	180.0
782	1.80607e+02	7.82000e+02	2.94988	181.0
784	1.81616e+02	7.84000e+02	2.9476	182.0
786	1.82616e+02	7.86000e+02	2.94521	183.0
788	1.83640e+02	7.88000e+02	2.94263	184.0
790	1.84651e+02	7.90000e+02	2.93994	185.0
792	1.85655e+02	7.92000e+02	2.93707	186.0
794	1.86675e+02	7.94000e+02	2.93411	187.0
796	1.87692e+02	7.96000e+02	2.931	188.0
798	1.88704e+02	7.98000e+02	2.92781	189.0
800	1.89727e+02	8.00000e+02	2.92449	190.0
802	1.90748e+02	8.02000e+02	2.92109	191.0
804	1.91765e+02	8.04000e+02	2.91758	192.0
806	1.92778e+02	8.06000e+02	2.91403	193.0
808	1.93790e+02	8.08000e+02	2.91045	194.0
810	1.94808e+02	8.10000e+02	2.90687	195.0
812	1.95824e+02	8.12000e+02	2.90333	196.0
814	1.96839e+02	8.14000e+02	2.89982	197.0
816	1.97860e+02	8.16000e+02	2.89638	198.0
818	1.98884e+02	8.18000e+02	2.89299	199.0
820	1.99908e+02	8.20000e+02	2.8897	200.0
822	2.00911e+02	8.22000e+02	2.8865	201.0
824	2.01942e+02	8.24000e+02	2.88345	202.0
826	2.02962e+02	8.26000e+02	2.8805	203.0
828	2.03975e+02	8.28000e+02	2.87772	204.0
830	2.05000e+02	8.30000e+02	2.87505	205.0
832	2.06012e+02	8.32000e+02	2.8726	206.0
834	2.07044e+02	8.34000e+02	2.8703	207.0
836	2.08059e+02	8.36000e+02	2.86826	208.0
838	2.09081e+02	8.38000e+02	2.86635	209.0
840	2.10096e+02	8.40000e+02	2.86465	210.0
842	2.11133e+02	8.42000e+02	2.86307	211.0
844	2.12144e+02	8.44000e+02	2.8617	212.0
846	2.13181e+02	8.46000e+02	2.86043	213.0
848	2.14180e+02	8.48000e+02	2.85932	214.0
850	2.15214e+02	8.50000e+02	2.8583	215.0
852	2.16228e+02	8.52000e+02	2.85737	216.0
854	2.17245e+02	8.54000e+02	2.85647	217.0
856	2.18254e+02	8.56000e+02	2.85561	218.0
858	2.19272e+02	8.58000e+02	2.8548	219.0
860	2.20286e+02	8.60000e+02	2.85406	220.0
862	2.21299e+02	8.62000e+02	2.85333	221.0
864	2.22313e+02	8.64000e+02	2.85264	222.0
866	2.23322e+02	8.66000e+02	2.85196	223.0
868	2.24330e+02	8.68000e+02	2.85129	224.0
870	2.25336e+02	8.70000e+02	2.8506	225.0
872	2.26343e+02	8.72000e+02	2.8499	226.0
874	2.27357e+02	8.74000e+02	2.8492	227.0
876	2.28360e+02	8.76000e+02	2.84851	228.0
878	2.29367e+02	8.78000e+02	2.84782	229.0
880	2.30389e+02	8.80000e+02	2.8471	230.0
882	2.31402e+02	8.82000e+02	2.84638	231.0
884	2.32408e+02	8.84000e+02	2.84563	232.0
886	2.33420e+02	8.86000e+02	2.84486	233.0
888	2.34439e+02	8.88000e+02	2.84408	234.0
890	2.35457e+02	8.90000e+02	2.84331	235.0
892	2.36470e+02	8.92000e+02	2.84257	236.0
894	2.37488e+02	8.94000e+02	2.84186	237.0
896	2.38490e+02	8.96000e+02	2.84119	238.0
898	2.39505e+02	8.98000e+02	2.84053	239.0
900	2.40497e+02	9.00000e+02	2.83987	240.0
902	2.41509e+02	9.02000e+02	2.83923	241.0
904	2.42503e+02	9.04000e+02	2.83862	242.0
906	2.43512e+02	9.06000e+02	2.83804	243.0
908	2.44525e+02	9.08000e+02	2.83752	244.0
910	2.45540e+02	9.10000e+02	2.83702	245.0
912	2.46542e+02	9.12000e+02	2.83653	246.0
914	2.47564e+02	9.14000e+02	2.83601	247.0
916	2.48574e+02	9.16000e+02	2.83545	248.0
918	2.49585e+02	9.18000e+02	2.83493	249.0
920	2.50601e+02	9.20000e+02	2.83447	250.0
922	2.51613e+02	9.22000e+02	2.83399	251.0
924	2.52617e+02	9.24000e+02	2.83352	252.0
926	2.53614e+02	9.26000e+02	2.83306	253.0
928	2.54619e+02	9.28000e+02	2.83262	254.0
930	2.55606e+02	9.30000e+02	2.83218	255.0
932	2.56586e+02	9.32000e+02	2.83173	256.0
934	2.57564e+02	9.34000e+02	2.83128	257.0
936	2.58561e+02	9.36000e+02	2.83083	258.0
938	2.59577e+02	9.38000e+02	2.83034	259.0
940	2.60595e+02	9.40000e+02	2.82982	260.0
942	2.61628e+02	9.42000e+02	2.82928	261.0
944	2.62653e+02	9.44000e+02	2.82873	262.0
946	2.63661e+02	9.46000e+02	2.82815	263.0
948	2.64675e+02	9.48000e+02	2.82757	264.0
950	2.65692e+02	9.50000e+02	2.82702	265.0
952	2.66700e+02	9.52000e+02	2.82654	266.0
954	2.67731e+02	9.54000e+02	2.82609	267.0
956	2.68769e+02	9.56000e+02	2.82567	268.0
958	2.69792e+02	9.58000e+02	2.82524	269.0
960	2.70809e+02	9.60000e+02	2.82478	270.0
962	2.71828e+02	9.62000e+02	2.8243	271.0
964	2.72858e+02	9.64000e+02	2.82377	272.0
966	2.73876e+02	9.66000e+02	2.82321	273.0
968	2.74865e+02	9.68000e+02	2.82262	274.0
970	2.75856e+02	9.70000e+02	2.822	275.0
972	2.76852e+02	9.72000e+02	2.82132	276.0
974	2.77846e+02	9.74000e+02	2.82062	277.0
976	2.78855e+02	9.76000e+02	2.81985	278.0
978	2.79860e+02	9.78000e+02	2.81905	279.0
980	2.80901e+02	9.80000e+02	2.81815	280.0
982	2.81931e+02	9.82000e+02	2.81722	281.0
984	2.82949e+02	9.84000e+02	2.8162	282.0
986	2.83972e+02	9.86000e+02	2.81513	283.0
988	2.85010e+02	9.88000e+02	2.81394	284.0
990	2.86027e+02	9.90000e+02	2.81269	285.0
992	2.87036e+02	9.92000e+02	2.81134	286.0
994	2.88059e+02	9.94000e+02	2.80998	287.0
996	2.89060e+02	9.96000e+02	2.80858	288.0
998	2.90090e+02	9.98000e+02	2.8071	289.0
1000	2.91097e+02	1.00000e+03	2.80551	290.0
1002	2.92112e+02	1.00200e+03	2.80382	291.0
1004	2.93138e+02	1.00400e+03	2.80196	292.0
1006	2.94150e+02	1.00600e+03	2.79998	293.0
1008	2.95148e+02	1.00800e+03	2.79783	294.0
1010	2.96143e+02	1.01000e+03	2.7956	295.0
1012	2.97180e+02	1.01200e+03	2.79322	296.0
1014	2.98196e+02	1.01400e+03	2.79073	297.0
1016	2.99228e+02	1.01600e+03	2.78806	298.0
1018	3.00263e+02	1.01800e+03	2.78529	299.0
1020	3.01299e+02	1.02000e+03	2.78234	300.0
1022	3.02353e+02	1.02200e+03	2.77928	301.0
1024	3.03420e+02	1.02400e+03	2.77604	302.0
1026	3.04446e+02	1.02600e+03	2.7727	303.0
1028	3.05451e+02	1.02800e+03	2.76919	304.0
1030	3.06449e+02	1.03000e+03	2.76559	305.0
1032	3.07467e+02	1.03200e+03	2.76188	306.0
1034	3.08480e+02	1.03400e+03	2.75813	307.0
1036	3.09496e+02	1.03600e+03	2.75429	308.0
1038	3.10557e+02	1.03800e+03	2.75037	309.0
1040	3.11605e+02	1.04000e+03	2.74633	310.0
1042	3.12615e+02	1.04200e+03	2.7422	311.0
1044	3.13623e+02	1.04400e+03	2.73797	312.0
1046	3.14680e+02	1.04600e+03	2.73367	313.0
1048	3.15752e+02	1.04800e+03	2.7293	314.0
1050	3.16751e+02	1.05000e+03	2.72491	315.0
1052	3.17780e+02	1.05200e+03	2.72051	316.0
1054	3.18782e+02	1.05400e+03	2.7161	317.0
1056	3.19793e+02	1.05600e+03	2.71171	318.0
1058	3.20822e+02	1.05800e+03	2.70733	319.0
1060	3.21840e+02	1.06000e+03	2.70296	320.0
1062	3.22851e+02	1.06200e+03	2.69856	321.0
1064	3.23872e+02	1.06400e+03	2.69409	322.0
1066	3.24851e+02	1.06600e+03	2.68955	323.0
1068	3.25862e+02	1.06800e+03	2.6849	324.0
1070	3.26868e+02	1.07000e+03	2.68014	325.0
1072	3.27867e+02	1.07200e+03	2.67518	326.0
1074	3.28876e+02	1.07400e+03	2.67008	327.0
1076	3.29903e+02	1.07600e+03	2.66473	328.0
1078	3.30910e+02	1.07800e+03	2.6592	329.0
1080	3.31929e+02	1.08000e+03	2.65336	330.0
1082	3.32972e+02	1.08200e+03	2.64726	331.0
1084	3.34029e+02	1.08400e+03	2.64073	332.0
1086	3.35037e+02	1.08600e+03	2.63391	333.0
1088	3.36051e+02	1.08800e+03	2.62655	334.0
1090	3.37024e+02	1.09000e+03	2.61883	335.0
1092	3.38036e+02	1.09200e+03	2.61047	336.0
1094	3.39031e+02	1.09400e+03	2.6017	337.0
1096	3.40066e+02	1.09600e+03	2.59224	338.0
1098	3.41062e+02	1.09800e+03	2.58235	339.0
1100	3.42083e+02	1.10000e+03	2.57171	340.0
1102	3.43196e+02	1.10200e+03	2.56059	341.0
1104	3.44247e+02	1.10400e+03	2.54862	342.0
1106	3.45269e+02	1.10600e+03	2.53608	343.0
1108	3.46244e+02	1.10800e+03	2.52257	344.0
1110	3.47243e+02	1.11000e+03	2.50845	345.0
1112	3.48210e+02	1.11200e+03	2.49326	346.0
1114	3.49102e+02	1.11400e+03	2.47735	347.0
1116	3.50039e+02	1.11600e+03	2.46026	348.0
1118	3.50988e+02	1.11800e+03	2.44247	349.0
1120	3.51937e+02	1.12000e+03	2.42348	350.0
1122	3.52871e+02	1.12200e+03	2.4037	351.0
1124	3.53864e+02	1.12400e+03	2.38259	352.0
1126	3.54825e+02	1.12600e+03	2.3607	353.0
1128	3.55830e+02	1.12800e+03	2.33748	354.0
1130	3.56811e+02	1.13000e+03	2.31343	355.0
1132	3.57831e+02	1.13200e+03	2.28801	356.0
1134	3.58761e+02	1.13400e+03	2.2618	357.0
1136	3.59733e+02	1.13600e+03	2.23422	358.0
1138	3.60686e+02	1.13800e+03	2.20582	359.0
1140	3.61618e+02	1.14000e+03	2.17606	360.0
1142	3.62620e+02	1.14200e+03	2.14552	361.0
1144	3.63584e+02	1.14400e+03	2.11368	362.0
1146	3.64544e+02	1.14600e+03	2.0811	363.0
1148	3.65497e+02	1.14800e+03	2.04727	364.0
1150	3.66455e+02	1.15000e+03	2.01275	365.0
1152	3.67425e+02	1.15200e+03	1.97706	366.0
1154	3.68376e+02	1.15400e+03	1.9407	367.0
1156	3.69331e+02	1.15600e+03	1.90317	368.0
1158	3.70300e+02	1.15800e+03	1.86497	369.0
1160	3.71270e+02	1.16000e+03	1.82566	370.0
1162	3.72267e+02	1.16200e+03	1.78576	371.0
1164	3.73254e+02	1.16400e+03	1.74484	372.0
1166	3.74242e+02	1.16600e+03	1.70334	373.0
1168	3.75223e+02	1.16800e+03	1.66094	374.0
1170	3.76232e+02	1.17000e+03	1.61813	375.0
1172	3.77241e+02	1.17200e+03	1.57461	376.0
1174	3.78279e+02	1.17400e+03	1.53066	377.0
1176	3.79287e+02	1.17600e+03	1.48598	378.0
1178	3.80324e+02	1.17800e+03	1.44082	379.0
1180	3.81345e+02	1.18000e+03	1.39466	380.0
1182	3.82355e+02	1.18200e+03	1.3477	381.0
1184	3.83355e+02	1.18400e+03	1.29964	382.0
1186	3.84376e+02	1.18600e+03	1.25131	383.0
1188	3.85370e+02	1.18800e+03	1.20262	384.0
1190	3.86397e+02	1.19000e+03	1.15404	385.0
1192	3.87337e+02	1.19200e+03	1.10582	386.0
1194	3.88326e+02	1.19400e+03	1.05812	387.0
1196	3.89362e+02	1.19600e+03	1.01124	388.0
1198	3.90377e+02	1.19800e+03	0.964777	389.0
1200	3.91306e+02	1.20000e+03	0.919023	390.0
1202	3.92292e+02	1.20200e+03	0.873753	391.0
1204	3.93290e+02	1.20400e+03	0.829324	392.0
1206	3.94274e+02	1.20600e+03	0.785475	393.0
1208	3.95271e+02	1.20800e+03	0.742647	394.0
1210	3.96284e+02	1.21000e+03	0.700567	395.0
1212	3.97280e+02	1.21200e+03	0.659807	396.0
1214	3.98289e+02	1.21400e+03	0.619959	397.0
1216	3.99328e+02	1.21600e+03	0.581678	398.0
1218	4.00324e+02	1.21800e+03	0.544407	399.0
1220	4.01351e+02	1.22000e+03	0.508893	400.0
1222	4.02374e+02	1.22200e+03	0.474497	401.0
1224	4.03387e+02	1.22400e+03	0.441997	402.0
1226	4.04383e+02	1.22600e+03	0.410637	403.0
1228	4.05425e+02	1.22800e+03	0.38125	404.0
1230	4.06467e+02	1.23000e+03	0.353062	405.0
1232	4.07508e+02	1.23200e+03	0.326886	406.0
1234	4.08495e+02	1.23400e+03	0.30185	407.0
1236	4.09486e+02	1.23600e+03	0.278742	408.0
1238	4.10481e+02	1.23800e+03	0.256713	409.0
1240	4.11493e+02	1.24000e+03	0.23647	410.0
1242	4.12505e+02	1.24200e+03	0.217184	411.0
1244	4.13495e+02	1.24400e+03	0.19951	412.0
1246	4.14512e+02	1.24600e+03	0.182745	413.0
1248	4.15559e+02	1.24800e+03	0.16749	414.0
1250	4.16620e+02	1.25000e+03	0.153062	415.0
1252	4.17602e+02	1.25200e+03	0.140023	416.0
1254	4.18591e+02	1.25400e+03	0.127768	417.0
1256	4.19593e+02	1.25600e+03	0.1168	418.0
1258	4.20580e+02	1.25800e+03	0.106517	419.0
1260	4.21602e+02	1.26000e+03	0.0973716	420.0
1262	4.22592e+02	1.26200e+03	0.0888451	421.0
1264	4.23529e+02	1.26400e+03	0.0813331	422.0
1266	4.24496e+02	1.26600e+03	0.0743479	423.0
1268	4.25455e+02	1.26800e+03	0.0682406	424.0
1270	4.26433e+02	1.27000e+03	0.0626076	425.0
1272	4.27432e+02	1.27200e+03	0.057745	426.0
1274	4.28434e+02	1.27400e+03	0.0532609	427.0
1276	4.29423e+02	1.27600e+03	0.0494055	428.0
1278	4.30431e+02	1.27800e+03	0.0458778	429.0
1280	4.31418e+02	1.28000e+03	0.0428727	430.0
1282	4.32423e+02	1.28200e+03	0.0401042	431.0
1284	4.33389e+02	1.28400e+03	0.0377211	432.0
1286	4.34372e+02	1.28600e+03	0.0355249	433.0
1288	4.35366e+02	1.28800e+03	0.0336319	434.0
1290	4.36355e+02	1.29000e+03	0.0318895	435.0
1292	4.37358e+02	1.29200e+03	0.0304075	436.0
1294	4.38337e+02	1.29400e+03	0.0290705	437.0
1296	4.39379e+02	1.29600e+03	0.0279542	438.0
1298	4.40373e+02	1.29800e+03	0.0269243	439.0
1300	4.41353e+02	1.30000e+03	0.026043	440.0
1302	4.42334e+02	1.30200e+03	0.0252481	441.0
1304	4.43302e+02	1.30400e+03	0.0245855	442.0
1306	4.44279e+02	1.30600e+03	0.0239701	443.0
1308	4.45288e+02	1.30800e+03	0.0234389	444.0
1310	4.46239e+02	1.31000e+03	0.0229607	445.0
1312	4.47213e+02	1.31200e+03	0.0225636	446.0
1314	4.48179e+02	1.31400e+03	0.022199	447.0
1316	4.49126e+02	1.31600e+03	0.021877	448.0
1318	4.50083e+02	1.31800e+03	0.0215619	449.0
1320	4.51051e+02	1.32000e+03	0.0212869	450.0
1322	4.52023e+02	1.32200e+03	0.0210696	451.0
1324	4.52985e+02	1.32400e+03	0.020924	452.0
1326	4.53947e+02	1.32600e+03	0.020802	453.0
1328	4.54906e+02	1.32800e+03	0.0207145	454.0
1330	4.55839e+02	1.33000e+03	0.020622	455.0
1332	4.56785e+02	1.33200e+03	0.0205099	456.0
1334	4.57742e+02	1.33400e+03	0.0203859	457.0
1336	4.58709e+02	1.33600e+03	0.0202639	458.0
1338	4.59685e+02	1.33800e+03	0.0201744	459.0
1340	4.60654e+02	1.34000e+03	0.0201272	460.0
1342	4.61622e+02	1.34200e+03	0.0200885	461.0
1344	4.62556e+02	1.34400e+03	0.0200688	462.0
1346	4.63522e+02	1.34600e+03	0.0200515	463.0
1348	4.64482e+02	1.34800e+03	0.0200211	464.0
1350	4.65451e+02	1.35000e+03	0.0199713	465.0
1352	4.66411e+02	1.35200e+03	0.0199214	466.0
1354	4.67387e+02	1.35400e+03	0.0199102	467.0
1356	4.68347e+02	1.35600e+03	0.0199466	468.0
1358	4.69324e+02	1.35800e+03	0.0199821	469.0
1360	4.70299e+02	1.36000e+03	0.0200253	470.0
1362	4.71266e+02	1.36200e+03	0.0200698	471.0
1364	4.72253e+02	1.36400e+03	0.0200967	472.0
1366	4.73229e+02	1.36600e+03	0.0200798	473.0
1368	4.74198e+02	1.36800e+03	0.0200117	474.0
1370	4.75175e+02	1.37000e+03	0.0199515	475.0
1372	4.76162e+02	1.37200e+03	0.0198998	476.0
1374	4.77129e+02	1.37400e+03	0.0198477	477.0
1376	4.78097e+02	1.37600e+03	0.019797	478.0
1378	4.79069e+02	1.37800e+03	0.0197575	479.0
1380	4.80050e+02	1.38000e+03	0.0197362	480.0
1382	4.81024e+02	1.38200e+03	0.0197255	481.0
1384	4.82002e+02	1.38400e+03	0.0197231	482.0
1386	4.82985e+02	1.38600e+03	0.0197179	483.0
1388	4.83975e+02	1.38800e+03	0.0197108	484.0
1390	4.84951e+02	1.39000e+03	0.0196994	485.0
1392	4.85933e+02	1.39200e+03	0.0196746	486.0
1394	4.86918e+02	1.39400e+03	0.0196423	487.0
1396	4.87894e+02	1.39600e+03	0.0196077	488.0
1398	4.88864e+02	1.39800e+03	0.0195814	489.0
1400	4.89843e+02	1.40000e+03	0.0195641	490.0
1402	4.90816e+02	1.40200e+03	0.0195477	491.0
1404	4.91802e+02	1.40400e+03	0.0195436	492.0
1406	4.92776e+02	1.40600e+03	0.0195532	493.0
1408	4.93772e+02	1.40800e+03	0.0195732	494.0
1410	4.94755e+02	1.41000e+03	0.0195851	495.0
1412	4.95754e+02	1.41200e+03	0.0195867	496.0
1414	4.96741e+02	1.41400e+03	0.0195824	497.0
1416	4.97741e+02	1.41600e+03	0.0195622	498.0
1418	4.98721e+02	1.41800e+03	0.0195394	499.0
1420	4.99724e+02	1.42000e+03	0.0195219	500.0
1422	5.00711e+02	1.42200e+03	0.019527	501.0
1424	5.01695e+02	1.42400e+03	0.0195415	502.0
1426	5.02682e+02	1.42600e+03	0.0195298	503.0
1428	5.03678e+02	1.42800e+03	0.0194861	504.0
1430	5.04690e+02	1.43000e+03	0.0194404	505.0
1432	5.05676e+02	1.43200e+03	0.0193871	506.0
1434	5.06685e+02	1.43400e+03	0.0193281	507.0
1436	5.07680e+02	1.43600e+03	0.0192651	508.0
1438	5.08690e+02	1.43800e+03	0.019209	509.0
1440	5.09689e+02	1.44000e+03	0.01917	510.0
1442	5.10689e+02	1.44200e+03	0.0191545	511.0
1444	5.11695e+02	1.44400e+03	0.0191851	512.0
1446	5.12709e+02	1.44600e+03	0.0192394	513.0
1448	5.13696e+02	1.44800e+03	0.019316	514.0
1450	5.14673e+02	1.45000e+03	0.0193719	515.0
1452	5.15682e+02	1.45200e+03	0.0194019	516.0
1454	5.16671e+02	1.45400e+03	0.0194298	517.0
1456	5.17639e+02	1.45600e+03	0.0194452	518.0
1458	5.18615e+02	1.45800e+03	0.0194353	519.0
1460	5.19625e+02	1.46000e+03	0.0193897	520.0
1462	5.20679e+02	1.46200e+03	0.0193415	521.0
1464	5.21723e+02	1.46400e+03	0.0193042	522.0
1466	5.22792e+02	1.46600e+03	0.0192894	523.0
1468	5.23854e+02	1.46800e+03	0.0193109	524.0
1470	5.24902e+02	1.47000e+03	0.0193422	525.0
1472	5.25957e+02	1.47200e+03	0.0193817	526.0
1474	5.27004e+02	1.47400e+03	0.0194026	527.0
1476	5.28071e+02	1.47600e+03	0.0193962	528.0
1478	5.29101e+02	1.47800e+03	0.0193869	529.0
1480	5.30097e+02	1.48000e+03	0.0193855	530.0
1482	5.31113e+02	1.48200e+03	0.0193945	531.0
1484	5.32142e+02	1.48400e+03	0.0194108	532.0
1486	5.33166e+02	1.48600e+03	0.0194201	533.0
1488	5.34196e+02	1.48800e+03	0.0194245	534.0
1490	5.35391e+02	1.49000e+03	0.0194226	535.0
1492	5.36379e+02	1.49200e+03	0.0194014	536.0
1494	5.37379e+02	1.49400e+03	0.0193676	537.0
1496	5.38451e+02	1.49600e+03	0.0193273	538.0
1498	5.39480e+02	1.49800e+03	0.0193068	539.0
1500	5.40567e+02	1.50000e+03	0.0193109	540.0
1502	5.41630e+02	1.50200e+03	0.0193191	541.0
1504	5.42590e+02	1.50400e+03	0.0193298	542.0
1506	5.44039e+02	1.50600e+03	0.0193293	543.0
1508	5.44956e+02	1.50800e+03	0.0193016	544.0
1510	5.45772e+02	1.51000e+03	0.0192513	545.0
1512	5.46749e+02	1.51200e+03	0.0191788	546.0
1514	5.47600e+02	1.51400e+03	0.0191125	547.0
1516	5.48491e+02	1.51600e+03	0.0190523	548.0
1518	5.49459e+02	1.51800e+03	0.0189956	549.0
1520	5.50409e+02	1.52000e+03	0.0189662	550.0
1522	5.51361e+02	1.52200e+03	0.0189834	551.0
1524	5.52379e+02	1.52400e+03	0.0190549	552.0
1526	5.53351e+02	1.52600e+03	0.0191164	553.0
1528	5.54343e+02	1.52800e+03	0.0191724	554.0
1530	5.55323e+02	1.53000e+03	0.0192351	555.0
1532	5.56308e+02	1.53200e+03	0.0192931	556.0
1534	5.57296e+02	1.53400e+03	0.0193273	557.0
1536	5.58286e+02	1.53600e+03	0.0193345	558.0
1538	5.59257e+02	1.53800e+03	0.0193412	559.0
1540	5.60271e+02	1.54000e+03	0.0193433	560.0
1542	5.61281e+02	1.54200e+03	0.0193268	561.0
1544	5.62268e+02	1.54400e+03	0.0192853	562.0
1546	5.63231e+02	1.54600e+03	0.0192373	563.0
1548	5.64183e+02	1.54800e+03	0.0191853	564.0
1550	5.65154e+02	1.55000e+03	0.0191471	565.0
1552	5.66154e+02	1.55200e+03	0.0191406	566.0
1554	5.67161e+02	1.55400e+03	0.019166	567.0
1556	5.68181e+02	1.55600e+03	0.0192339	568.0
1558	5.69167e+02	1.55800e+03	0.0192943	569.0
1560	5.70217e+02	1.56000e+03	0.0193308	570.0
1562	5.71254e+02	1.56200e+03	0.0193391	571.0
1564	5.72270e+02	1.56400e+03	0.0193172	572.0
1566	5.73316e+02	1.56600e+03	0.0193062	573.0
1568	5.74307e+02	1.56800e+03	0.0193194	574.0
1570	5.75320e+02	1.57000e+03	0.0193433	575.0
1572	5.76338e+02	1.57200e+03	0.0193747	576.0
1574	5.77337e+02	1.57400e+03	0.0193916	577.0
1576	5.78325e+02	1.57600e+03	0.019382	578.0
1578	5.79363e+02	1.57800e+03	0.019348	579.0
1580	5.80380e+02	1.58000e+03	0.0192797	580.0
1582	5.81383e+02	1.58200e+03	0.019223	581.0
1584	5.82422e+02	1.58400e+03	0.0191922	582.0
1586	5.83469e+02	1.58600e+03	0.019186	583.0
1588	5.84563e+02	1.58800e+03	0.0192011	584.0
1590	5.85668e+02	1.59000e+03	0.0192072	585.0
1592	5.86892e+02	1.59200e+03	0.0192131	586.0
1594	5.88006e+02	1.59400e+03	0.0192368	587.0
1596	5.89091e+02	1.59600e+03	0.019275	588.0
1598	5.90778e+02	1.59800e+03	0.0193081	589.0
1600	5.93181e+02	1.60000e+03	0.0193405	590.0
1602	5.94086e+02	1.60200e+03	0.0193807	591.0
1604	5.94720e+02	1.60400e+03	0.0194174	592.0
1606	5.95563e+02	1.60600e+03	0.0194318	593.0
1608	5.96517e+02	1.60800e+03	0.0194229	594.0
1610	5.97408e+02	1.61000e+03	0.0194164	595.0
1612	5.98268e+02	1.61200e+03	0.0194062	596.0
1614	5.99116e+02	1.61400e+03	0.0193906	597.0
1616	6.00059e+02	1.61600e+03	0.0193819	598.0
1618	6.00962e+02	1.61800e+03	0.0194059	599.0
1620	6.01823e+02	1.62000e+03	0.0194658	600.0
1622	6.02766e+02	1.62200e+03	0.0195095	601.0
1624	6.03756e+02	1.62400e+03	0.0195233	602.0
1626	6.04662e+02	1.62600e+03	0.0195131	603.0
1628	6.05615e+02	1.62800e+03	0.019468	604.0
1630	6.06647e+02	1.63000e+03	0.0194138	605.0
1632	6.07588e+02	1.63200e+03	0.0193539	606.0
1634	6.08485e+02	1.63400e+03	0.0193099	607.0
1636	6.09399e+02	1.63600e+03	0.0192875	608.0
1638	6.10290e+02	1.63800e+03	0.0192662	609.0
1640	6.11199e+02	1.64000e+03	0.0192444	610.0
1642	6.12082e+02	1.64200e+03	0.0192245	611.0
1644	6.12991e+02	1.64400e+03	0.0192119	612.0
1646	6.13914e+02	1.64600e+03	0.0192052	613.0
1648	6.14732e+02	1.64800e+03	0.019204	614.0
1650	6.15661e+02	1.65000e+03	0.0192061	615.0
1652	6.16577e+02	1.65200e+03	0.0192151	616.0
1654	6.17531e+02	1.65400e+03	0.0192184	617.0
1656	6.18494e+02	1.65600e+03	0.01921	618.0
1658	6.19470e+02	1.65800e+03	0.0192029	619.0
1660	6.20403e+02	1.66000e+03	0.0192097	620.0
1662	6.21362e+02	1.66200e+03	0.019237	621.0
1664	6.22336e+02	1.66400e+03	0.0192858	622.0
1666	6.23314e+02	1.66600e+03	0.0193285	623.0
1668	6.24314e+02	1.66800e+03	0.01936	624.0
1670	6.25300e+02	1.67000e+03	0.0193673	625.0
1672	6.26270e+02	1.67200e+03	0.0193338	626.0
1674	6.27239e+02	1.67400e+03	0.0192879	627.0
1676	6.28208e+02	1.67600e+03	0.0192314	628.0
1678	6.29176e+02	1.67800e+03	0.0191818	629.0
1680	6.30118e+02	1.68000e+03	0.0191417	630.0
1682	6.31052e+02	1.68200e+03	0.0191069	631.0
1684	6.32008e+02	1.68400e+03	0.0190965	632.0
1686	6.32952e+02	1.68600e+03	0.0191186	633.0
1688	6.33884e+02	1.68800e+03	0.019172	634.0
1690	6.34856e+02	1.69000e+03	0.0192057	635.0
1692	6.35822e+02	1.69200e+03	0.0192193	636.0
1694	6.36766e+02	1.69400e+03	0.019229	637.0
1696	6.37735e+02	1.69600e+03	0.0192283	638.0
1698	6.38689e+02	1.69800e+03	0.0192163	639.0
1700	6.39652e+02	1.70000e+03	0.0192021	640.0
1702	6.40620e+02	1.70200e+03	0.0192101	641.0
1704	6.41583e+02	1.70400e+03	0.0192444	642.0
1706	6.42541e+02	1.70600e+03	0.0192753	643.0
1708	6.43515e+02	1.70800e+03	0.0192989	644.0
1710	6.44466e+02	1.71000e+03	0.0193145	645.0
1712	6.45430e+02	1.71200e+03	0.0193183	646.0
1714	6.46403e+02	1.71400e+03	0.0193178	647.0
1716	6.47373e+02	1.71600e+03	0.0193174	648.0
1718	6.48340e+02	1.71800e+03	0.0193285	649.0
1720	6.49296e+02	1.72000e+03	0.0193482	650.0
1722	6.50252e+02	1.72200e+03	0.0193474	651.0
1724	6.51224e+02	1.72400e+03	0.019313	652.0
1726	6.52182e+02	1.72600e+03	0.0192655	653.0
1728	6.53160e+02	1.72800e+03	0.0192035	654.0
1730	6.54125e+02	1.73000e+03	0.0191461	655.0
1732	6.55109e+02	1.73200e+03	0.019097	656.0
1734	6.56075e+02	1.73400e+03	0.0190586	657.0
1736	6.57054e+02	1.73600e+03	0.0190382	658.0
1738	6.58024e+02	1.73800e+03	0.0190247	659.0
1740	6.58997e+02	1.74000e+03	0.0190275	660.0
1742	6.59969e+02	1.74200e+03	0.0190495	661.0
1744	6.60956e+02	1.74400e+03	0.0191009	662.0
1746	6.61927e+02	1.74600e+03	0.0191566	663.0
1748	6.62912e+02	1.74800e+03	0.0192061	664.0
1750	6.63883e+02	1.75000e+03	0.0192381	665.0
1752	6.64864e+02	1.75200e+03	0.0192529	666.0
1754	6.65830e+02	1.75400e+03	0.0192722	667.0
1756	6.66805e+02	1.75600e+03	0.0192892	668.0
1758	6.67778e+02	1.75800e+03	0.0192973	669.0
1760	6.68764e+02	1.76000e+03	0.0193049	670.0
1762	6.69746e+02	1.76200e+03	0.0193196	671.0
1764	6.70726e+02	1.76400e+03	0.0193324	672.0
1766	6.71701e+02	1.76600e+03	0.0193263	673.0
1768	6.72678e+02	1.76800e+03	0.0193005	674.0
1770	6.73660e+02	1.77000e+03	0.0192762	675.0
1772	6.74637e+02	1.77200e+03	0.0192449	676.0
1774	6.75617e+02	1.77400e+03	0.019206	677.0
1776	6.76589e+02	1.77600e+03	0.0191724	678.0
1778	6.77574e+02	1.77800e+03	0.0191534	679.0
1780	6.78551e+02	1.78000e+03	0.0191429	680.0
1782	6.79525e+02	1.78200e+03	0.0191103	681.0
1784	6.80515e+02	1.78400e+03	0.0190629	682.0
1786	6.81496e+02	1.78600e+03	0.0190265	683.0
1788	6.82477e+02	1.78800e+03	0.0190002	684.0
1790	6.83474e+02	1.79000e+03	0.0189682	685.0
1792	6.84468e+02	1.79200e+03	0.0189521	686.0
1794	6.85478e+02	1.79400e+03	0.0189768	687.0
1796	6.85856e+02	1.79600e+03	0.0190576	688.0
1798	6.86518e+02	1.79800e+03	0.0191457	689.0
1800	6.87229e+02	1.80000e+03	0.0192242	690.0
1802	6.87894e+02	1.80200e+03	0.0192702	691.0
1804	6.88514e+02	1.80400e+03	0.0192657	692.0
1806	6.89086e+02	1.80600e+03	0.0192407	693.0
1808	6.89632e+02	1.80800e+03	0.0191929	694.0
1810	6.90133e+02	1.81000e+03	0.0191673	695.0
1812	6.90610e+02	1.81200e+03	0.019171	696.0
1814	6.91049e+02	1.81400e+03	0.019171	697.0
1816	6.91474e+02	1.81600e+03	0.0191557	698.0
1818	6.91876e+02	1.81800e+03	0.0191227	699.0
1820	6.92254e+02	1.82000e+03	0.0190813	700.0
1822	6.92608e+02	1.82200e+03	0.0190505	700.0
1824	6.92944e+02	1.82400e+03	0.0190294	700.0
1826	6.93257e+02	1.82600e+03	0.0190064	700.0
1828	6.93532e+02	1.82800e+03	0.0189838	700.0
1830	6.93810e+02	1.83000e+03	0.0189633	700.0
1832	6.94061e+02	1.83200e+03	0.0189466	700.0
1834	6.94304e+02	1.83400e+03	0.0189418	700.0
1836	6.94539e+02	1.83600e+03	0.0189556	700.0
1838	6.94751e+02	1.83800e+03	0.0189719	700.0
1840	6.94957e+02	1.84000e+03	0.0189801	700.0
1842	6.95145e+02	1.84200e+03	0.0189704	700.0
1844	6.95341e+02	1.84400e+03	0.0189483	700.0
1846	6.95521e+02	1.84600e+03	0.0189506	700.0
1848	6.95691e+02	1.84800e+03	0.0189778	700.0
1850	6.95833e+02	1.85000e+03	0.0189949	700.0
1852	6.95984e+02	1.85200e+03	0.0190073	700.0
1854	6.96138e+02	1.85400e+03	0.0190232	700.0
1856	6.96269e+02	1.85600e+03	0.0190448	700.0
1858	6.96408e+02	1.85800e+03	0.0190685	700.0
1860	6.96530e+02	1.86000e+03	0.0190914	700.0
1862	6.96659e+02	1.86200e+03	0.0191056	700.0
1864	6.96767e+02	1.86400e+03	0.0191008	700.0
1866	6.96870e+02	1.86600e+03	0.0190675	700.0
1868	6.96973e+02	1.86800e+03	0.0190018	700.0
1870	6.97074e+02	1.87000e+03	0.0189448	700.0
1872	6.97170e+02	1.87200e+03	0.0189003	700.0
1874	6.97250e+02	1.87400e+03	0.0188579	700.0
1876	6.97344e+02	1.87600e+03	0.0188285	700.0
1878	6.97419e+02	1.87800e+03	0.0188291	700.0
1880	6.97499e+02	1.88000e+03	0.0188721	700.0
1882	6.97562e+02	1.88200e+03	0.0189411	700.0
1884	6.97646e+02	1.88400e+03	0.0190433	700.0
1886	6.97706e+02	1.88600e+03	0.0191346	700.0
1888	6.97777e+02	1.88800e+03	0.0191939	700.0
1890	6.97831e+02	1.89000e+03	0.0192106	700.0
1892	6.97889e+02	1.89200e+03	0.0191606	700.0
1894	6.97943e+02	1.89400e+03	0.0190986	700.0
1896	6.97998e+02	1.89600e+03	0.0190235	700.0
1898	6.98053e+02	1.89800e+03	0.0189612	700.0
1900	6.98099e+02	1.90000e+03	0.0189198	700.0
1902	6.98145e+02	1.90200e+03	0.0188903	700.0
1904	6.98174e+02	1.90400e+03	0.0188873	700.0
1906	6.98225e+02	1.90600e+03	0.0189117	700.0
1908	6.98252e+02	1.90800e+03	0.0189653	700.0
1910	6.98301e+02	1.91000e+03	0.0190151	700.0
1912	6.98329e+02	1.91200e+03	0.0190516	700.0
1914	6.98351e+02	1.91400e+03	0.0190644	700.0
1916	6.98389e+02	1.91600e+03	0.0190332	700.0
1918	6.98424e+02	1.91800e+03	0.0189904	700.0
1920	6.98454e+02	1.92000e+03	0.0189372	700.0
1922	6.98479e+02	1.92200e+03	0.0189022	700.0
1924	6.98512e+02	1.92400e+03	0.0188975	700.0
1926	6.98529e+02	1.92600e+03	0.018908	700.0
1928	6.98560e+02	1.92800e+03	0.0189386	700.0
1930	6.98585e+02	1.93000e+03	0.0189715	700.0
1932	6.98610e+02	1.93200e+03	0.0190072	700.0
1934	6.98624e+02	1.93400e+03	0.019041	700.0
1936	6.98653e+02	1.93600e+03	0.0190794	700.0
1938	6.98669e+02	1.93800e+03	0.0191111	700.0
1940	6.98692e+02	1.94000e+03	0.0191266	700.0
1942	6.98720e+02	1.94200e+03	0.0191114	700.0
1944	6.98725e+02	1.94400e+03	0.0190554	700.0
1946	6.98736e+02	1.94600e+03	0.0189998	700.0
1948	6.98760e+02	1.94800e+03	0.0189455	700.0
1950	6.98779e+02	1.95000e+03	0.0188969	700.0
1952	6.98793e+02	1.95200e+03	0.0188645	700.0
1954	6.98808e+02	1.95400e+03	0.0188413	700.0
1956	6.98818e+02	1.95600e+03	0.0188226	700.0
1958	6.98821e+02	1.95800e+03	0.0188057	700.0
1960	6.98830e+02	1.96000e+03	0.0188035	700.0
1962	6.98848e+02	1.96200e+03	0.0188258	700.0
1964	6.98858e+02	1.96400e+03	0.018875	700.0
1966	6.98874e+02	1.96600e+03	0.0189159	700.0
1968	6.98889e+02	1.96800e+03	0.0189386	700.0
1970	6.98885e+02	1.97000e+03	0.0189443	700.0
1972	6.98899e+02	1.97200e+03	0.0189274	700.0
1974	6.98915e+02	1.97400e+03	0.0189147	700.0
1976	6.98920e+02	1.97600e+03	0.0189189	700.0
1978	6.98918e+02	1.97800e+03	0.018939	700.0
1980	6.98935e+02	1.98000e+03	0.0189675	700.0
1982	6.98936e+02	1.98200e+03	0.0189727	700.0
1984	6.98946e+02	1.98400e+03	0.0189525	700.0
1986	6.98952e+02	1.98600e+03	0.0189373	700.0
1988	6.98958e+02	1.98800e+03	0.0189411	700.0
1990	6.98967e+02	1.99000e+03	0.018961	700.0
1992	6.98968e+02	1.99200e+03	0.0189931	700.0
1994	6.98973e+02	1.99400e+03	0.0190079	700.0
1996	6.98965e+02	1.99600e+03	0.0189961	700.0
1998	6.98981e+02	1.99800e+03	0.0189772	700.0
2000	6.98974e+02	2.00000e+03	0.0189535	700.0
2002	6.98987e+02	2.00200e+03	0.018939	700.0
2004	6.98987e+02	2.00400e+03	0.0189351	700.0
2006	6.98988e+02	2.00600e+03	0.0189289	700.0
2008	6.98992e+02	2.00800e+03	0.0189179	700.0
2010	6.99001e+02	2.01000e+03	0.0189069	700.0
2012	6.98997e+02	2.01200e+03	0.0189091	700.0
2014	6.98994e+02	2.01400e+03	0.0189252	700.0
2016	6.99011e+02	2.01600e+03	0.018965	700.0
2018	6.98998e+02	2.01800e+03	0.0190115	700.0
2020	6.99010e+02	2.02000e+03	0.0190623	700.0
2022	6.99009e+02	2.02200e+03	0.0191025	700.0
2024	6.99010e+02	2.02400e+03	0.0191199	700.0
2026	6.99014e+02	2.02600e+03	0.0191166	700.0
2028	6.99018e+02	2.02800e+03	0.0190855	700.0
2030	6.99012e+02	2.03000e+03	0.0190515	700.0
2032	6.99025e+02	2.03200e+03	0.0190165	700.0
2034	6.99022e+02	2.03400e+03	0.0189901	700.0
2036	6.99021e+02	2.03600e+03	0.0189842	700.0
2038	6.99027e+02	2.03800e+03	0.0189912	700.0
2040	6.99021e+02	2.04000e+03	0.019009	700.0
2042	6.99021e+02	2.04200e+03	0.0190185	700.0
2044	6.99024e+02	2.04400e+03	0.0190187	700.0
2046	6.99028e+02	2.04600e+03	0.019016	700.0
2048	6.99027e+02	2.04800e+03	0.0190037	700.0
2050	6.99022e+02	2.05000e+03	0.0189815	700.0
2052	6.99027e+02	2.05200e+03	0.0189479	700.0
2054	6.99018e+02	2.05400e+03	0.0189258	700.0
2056	6.99027e+02	2.05600e+03	0.0189241	700.0
2058	6.99022e+02	2.05800e+03	0.0189278	700.0
2060	6.99025e+02	2.06000e+03	0.0189393	700.0
2062	6.99015e+02	2.06200e+03	0.0189506	700.0
2064	6.99022e+02	2.06400e+03	0.018971	700.0
2066	6.99024e+02	2.06600e+03	0.0189945	700.0
2068	6.99025e+02	2.06800e+03	0.0190207	700.0
2070	6.99031e+02	2.07000e+03	0.0190384	700.0
2072	6.99025e+02	2.07200e+03	0.0190442	700.0
2074	6.99024e+02	2.07400e+03	0.019048	700.0
2076	6.99032e+02	2.07600e+03	0.0190473	700.0
2078	6.99033e+02	2.07800e+03	0.0190382	700.0
2080	6.99040e+02	2.08000e+03	0.0190187	700.0
2082	6.99021e+02	2.08200e+03	0.018998	700.0
2084	6.99025e+02	2.08400e+03	0.0189597	700.0
2086	6.99034e+02	2.08600e+03	0.0189076	700.0
2088	6.99023e+02	2.08800e+03	0.0188469	700.0
2090	6.99022e+02	2.09000e+03	0.0188014	700.0
2092	6.99018e+02	2.09200e+03	0.0187785	700.0
2094	6.99024e+02	2.09400e+03	0.018765	700.0
2096	6.99021e+02	2.09600e+03	0.0187765	700.0
2098	6.99022e+02	2.09800e+03	0.0188029	700.0
2100	6.99024e+02	2.10000e+03	0.0188339	700.0
2102	6.99018e+02	2.10200e+03	0.0188364	700.0
2104	6.99023e+02	2.10400e+03	0.01881	700.0
2106	6.99032e+02	2.10600e+03	0.0187882	700.0
2108	6.99018e+02	2.10800e+03	0.0187762	700.0
2110	6.99019e+02	2.11000e+03	0.0187797	700.0
2112	6.99024e+02	2.11200e+03	0.0188147	700.0
2114	6.99027e+02	2.11400e+03	0.0188629	700.0
2116	6.99014e+02	2.11600e+03	0.0189124	700.0
2118	6.99011e+02	2.11800e+03	0.0189359	700.0
2120	6.99011e+02	2.12000e+03	0.0189218	700.0
2122	6.99013e+02	2.12200e+03	0.0188976	700.0
2124	6.99004e+02	2.12400e+03	0.0188605	700.0
2126	6.99014e+02	2.12600e+03	0.0188239	700.0
2128	6.99005e+02	2.12800e+03	0.0187862	700.0
2130	6.99012e+02	2.13000e+03	0.0187522	700.0
2132	6.99013e+02	2.13200e+03	0.0187296	700.0
2134	6.99012e+02	2.13400e+03	0.0187007	700.0
2136	6.99000e+02	2.13600e+03	0.0186628	700.0
2138	6.99008e+02	2.13800e+03	0.0186324	700.0
2140	6.99003e+02	2.14000e+03	0.0186225	700.0
2142	6.99016e+02	2.14200e+03	0.0186376	700.0
2144	6.98999e+02	2.14400e+03	0.0186749	700.0
2146	6.99004e+02	2.14600e+03	0.018698	700.0
2148	6.99003e+02	2.14800e+03	0.0187009	700.0
2150	6.99006e+02	2.15000e+03	0.0187003	700.0
2152	6.99006e+02	2.15200e+03	0.0186989	700.0
2154	6.99011e+02	2.15400e+03	0.018716	700.0
2156	6.99002e+02	2.15600e+03	0.0187551	700.0
2158	6.99000e+02	2.15800e+03	0.0187962	700.0
2160	6.99009e+02	2.16000e+03	0.0188431	700.0
2162	6.98998e+02	2.16200e+03	0.0188883	700.0
2164	6.98997e+02	2.16400e+03	0.0189262	700.0
2166	6.98997e+02	2.16600e+03	0.018953	700.0
2168	6.98995e+02	2.16800e+03	0.0189618	700.0
2170	6.98992e+02	2.17000e+03	0.0189608	700.0
2172	6.98995e+02	2.17200e+03	0.0189452	700.0
2174	6.98988e+02	2.17400e+03	0.0189255	700.0
2176	6.98991e+02	2.17600e+03	0.0188998	700.0
2178	6.98991e+02	2.17800e+03	0.0188706	700.0
2180	6.98993e+02	2.18000e+03	0.0188439	700.0
2182	6.98994e+02	2.18200e+03	0.0188224	700.0
2184	6.98986e+02	2.18400e+03	0.0188028	700.0
2186	6.98981e+02	2.18600e+03	0.0187752	700.0
2188	6.98982e+02	2.18800e+03	0.0187339	700.0
2190	6.98976e+02	2.19000e+03	0.018702	700.0
2192	6.98980e+02	2.19200e+03	0.0186852	700.0
2194	6.98973e+02	2.19400e+03	0.0186819	700.0
2196	6.98981e+02	2.19600e+03	0.0186943	700.0
2198	6.98977e+02	2.19800e+03	0.0187018	700.0
2200	6.98971e+02	2.20000e+03	0.0187003	700.0
2202	6.98961e+02	2.20200e+03	0.0186928	700.0
2204	6.98962e+02	2.20400e+03	0.0186853	700.0
2206	6.98973e+02	2.20600e+03	0.0186953	700.0
2208	6.98965e+02	2.20800e+03	0.0187217	700.0
2210	6.98967e+02	2.21000e+03	0.0187485	700.0
2212	6.98969e+02	2.21200e+03	0.0187847	700.0
2214	6.98957e+02	2.21400e+03	0.0188184	700.0
2216	6.98962e+02	2.21600e+03	0.01884	700.0
2218	6.98961e+02	2.21800e+03	0.0188411	700.0
2220	6.98953e+02	2.22000e+03	0.0188179	700.0
2222	6.98959e+02	2.22200e+03	0.01881	700.0
2224	6.98956e+02	2.22400e+03	0.0188174	700.0
2226	6.98957e+02	2.22600e+03	0.0188154	700.0
2228	6.98949e+02	2.22800e+03	0.0188013	700.0
2230	6.98960e+02	2.23000e+03	0.018781	700.0
2232	6.98949e+02	2.23200e+03	0.0187484	700.0
2234	6.98948e+02	2.23400e+03	0.0187114	700.0
2236	6.98948e+02	2.23600e+03	0.0186665	700.0
2238	6.98938e+02	2.23800e+03	0.018619	700.0
2240	6.98936e+02	2.24000e+03	0.0185787	700.0
2242	6.98944e+02	2.24200e+03	0.0185443	700.0
2244	6.98934e+02	2.24400e+03	0.0185203	700.0
2246	6.98939e+02	2.24600e+03	0.0184981	700.0
2248	6.98937e+02	2.24800e+03	0.0184802	700.0
2250	6.98947e+02	2.25000e+03	0.0184703	700.0
2252	6.98939e+02	2.25200e+03	0.0184733	700.0
2254	6.98932e+02	2.25400e+03	0.0184808	700.0
2256	6.98927e+02	2.25600e+03	0.0184916	700.0
2258	6.98930e+02	2.25800e+03	0.0185082	700.0
2260	6.98934e+02	2.26000e+03	0.0185283	700.0
2262	6.98927e+02	2.26200e+03	0.0185564	700.0
2264	6.98931e+02	2.26400e+03	0.0185956	700.0
2266	6.98930e+02	2.26600e+03	0.0186422	700.0
2268	6.98927e+02	2.26800e+03	0.0186878	700.0
2270	6.98928e+02	2.27000e+03	0.0187207	700.0
2272	6.98924e+02	2.27200e+03	0.0187351	700.0
2274	6.98925e+02	2.27400e+03	0.0187447	700.0
2276	6.98915e+02	2.27600e+03	0.0187465	700.0
2278	6.98920e+02	2.27800e+03	0.0187439	700.0
2280	6.98916e+02	2.28000e+03	0.0187331	700.0
2282	6.98917e+02	2.28200e+03	0.0187175	700.0
2284	6.98916e+02	2.28400e+03	0.0186889	700.0
2286	6.98909e+02	2.28600e+03	0.0186431	700.0
2288	6.98917e+02	2.28800e+03	0.0185764	700.0
2290	6.98916e+02	2.29000e+03	0.018516	700.0
2292	6.98915e+02	2.29200e+03	0.0184645	700.0
2294	6.98905e+02	2.29400e+03	0.018422	700.0
2296	6.98915e+02	2.29600e+03	0.0183992	700.0
2298	6.98911e+02	2.29800e+03	0.0184037	700.0
2300	6.98910e+02	2.30000e+03	0.0184429	700.0
2302	6.98909e+02	2.30200e+03	0.0184801	700.0
2304	6.98908e+02	2.30400e+03	0.0185187	700.0
2306	6.98907e+02	2.30600e+03	0.0185607	700.0
2308	6.98909e+02	2.30800e+03	0.018598	700.0
2310	6.98908e+02	2.31000e+03	0.0186299	700.0
2312	6.98901e+02	2.31200e+03	0.0186517	700.0
2314	6.98898e+02	2.31400e+03	0.0186643	700.0
2316	6.98903e+02	2.31600e+03	0.0186596	700.0
2318	6.98898e+02	2.31800e+03	0.0186437	700.0
2320	6.98897e+02	2.32000e+03	0.0186129	700.0
2322	6.98896e+02	2.32200e+03	0.0185812	700.0
2324	6.98883e+02	2.32400e+03	0.0185475	700.0
2326	6.98888e+02	2.32600e+03	0.0185038	700.0
2328	6.98884e+02	2.32800e+03	0.0184536	700.0
2330	6.98894e+02	2.33000e+03	0.0184135	700.0
2332	6.98887e+02	2.33200e+03	0.0184011	700.0
2334	6.98894e+02	2.33400e+03	0.0184033	700.0
2336	6.98877e+02	2.33600e+03	0.0184209	700.0
2338	6.98884e+02	2.33800e+03	0.0184329	700.0
2340	6.98883e+02	2.34000e+03	0.0184428	700.0
2342	6.98876e+02	2.34200e+03	0.0184507	700.0
2344	6.98881e+02	2.34400e+03	0.0184592	700.0
2346	6.98878e+02	2.34600e+03	0.0184689	700.0
2348	6.98890e+02	2.34800e+03	0.0184895	700.0
2350	6.98880e+02	2.35000e+03	0.0185261	700.0
2352	6.98882e+02	2.35200e+03	0.0185725	700.0
2354	6.98886e+02	2.35400e+03	0.0186019	700.0
2356	6.98880e+02	2.35600e+03	0.0186022	700.0
2358	6.98874e+02	2.35800e+03	0.0185878	700.0
2360	6.98869e+02	2.36000e+03	0.018552	700.0
2362	6.98876e+02	2.36200e+03	0.0185019	700.0
2364	6.98876e+02	2.36400e+03	0.0184414	700.0
2366	6.98873e+02	2.36600e+03	0.0183942	700.0
2368	6.98873e+02	2.36800e+03	0.0183759	700.0
2370	6.98866e+02	2.37000e+03	0.0183742	700.0
2372	6.98868e+02	2.37200e+03	0.0184002	700.0
2374	6.98863e+02	2.37400e+03	0.0184317	700.0
2376	6.98878e+02	2.37600e+03	0.0184661	700.0
2378	6.98875e+02	2.37800e+03	0.0184886	700.0
2380	6.98869e+02	2.38000e+03	0.01849	700.0
2382	6.98867e+02	2.38200e+03	0.0184864	700.0
2384	6.98874e+02	2.38400e+03	0.0184672	700.0
2386	6.98869e+02	2.38600e+03	0.018442	700.0
2388	6.98867e+02	2.38800e+03	0.0184121	700.0
2390	6.98870e+02	2.39000e+03	0.0183879	700.0
2392	6.98869e+02	2.39200e+03	0.0183719	700.0
2394	6.98870e+02	2.39400e+03	0.0183508	700.0
2396	6.98865e+02	2.39600e+03	0.0183218	700.0
2398	6.98871e+02	2.39800e+03	0.0182971	700.0
2400	6.98866e+02	2.40000e+03	0.0182852	700.0
2402	6.98874e+02	2.40200e+03	0.0182773	700.0
2404	6.98859e+02	2.40400e+03	0.0182717	700.0
2406	6.98864e+02	2.40600e+03	0.0182533	700.0
2408	6.98859e+02	2.40800e+03	0.0182179	700.0
2410	6.98864e+02	2.41000e+03	0.0181856	700.0
2412	6.98872e+02	2.41200e+03	0.0181662	700.0
2414	6.98859e+02	2.41400e+03	0.0181678	700.0
2416	6.98856e+02	2.41600e+03	0.0182015	700.0
2418	6.98861e+02	2.41800e+03	0.0182461	700.0
2420	6.98862e+02	2.42000e+03	0.0183014	700.0
2422	6.98849e+02	2.42200e+03	0.0183461	700.0
2424	6.98865e+02	2.42400e+03	0.0183679	700.0
2426	6.98863e+02	2.42600e+03	0.0183707	700.0
2428	6.98863e+02	2.42800e+03	0.0183493	700.0
2430	6.98856e+02	2.43000e+03	0.01833	700.0
2432	6.98864e+02	2.43200e+03	0.0183194	700.0
2434	6.98854e+02	2.43400e+03	0.0183224	700.0
2436	6.98857e+02	2.43600e+03	0.0183393	700.0
2438	6.98848e+02	2.43800e+03	0.0183432	700.0
2440	6.98857e+02	2.44000e+03	0.0183274	700.0
2442	6.98862e+02	2.44200e+03	0.0183009	700.0
2444	6.98853e+02	2.44400e+03	0.018266	700.0
2446	6.98854e+02	2.44600e+03	0.0182496	700.0
2448	6.98858e+02	2.44800e+03	0.0182741	700.0
2450	6.98858e+02	2.45000e+03	0.0183271	700.0
2452	6.98851e+02	2.45200e+03	0.0184058	700.0
2454	6.98858e+02	2.45400e+03	0.0184664	700.0
2456	6.98848e+02	2.45600e+03	0.0184974	700.0
2458	6.98857e+02	2.45800e+03	0.0185137	700.0
2460	6.98841e+02	2.46000e+03	0.0184992	700.0
2462	6.98854e+02	2.46200e+03	0.0184768	700.0
2464	6.98847e+02	2.46400e+03	0.0184477	700.0
2466	6.98843e+02	2.46600e+03	0.0184361	700.0
2468	6.98846e+02	2.46800e+03	0.0184365	700.0
2470	6.98845e+02	2.47000e+03	0.0184271	700.0
2472	6.98849e+02	2.47200e+03	0.0184073	700.0
2474	6.98840e+02	2.47400e+03	0.0183891	700.0
2476	6.98843e+02	2.47600e+03	0.0183739	700.0
2478	6.98842e+02	2.47800e+03	0.0183613	700.0
2480	6.98830e+02	2.48000e+03	0.0183399	700.0
2482	6.98849e+02	2.48200e+03	0.0183198	700.0
2484	6.98836e+02	2.48400e+03	0.0183126	700.0
2486	6.98842e+02	2.48600e+03	0.0183321	700.0
2488	6.98836e+02	2.48800e+03	0.0183861	700.0
2490	6.98845e+02	2.49000e+03	0.0184483	700.0
2492	6.98837e+02	2.49200e+03	0.0185082	700.0
2494	6.98840e+02	2.49400e+03	0.0185452	700.0
2496	6.98844e+02	2.49600e+03	0.0185381	700.0
2498	6.98845e+02	2.49800e+03	0.018512	700.0
2500	6.98829e+02	2.50000e+03	0.0184653	700.0
2502	6.98836e+02	2.50200e+03	0.0184329	700.0
2504	6.98838e+02	2.50400e+03	0.0184105	700.0
2506	6.98841e+02	2.50600e+03	0.0183821	700.0
2508	6.98825e+02	2.50800e+03	0.0183561	700.0
2510	6.98848e+02	2.51000e+03	0.0183365	700.0
2512	6.98839e+02	2.51200e+03	0.018327	700.0
2514	6.98837e+02	2.51400e+03	0.0183159	700.0
2516	6.98835e+02	2.51600e+03	0.0183279	700.0
2518	6.98838e+02	2.51800e+03	0.0183663	700.0
2520	6.98832e+02	2.52000e+03	0.0184352	700.0
2522	6.98843e+02	2.52200e+03	0.0184939	700.0
2524	6.98840e+02	2.52400e+03	0.0185304	700.0
2526	6.98839e+02	2.52600e+03	0.0185426	700.0
2528	6.98841e+02	2.52800e+03	0.0185108	700.0
2530	6.98841e+02	2.53000e+03	0.0184676	700.0
2532	6.98845e+02	2.53200e+03	0.0184188	700.0
2534	6.98838e+02	2.53400e+03	0.0183833	700.0
2536	6.98842e+02	2.53600e+03	0.0183612	700.0
2538	6.98840e+02	2.53800e+03	0.0183348	700.0
2540	6.98832e+02	2.54000e+03	0.0183056	700.0
2542	6.98839e+02	2.54200e+03	0.0182836	700.0
2544	6.98836e+02	2.54400e+03	0.018271	700.0
2546	6.98834e+02	2.54600e+03	0.0182561	700.0
2548	6.98830e+02	2.54800e+03	0.0182475	700.0
2550	6.98832e+02	2.55000e+03	0.0182437	700.0
2552	6.98829e+02	2.55200e+03	0.0182412	700.0
2554	6.98827e+02	2.55400e+03	0.0182296	700.0
2556	6.98835e+02	2.55600e+03	0.0182121	700.0
2558	6.98837e+02	2.55800e+03	0.0182069	700.0
2560	6.98828e+02	2.56000e+03	0.0182088	700.0
2562	6.98836e+02	2.56200e+03	0.0181973	700.0
2564	6.98825e+02	2.56400e+03	0.0181724	700.0
2566	6.98824e+02	2.56600e+03	0.0181547	700.0
2568	6.98825e+02	2.56800e+03	0.0181481	700.0
2570	6.98832e+02	2.57000e+03	0.0181484	700.0
2572	6.98827e+02	2.57200e+03	0.0181485	700.0
2574	6.98822e+02	2.57400e+03	0.0181465	700.0
2576	6.98821e+02	2.57600e+03	0.0181412	700.0
2578	6.98826e+02	2.57800e+03	0.0181399	700.0
2580	6.98817e+02	2.58000e+03	0.0181518	700.0
2582	6.98815e+02	2.58200e+03	0.0181753	700.0
2584	6.98820e+02	2.58400e+03	0.0182047	700.0
2586	6.98821e+02	2.58600e+03	0.0182172	700.0
2588	6.98827e+02	2.58800e+03	0.0182114	700.0
2590	6.98828e+02	2.59000e+03	0.0182075	700.0
2592	6.98815e+02	2.59200e+03	0.018208	700.0
2594	6.98821e+02	2.59400e+03	0.0182137	700.0
2596	6.98819e+02	2.59600e+03	0.0182193	700.0
2598	6.98813e+02	2.59800e+03	0.0182018	700.0
2600	6.98818e+02	2.60000e+03	0.0181588	700.0
2602	6.98812e+02	2.60200e+03	0.018114	700.0
2604	6.98813e+02	2.60400e+03	0.0180722	700.0
2606	6.98813e+02	2.60600e+03	0.018044	700.0
2608	6.98813e+02	2.60800e+03	0.0180358	700.0
2610	6.98811e+02	2.61000e+03	0.0180334	700.0
2612	6.98814e+02	2.61200e+03	0.0180382	700.0
2614	6.98819e+02	2.61400e+03	0.0180424	700.0
2616	6.98813e+02	2.61600e+03	0.0180502	700.0
2618	6.98816e+02	2.61800e+03	0.0180713	700.0
2620	6.98819e+02	2.62000e+03	0.0181004	700.0
2622	6.98812e+02	2.62200e+03	0.0181211	700.0
2624	6.98817e+02	2.62400e+03	0.0181272	700.0
2626	6.98807e+02	2.62600e+03	0.018125	700.0
2628	6.98814e+02	2.62800e+03	0.0181146	700.0
2630	6.98807e+02	2.63000e+03	0.0181119	700.0
2632	6.98813e+02	2.63200e+03	0.0181232	700.0
2634	6.98808e+02	2.63400e+03	0.01815	700.0
2636	6.98820e+02	2.63600e+03	0.0181938	700.0
2638	6.98814e+02	2.63800e+03	0.0182304	700.0
2640	6.98816e+02	2.64000e+03	0.0182566	700.0
2642	6.98816e+02	2.64200e+03	0.0182711	700.0
2644	6.98820e+02	2.64400e+03	0.0182629	700.0
2646	6.98816e+02	2.64600e+03	0.0182374	700.0
2648	6.98823e+02	2.64800e+03	0.0181872	700.0
2650	6.98807e+02	2.65000e+03	0.0181375	700.0
2652	6.98821e+02	2.65200e+03	0.0181049	700.0
2654	6.98815e+02	2.65400e+03	0.018089	700.0
2656	6.98814e+02	2.65600e+03	0.0180912	700.0
2658	6.98815e+02	2.65800e+03	0.0180979	700.0
2660	6.98819e+02	2.66000e+03	0.0181181	700.0
2662	6.98809e+02	2.66200e+03	0.0181503	700.0
2664	6.98816e+02	2.66400e+03	0.0181898	700.0
2666	6.98818e+02	2.66600e+03	0.0182116	700.0
2668	6.98817e+02	2.66800e+03	0.0182048	700.0
2670	6.98813e+02	2.67000e+03	0.0181886	700.0
2672	6.98810e+02	2.67200e+03	0.0181635	700.0
2674	6.98818e+02	2.67400e+03	0.0181465	700.0
2676	6.98812e+02	2.67600e+03	0.0181424	700.0
2678	6.98804e+02	2.67800e+03	0.0181385	700.0
2680	6.98810e+02	2.68000e+03	0.0181388	700.0
2682	6.98811e+02	2.68200e+03	0.0181484	700.0
2684	6.98815e+02	2.68400e+03	0.0181766	700.0
2686	6.98809e+02	2.68600e+03	0.0182096	700.0
2688	6.98808e+02	2.68800e+03	0.0182416	700.0
2690	6.98812e+02	2.69000e+03	0.0182567	700.0
2692	6.98810e+02	2.69200e+03	0.0182468	700.0
2694	6.98811e+02	2.69400e+03	0.018231	700.0
2696	6.98814e+02	2.69600e+03	0.0182085	700.0
2698	6.98813e+02	2.69800e+03	0.0181887	700.0
2700	6.98817e+02	2.70000e+03	0.0181765	700.0
2702	6.98808e+02	2.70200e+03	0.0181841	700.0
2704	6.98808e+02	2.70400e+03	0.0182122	700.0
2706	6.98818e+02	2.70600e+03	0.0182406	700.0
2708	6.98814e+02	2.70800e+03	0.018265	700.0
2710	6.98815e+02	2.71000e+03	0.0182775	700.0
2712	6.98813e+02	2.71200e+03	0.0182784	700.0
2714	6.98814e+02	2.71400e+03	0.0182666	700.0
2716	6.98815e+02	2.71600e+03	0.0182507	700.0
2718	6.98814e+02	2.71800e+03	0.0182373	700.0
2720	6.98818e+02	2.72000e+03	0.0182278	700.0