File: Experiments/TUBS/tga_nonisotherm/tga_dynamic_n2_dyn60_piece_2mg_r2.txt
index	ts	t	weight	tr
[#]	[°C]	[s]	[mg]	[°C]
643	1.29962e+02	6.43000e+02	1.99563e+00	1.33000e+02
644	1.30952e+02	6.44000e+02	1.99563e+00	1.34000e+02
645	1.31945e+02	6.45000e+02	1.99562e+00	1.35000e+02
646	1.32945e+02	6.46000e+02	1.99562e+00	1.36000e+02
647	1.33937e+02	6.47000e+02	1.99561e+00	1.37000e+02
648	1.34919e+02	6.48000e+02	1.99563e+00	1.38000e+02
649	1.35916e+02	6.49000e+02	1.99565e+00	1.39000e+02
650	1.36910e+02	6.50000e+02	1.99567e+00	1.40000e+02
651	1.37908e+02	6.51000e+02	1.99569e+00	1.41000e+02
652	1.38891e+02	6.52000e+02	1.99571e+00	1.42000e+02
653	1.39876e+02	6.53000e+02	1.99573e+00	1.43000e+02
654	1.40878e+02	6.54000e+02	1.99574e+00	1.44000e+02
655	1.41866e+02	6.55000e+02	1.99573e+00	1.45000e+02
656	1.42843e+02	6.56000e+02	1.99571e+00	1.46000e+02
657	1.43834e+02	6.57000e+02	1.99568e+00	1.47000e+02
658	1.44838e+02	6.58000e+02	1.99565e+00	1.48000e+02
659	1.45823e+02	6.59000e+02	1.99561e+00	1.49000e+02
660	1.46822e+02	6.60000e+02	1.99555e+00	1.50000e+02
661	1.47827e+02	6.61000e+02	1.99550e+00	1.51000e+02
662	1.48831e+02	6.62000e+02	1.99546e+00	1.52000e+02
663	1.49825e+02	6.63000e+02	1.99542e+00	1.53000e+02
664	1.50814e+02	6.64000e+02	1.99538e+00	1.54000e+02
665	1.51813e+02	6.65000e+02	1.99535e+00	1.55000e+02
666	1.52794e+02	6.66000e+02	1.99532e+00	1.56000e+02
667	1.53787e+02	6.67000e+02	1.99530e+00	1.57000e+02
668	1.54784e+02	6.68000e+02	1.99529e+00	1.58000e+02
669	1.55768e+02	6.69000e+02	1.99527e+00	1.59000e+02
670	1.56757e+02	6.70000e+02	1.99525e+00	1.60000e+02
671	1.57744e+02	6.71000e+02	1.99523e+00	1.61000e+02
672	1.58741e+02	6.72000e+02	1.99521e+00	1.62000e+02
673	1.59718e+02	6.73000e+02	1.99520e+00	1.63000e+02
674	1.60711e+02	6.74000e+02	1.99518e+00	1.64000e+02
675	1.61696e+02	6.75000e+02	1.99517e+00	1.65000e+02
676	1.62685e+02	6.76000e+02	1.99515e+00	1.66000e+02
677	1.63669e+02	6.77000e+02	1.99514e+00	1.67000e+02
678	1.64664e+02	6.78000e+02	1.99513e+00	1.68000e+02
679	1.65644e+02	6.79000e+02	1.99512e+00	1.69000e+02
680	1.66629e+02	6.80000e+02	1.99511e+00	1.70000e+02
681	1.67614e+02	6.81000e+02	1.99509e+00	1.71000e+02
682	1.68602e+02	6.82000e+02	1.99507e+00	1.72000e+02
683	1.69592e+02	6.83000e+02	1.99505e+00	1.73000e+02
684	1.70577e+02	6.84000e+02	1.99502e+00	1.74000e+02
685	1.71572e+02	6.85000e+02	1.99499e+00	1.75000e+02
686	1.72560e+02	6.86000e+02	1.99495e+00	1.76000e+02
687	1.73541e+02	6.87000e+02	1.99490e+00	1.77000e+02
688	1.74537e+02	6.88000e+02	1.99484e+00	1.78000e+02
689	1.75526e+02	6.89000e+02	1.99479e+00	1.79000e+02
690	1.76522e+02	6.90000e+02	1.99473e+00	1.80000e+02
691	1.77508e+02	6.91000e+02	1.99467e+00	1.81000e+02
692	1.78494e+02	6.92000e+02	1.99461e+00	1.82000e+02
693	1.79471e+02	6.93000e+02	1.99454e+00	1.83000e+02
694	1.80465e+02	6.94000e+02	1.99448e+00	1.84000e+02
695	1.81449e+02	6.95000e+02	1.99442e+00	1.85000e+02
696	1.82445e+02	6.96000e+02	1.99435e+00	1.86000e+02
697	1.83440e+02	6.97000e+02	1.99428e+00	1.87000e+02
698	1.84425e+02	6.98000e+02	1.99421e+00	1.88000e+02
699	1.85406e+02	6.99000e+02	1.99414e+00	1.89000e+02
700	1.86388e+02	7.00000e+02	1.99406e+00	1.90000e+02
701	1.87384e+02	7.01000e+02	1.99397e+00	1.91000e+02
702	1.88366e+02	7.02000e+02	1.99388e+00	1.92000e+02
703	1.89356e+02	7.03000e+02	1.99379e+00	1.93000e+02
704	1.90349e+02	7.04000e+02	1.99368e+00	1.94000e+02
705	1.91341e+02	7.05000e+02	1.99357e+00	1.95000e+02
706	1.92328e+02	7.06000e+02	1.99344e+00	1.96000e+02
707	1.93327e+02	7.07000e+02	1.99331e+00	1.97000e+02
708	1.94314e+02	7.08000e+02	1.99315e+00	1.98000e+02
709	1.95321e+02	7.09000e+02	1.99298e+00	1.99000e+02
710	1.96309e+02	7.10000e+02	1.99281e+00	2.00000e+02
711	1.97312e+02	7.11000e+02	1.99263e+00	2.01000e+02
712	1.98301e+02	7.12000e+02	1.99242e+00	2.02000e+02
713	1.99296e+02	7.13000e+02	1.99220e+00	2.03000e+02
714	2.00285e+02	7.14000e+02	1.99198e+00	2.04000e+02
715	2.01282e+02	7.15000e+02	1.99175e+00	2.05000e+02
716	2.02279e+02	7.16000e+02	1.99147e+00	2.06000e+02
717	2.03270e+02	7.17000e+02	1.99120e+00	2.07000e+02
718	2.04261e+02	7.18000e+02	1.99091e+00	2.08000e+02
719	2.05264e+02	7.19000e+02	1.99061e+00	2.09000e+02
720	2.06264e+02	7.20000e+02	1.99025e+00	2.10000e+02
721	2.07258e+02	7.21000e+02	1.98991e+00	2.11000e+02
722	2.08264e+02	7.22000e+02	1.98956e+00	2.12000e+02
723	2.09254e+02	7.23000e+02	1.98920e+00	2.13000e+02
724	2.10253e+02	7.24000e+02	1.98881e+00	2.14000e+02
725	2.11263e+02	7.25000e+02	1.98842e+00	2.15000e+02
726	2.12267e+02	7.26000e+02	1.98804e+00	2.16000e+02
727	2.13271e+02	7.27000e+02	1.98764e+00	2.17000e+02
728	2.14266e+02	7.28000e+02	1.98723e+00	2.18000e+02
729	2.15263e+02	7.29000e+02	1.98682e+00	2.19000e+02
730	2.16261e+02	7.30000e+02	1.98641e+00	2.20000e+02
731	2.17260e+02	7.31000e+02	1.98599e+00	2.21000e+02
732	2.18270e+02	7.32000e+02	1.98555e+00	2.22000e+02
733	2.19282e+02	7.33000e+02	1.98511e+00	2.23000e+02
734	2.20285e+02	7.34000e+02	1.98466e+00	2.24000e+02
735	2.21283e+02	7.35000e+02	1.98422e+00	2.25000e+02
736	2.22308e+02	7.36000e+02	1.98374e+00	2.26000e+02
737	2.23322e+02	7.37000e+02	1.98327e+00	2.27000e+02
738	2.24338e+02	7.38000e+02	1.98280e+00	2.28000e+02
739	2.25366e+02	7.39000e+02	1.98232e+00	2.29000e+02
740	2.26422e+02	7.40000e+02	1.98183e+00	2.30000e+02
741	2.27454e+02	7.41000e+02	1.98134e+00	2.31000e+02
742	2.28464e+02	7.42000e+02	1.98086e+00	2.32000e+02
743	2.29478e+02	7.43000e+02	1.98038e+00	2.33000e+02
744	2.30497e+02	7.44000e+02	1.97989e+00	2.34000e+02
745	2.31510e+02	7.45000e+02	1.97940e+00	2.35000e+02
746	2.32524e+02	7.46000e+02	1.97891e+00	2.36000e+02
747	2.33548e+02	7.47000e+02	1.97841e+00	2.37000e+02
748	2.34572e+02	7.48000e+02	1.97791e+00	2.38000e+02
749	2.35576e+02	7.49000e+02	1.97741e+00	2.39000e+02
750	2.36585e+02	7.50000e+02	1.97691e+00	2.40000e+02
751	2.37583e+02	7.51000e+02	1.97641e+00	2.41000e+02
752	2.38595e+02	7.52000e+02	1.97591e+00	2.42000e+02
753	2.39581e+02	7.53000e+02	1.97541e+00	2.43000e+02
754	2.40591e+02	7.54000e+02	1.97491e+00	2.44000e+02
755	2.41597e+02	7.55000e+02	1.97440e+00	2.45000e+02
756	2.42603e+02	7.56000e+02	1.97390e+00	2.46000e+02
757	2.43606e+02	7.57000e+02	1.97339e+00	2.47000e+02
758	2.44611e+02	7.58000e+02	1.97287e+00	2.48000e+02
759	2.45629e+02	7.59000e+02	1.97236e+00	2.49000e+02
760	2.46635e+02	7.60000e+02	1.97183e+00	2.50000e+02
761	2.47638e+02	7.61000e+02	1.97130e+00	2.51000e+02
762	2.48635e+02	7.62000e+02	1.97077e+00	2.52000e+02
763	2.49648e+02	7.63000e+02	1.97023e+00	2.53000e+02
764	2.50654e+02	7.64000e+02	1.96968e+00	2.54000e+02
765	2.51649e+02	7.65000e+02	1.96913e+00	2.55000e+02
766	2.52655e+02	7.66000e+02	1.96857e+00	2.56000e+02
767	2.53661e+02	7.67000e+02	1.96802e+00	2.57000e+02
768	2.54657e+02	7.68000e+02	1.96744e+00	2.58000e+02
769	2.55679e+02	7.69000e+02	1.96687e+00	2.59000e+02
770	2.56690e+02	7.70000e+02	1.96631e+00	2.60000e+02
771	2.57704e+02	7.71000e+02	1.96574e+00	2.61000e+02
772	2.58712e+02	7.72000e+02	1.96516e+00	2.62000e+02
773	2.59715e+02	7.73000e+02	1.96459e+00	2.63000e+02
774	2.60740e+02	7.74000e+02	1.96400e+00	2.64000e+02
775	2.61741e+02	7.75000e+02	1.96342e+00	2.65000e+02
776	2.62762e+02	7.76000e+02	1.96282e+00	2.66000e+02
777	2.63779e+02	7.77000e+02	1.96221e+00	2.67000e+02
778	2.64794e+02	7.78000e+02	1.96161e+00	2.68000e+02
779	2.65811e+02	7.79000e+02	1.96100e+00	2.69000e+02
780	2.66837e+02	7.80000e+02	1.96036e+00	2.70000e+02
781	2.67853e+02	7.81000e+02	1.95973e+00	2.71000e+02
782	2.68892e+02	7.82000e+02	1.95911e+00	2.72000e+02
783	2.69918e+02	7.83000e+02	1.95848e+00	2.73000e+02
784	2.70934e+02	7.84000e+02	1.95784e+00	2.74000e+02
785	2.71942e+02	7.85000e+02	1.95720e+00	2.75000e+02
786	2.72947e+02	7.86000e+02	1.95656e+00	2.76000e+02
787	2.73949e+02	7.87000e+02	1.95592e+00	2.77000e+02
788	2.74973e+02	7.88000e+02	1.95527e+00	2.78000e+02
789	2.75981e+02	7.89000e+02	1.95462e+00	2.79000e+02
790	2.76988e+02	7.90000e+02	1.95396e+00	2.80000e+02
791	2.77999e+02	7.91000e+02	1.95330e+00	2.81000e+02
792	2.79013e+02	7.92000e+02	1.95262e+00	2.82000e+02
793	2.80017e+02	7.93000e+02	1.95194e+00	2.83000e+02
794	2.81038e+02	7.94000e+02	1.95124e+00	2.84000e+02
795	2.82057e+02	7.95000e+02	1.95055e+00	2.85000e+02
796	2.83074e+02	7.96000e+02	1.94981e+00	2.86000e+02
797	2.84097e+02	7.97000e+02	1.94907e+00	2.87000e+02
798	2.85121e+02	7.98000e+02	1.94832e+00	2.88000e+02
799	2.86136e+02	7.99000e+02	1.94756e+00	2.89000e+02
800	2.87159e+02	8.00000e+02	1.94673e+00	2.90000e+02
801	2.88179e+02	8.01000e+02	1.94592e+00	2.91000e+02
802	2.89211e+02	8.02000e+02	1.94509e+00	2.92000e+02
803	2.90233e+02	8.03000e+02	1.94426e+00	2.93000e+02
804	2.91246e+02	8.04000e+02	1.94338e+00	2.94000e+02
805	2.92256e+02	8.05000e+02	1.94252e+00	2.95000e+02
806	2.93278e+02	8.06000e+02	1.94166e+00	2.96000e+02
807	2.94283e+02	8.07000e+02	1.94079e+00	2.97000e+02
808	2.95296e+02	8.08000e+02	1.93989e+00	2.98000e+02
809	2.96310e+02	8.09000e+02	1.93900e+00	2.99000e+02
810	2.97325e+02	8.10000e+02	1.93810e+00	3.00000e+02
811	2.98340e+02	8.11000e+02	1.93719e+00	3.01000e+02
812	2.99334e+02	8.12000e+02	1.93624e+00	3.02000e+02
813	3.00331e+02	8.13000e+02	1.93529e+00	3.03000e+02
814	3.01328e+02	8.14000e+02	1.93432e+00	3.04000e+02
815	3.02317e+02	8.15000e+02	1.93333e+00	3.05000e+02
816	3.03335e+02	8.16000e+02	1.93228e+00	3.06000e+02
817	3.04353e+02	8.17000e+02	1.93123e+00	3.07000e+02
818	3.05372e+02	8.18000e+02	1.93016e+00	3.08000e+02
819	3.06379e+02	8.19000e+02	1.92907e+00	3.09000e+02
820	3.07392e+02	8.20000e+02	1.92788e+00	3.10000e+02
821	3.08412e+02	8.21000e+02	1.92670e+00	3.11000e+02
822	3.09415e+02	8.22000e+02	1.92549e+00	3.12000e+02
823	3.10408e+02	8.23000e+02	1.92425e+00	3.13000e+02
824	3.11422e+02	8.24000e+02	1.92289e+00	3.14000e+02
825	3.12427e+02	8.25000e+02	1.92153e+00	3.15000e+02
826	3.13414e+02	8.26000e+02	1.92013e+00	3.16000e+02
827	3.14407e+02	8.27000e+02	1.91871e+00	3.17000e+02
828	3.15406e+02	8.28000e+02	1.91714e+00	3.18000e+02
829	3.16402e+02	8.29000e+02	1.91559e+00	3.19000e+02
830	3.17403e+02	8.30000e+02	1.91402e+00	3.20000e+02
831	3.18415e+02	8.31000e+02	1.91242e+00	3.21000e+02
832	3.19415e+02	8.32000e+02	1.91069e+00	3.22000e+02
833	3.20439e+02	8.33000e+02	1.90898e+00	3.23000e+02
834	3.21470e+02	8.34000e+02	1.90724e+00	3.24000e+02
835	3.22489e+02	8.35000e+02	1.90548e+00	3.25000e+02
836	3.23494e+02	8.36000e+02	1.90361e+00	3.26000e+02
837	3.24523e+02	8.37000e+02	1.90175e+00	3.27000e+02
838	3.25595e+02	8.38000e+02	1.89988e+00	3.28000e+02
839	3.26652e+02	8.39000e+02	1.89798e+00	3.29000e+02
840	3.27706e+02	8.40000e+02	1.89599e+00	3.30000e+02
841	3.28723e+02	8.41000e+02	1.89401e+00	3.31000e+02
842	3.29731e+02	8.42000e+02	1.89201e+00	3.32000e+02
843	3.30755e+02	8.43000e+02	1.88998e+00	3.33000e+02
844	3.31764e+02	8.44000e+02	1.88786e+00	3.34000e+02
845	3.32791e+02	8.45000e+02	1.88574e+00	3.35000e+02
846	3.33817e+02	8.46000e+02	1.88360e+00	3.36000e+02
847	3.34825e+02	8.47000e+02	1.88144e+00	3.37000e+02
848	3.35824e+02	8.48000e+02	1.87914e+00	3.38000e+02
849	3.36821e+02	8.49000e+02	1.87685e+00	3.39000e+02
850	3.37833e+02	8.50000e+02	1.87451e+00	3.40000e+02
851	3.38834e+02	8.51000e+02	1.87214e+00	3.41000e+02
852	3.39839e+02	8.52000e+02	1.86956e+00	3.42000e+02
853	3.40846e+02	8.53000e+02	1.86697e+00	3.43000e+02
854	3.41859e+02	8.54000e+02	1.86430e+00	3.44000e+02
855	3.42876e+02	8.55000e+02	1.86156e+00	3.45000e+02
856	3.43882e+02	8.56000e+02	1.85846e+00	3.46000e+02
857	3.44876e+02	8.57000e+02	1.85536e+00	3.47000e+02
858	3.45885e+02	8.58000e+02	1.85212e+00	3.48000e+02
859	3.46891e+02	8.59000e+02	1.84878e+00	3.49000e+02
860	3.47903e+02	8.60000e+02	1.84489e+00	3.50000e+02
861	3.48912e+02	8.61000e+02	1.84104e+00	3.51000e+02
862	3.49930e+02	8.62000e+02	1.83704e+00	3.52000e+02
863	3.50928e+02	8.63000e+02	1.83291e+00	3.53000e+02
864	3.51935e+02	8.64000e+02	1.82810e+00	3.54000e+02
865	3.52940e+02	8.65000e+02	1.82333e+00	3.55000e+02
866	3.53947e+02	8.66000e+02	1.81836e+00	3.56000e+02
867	3.54949e+02	8.67000e+02	1.81322e+00	3.57000e+02
868	3.55954e+02	8.68000e+02	1.80718e+00	3.58000e+02
869	3.56948e+02	8.69000e+02	1.80116e+00	3.59000e+02
870	3.57945e+02	8.70000e+02	1.79486e+00	3.60000e+02
871	3.58933e+02	8.71000e+02	1.78831e+00	3.61000e+02
872	3.59932e+02	8.72000e+02	1.78050e+00	3.62000e+02
873	3.60911e+02	8.73000e+02	1.77276e+00	3.63000e+02
874	3.61912e+02	8.74000e+02	1.76467e+00	3.64000e+02
875	3.62906e+02	8.75000e+02	1.75628e+00	3.65000e+02
876	3.63914e+02	8.76000e+02	1.74630e+00	3.66000e+02
877	3.64909e+02	8.77000e+02	1.73646e+00	3.67000e+02
878	3.65896e+02	8.78000e+02	1.72620e+00	3.68000e+02
879	3.66870e+02	8.79000e+02	1.71556e+00	3.69000e+02
880	3.67852e+02	8.80000e+02	1.70302e+00	3.70000e+02
881	3.68828e+02	8.81000e+02	1.69092e+00	3.71000e+02
882	3.69827e+02	8.82000e+02	1.67838e+00	3.72000e+02
883	3.70816e+02	8.83000e+02	1.66429e+00	3.73000e+02
884	3.71795e+02	8.84000e+02	1.64898e+00	3.74000e+02
885	3.72787e+02	8.85000e+02	1.63423e+00	3.75000e+02
886	3.73784e+02	8.86000e+02	1.61836e+00	3.76000e+02
887	3.74777e+02	8.87000e+02	1.60187e+00	3.77000e+02
888	3.75779e+02	8.88000e+02	1.58290e+00	3.78000e+02
889	3.76780e+02	8.89000e+02	1.56401e+00	3.79000e+02
890	3.77779e+02	8.90000e+02	1.54413e+00	3.80000e+02
891	3.78778e+02	8.91000e+02	1.52306e+00	3.81000e+02
892	3.79783e+02	8.92000e+02	1.50077e+00	3.82000e+02
893	3.80777e+02	8.93000e+02	1.47887e+00	3.83000e+02
894	3.81765e+02	8.94000e+02	1.45649e+00	3.84000e+02
895	3.82766e+02	8.95000e+02	1.43266e+00	3.85000e+02
896	3.83757e+02	8.96000e+02	1.40744e+00	3.86000e+02
897	3.84764e+02	8.97000e+02	1.38246e+00	3.87000e+02
898	3.85761e+02	8.98000e+02	1.35703e+00	3.88000e+02
899	3.86739e+02	8.99000e+02	1.33119e+00	3.89000e+02
900	3.87721e+02	9.00000e+02	1.30346e+00	3.90000e+02
901	3.88699e+02	9.01000e+02	1.27610e+00	3.91000e+02
902	3.89657e+02	9.02000e+02	1.24846e+00	3.92000e+02
903	3.90628e+02	9.03000e+02	1.22055e+00	3.93000e+02
904	3.91592e+02	9.04000e+02	1.19119e+00	3.94000e+02
905	3.92572e+02	9.05000e+02	1.16218e+00	3.95000e+02
906	3.93549e+02	9.06000e+02	1.13300e+00	3.96000e+02
907	3.94517e+02	9.07000e+02	1.10365e+00	3.97000e+02
908	3.95489e+02	9.08000e+02	1.07341e+00	3.98000e+02
909	3.96476e+02	9.09000e+02	1.04341e+00	3.99000e+02
910	3.97452e+02	9.10000e+02	1.01334e+00	4.00000e+02
911	3.98449e+02	9.11000e+02	9.83187e-01	4.01000e+02
912	3.99435e+02	9.12000e+02	9.52565e-01	4.02000e+02
913	4.00409e+02	9.13000e+02	9.22088e-01	4.03000e+02
914	4.01401e+02	9.14000e+02	8.91574e-01	4.04000e+02
915	4.02370e+02	9.15000e+02	8.61010e-01	4.05000e+02
916	4.03357e+02	9.16000e+02	8.30224e-01	4.06000e+02
917	4.04350e+02	9.17000e+02	7.99489e-01	4.07000e+02
918	4.05339e+02	9.18000e+02	7.68705e-01	4.08000e+02
919	4.06344e+02	9.19000e+02	7.37868e-01	4.09000e+02
920	4.07338e+02	9.20000e+02	7.06799e-01	4.10000e+02
921	4.08341e+02	9.21000e+02	6.75711e-01	4.11000e+02
922	4.09335e+02	9.22000e+02	6.44538e-01	4.12000e+02
923	4.10332e+02	9.23000e+02	6.13301e-01	4.13000e+02
924	4.11324e+02	9.24000e+02	5.81820e-01	4.14000e+02
925	4.12330e+02	9.25000e+02	5.50533e-01	4.15000e+02
926	4.13346e+02	9.26000e+02	5.19430e-01	4.16000e+02
927	4.14351e+02	9.27000e+02	4.88478e-01	4.17000e+02
928	4.15366e+02	9.28000e+02	4.58202e-01	4.18000e+02
929	4.16368e+02	9.29000e+02	4.28040e-01	4.19000e+02
930	4.17375e+02	9.30000e+02	3.98057e-01	4.20000e+02
931	4.18388e+02	9.31000e+02	3.68912e-01	4.21000e+02
932	4.19385e+02	9.32000e+02	3.42051e-01	4.22000e+02
933	4.20392e+02	9.33000e+02	3.14859e-01	4.23000e+02
934	4.21405e+02	9.34000e+02	2.89796e-01	4.24000e+02
935	4.22421e+02	9.35000e+02	2.66691e-01	4.25000e+02
936	4.23423e+02	9.36000e+02	2.45277e-01	4.26000e+02
937	4.24435e+02	9.37000e+02	2.23650e-01	4.27000e+02
938	4.25447e+02	9.38000e+02	2.04245e-01	4.28000e+02
939	4.26464e+02	9.39000e+02	1.86822e-01	4.29000e+02
940	4.27476e+02	9.40000e+02	1.71387e-01	4.30000e+02
941	4.28480e+02	9.41000e+02	1.56142e-01	4.31000e+02
942	4.29487e+02	9.42000e+02	1.41855e-01	4.32000e+02
943	4.30500e+02	9.43000e+02	1.28282e-01	4.33000e+02
944	4.31519e+02	9.44000e+02	1.17627e-01	4.34000e+02
945	4.32539e+02	9.45000e+02	1.06855e-01	4.35000e+02
946	4.33550e+02	9.46000e+02	9.68455e-02	4.36000e+02
947	4.34565e+02	9.47000e+02	8.74767e-02	4.37000e+02
948	4.35575e+02	9.48000e+02	8.14261e-02	4.38000e+02
949	4.36585e+02	9.49000e+02	7.45080e-02	4.39000e+02
950	4.37593e+02	9.50000e+02	6.79473e-02	4.40000e+02
951	4.38588e+02	9.51000e+02	6.17970e-02	4.41000e+02
952	4.39611e+02	9.52000e+02	5.76781e-02	4.42000e+02
953	4.40610e+02	9.53000e+02	5.31504e-02	4.43000e+02
954	4.41625e+02	9.54000e+02	4.89076e-02	4.44000e+02
955	4.42632e+02	9.55000e+02	4.49546e-02	4.45000e+02
956	4.43636e+02	9.56000e+02	4.25057e-02	4.46000e+02
957	4.44632e+02	9.57000e+02	3.97079e-02	4.47000e+02
958	4.45633e+02	9.58000e+02	3.70832e-02	4.48000e+02
959	4.46638e+02	9.59000e+02	3.46477e-02	4.49000e+02
960	4.47636e+02	9.60000e+02	3.31967e-02	4.50000e+02
961	4.48639e+02	9.61000e+02	3.15045e-02	4.51000e+02
962	4.49653e+02	9.62000e+02	2.99171e-02	4.52000e+02
963	4.50642e+02	9.63000e+02	2.84488e-02	4.53000e+02
964	4.51650e+02	9.64000e+02	2.75905e-02	4.54000e+02
965	4.52669e+02	9.65000e+02	2.65830e-02	4.55000e+02
966	4.53673e+02	9.66000e+02	2.56389e-02	4.56000e+02
967	4.54681e+02	9.67000e+02	2.47669e-02	4.57000e+02
968	4.55711e+02	9.68000e+02	2.42687e-02	4.58000e+02
969	4.56732e+02	9.69000e+02	2.36734e-02	4.59000e+02
970	4.57745e+02	9.70000e+02	2.31124e-02	4.60000e+02
971	4.58744e+02	9.71000e+02	2.25920e-02	4.61000e+02
972	4.59762e+02	9.72000e+02	2.22841e-02	4.62000e+02
973	4.60779e+02	9.73000e+02	2.19182e-02	4.63000e+02
974	4.61779e+02	9.74000e+02	2.15703e-02	4.64000e+02
975	4.62765e+02	9.75000e+02	2.12457e-02	4.65000e+02
976	4.63742e+02	9.76000e+02	2.10364e-02	4.66000e+02
977	4.64744e+02	9.77000e+02	2.07974e-02	4.67000e+02
978	4.65762e+02	9.78000e+02	2.05709e-02	4.68000e+02
979	4.66750e+02	9.79000e+02	2.03592e-02	4.69000e+02
980	4.67752e+02	9.80000e+02	2.02211e-02	4.70000e+02
981	4.68771e+02	9.81000e+02	2.00702e-02	4.71000e+02
982	4.69768e+02	9.82000e+02	1.99310e-02	4.72000e+02
983	4.70770e+02	9.83000e+02	1.98027e-02	4.73000e+02
984	4.71772e+02	9.84000e+02	1.97300e-02	4.74000e+02
985	4.72771e+02	9.85000e+02	1.96415e-02	4.75000e+02
986	4.73775e+02	9.86000e+02	1.95565e-02	4.76000e+02
987	4.74771e+02	9.87000e+02	1.94762e-02	4.77000e+02
988	4.75771e+02	9.88000e+02	1.94199e-02	4.78000e+02
989	4.76750e+02	9.89000e+02	1.93531e-02	4.79000e+02
990	4.77727e+02	9.90000e+02	1.92864e-02	4.80000e+02
991	4.78717e+02	9.91000e+02	1.92211e-02	4.81000e+02
992	4.79701e+02	9.92000e+02	1.91612e-02	4.82000e+02
993	4.80678e+02	9.93000e+02	1.91026e-02	4.83000e+02
994	4.81658e+02	9.94000e+02	1.90474e-02	4.84000e+02
995	4.82646e+02	9.95000e+02	1.89951e-02	4.85000e+02
996	4.83631e+02	9.96000e+02	1.89572e-02	4.86000e+02
997	4.84624e+02	9.97000e+02	1.89193e-02	4.87000e+02
998	4.85619e+02	9.98000e+02	1.88852e-02	4.88000e+02
999	4.86614e+02	9.99000e+02	1.88541e-02	4.89000e+02
1000	4.87622e+02	1.00000e+03	1.88411e-02	4.90000e+02
1001	4.88619e+02	1.00100e+03	1.88231e-02	4.91000e+02
1002	4.89606e+02	1.00200e+03	1.88058e-02	4.92000e+02
1003	4.90605e+02	1.00300e+03	1.87898e-02	4.93000e+02
1004	4.91615e+02	1.00400e+03	1.87845e-02	4.94000e+02
1005	4.92610e+02	1.00500e+03	1.87773e-02	4.95000e+02
1006	4.93615e+02	1.00600e+03	1.87713e-02	4.96000e+02
1007	4.94615e+02	1.00700e+03	1.87662e-02	4.97000e+02
1008	4.95589e+02	1.00800e+03	1.87656e-02	4.98000e+02
1009	4.96566e+02	1.00900e+03	1.87618e-02	4.99000e+02
1010	4.97550e+02	1.01000e+03	1.87562e-02	5.00000e+02
1011	4.98528e+02	1.01100e+03	1.87493e-02	5.01000e+02
1012	4.99517e+02	1.01200e+03	1.87370e-02	5.02000e+02
1013	5.00501e+02	1.01300e+03	1.87248e-02	5.03000e+02
1014	5.01499e+02	1.01400e+03	1.87116e-02	5.04000e+02
1015	5.02501e+02	1.01500e+03	1.86969e-02	5.05000e+02
1016	5.03486e+02	1.01600e+03	1.86759e-02	5.06000e+02
1017	5.04466e+02	1.01700e+03	1.86573e-02	5.07000e+02
1018	5.05464e+02	1.01800e+03	1.86383e-02	5.08000e+02
1019	5.06448e+02	1.01900e+03	1.86184e-02	5.09000e+02
1020	5.07440e+02	1.02000e+03	1.85988e-02	5.10000e+02
1021	5.08442e+02	1.02100e+03	1.85804e-02	5.11000e+02
1022	5.09437e+02	1.02200e+03	1.85623e-02	5.12000e+02
1023	5.10429e+02	1.02300e+03	1.85443e-02	5.13000e+02
1024	5.11436e+02	1.02400e+03	1.85276e-02	5.14000e+02
1025	5.12426e+02	1.02500e+03	1.85113e-02	5.15000e+02
1026	5.13404e+02	1.02600e+03	1.84974e-02	5.16000e+02
1027	5.14406e+02	1.02700e+03	1.84856e-02	5.17000e+02
1028	5.15400e+02	1.02800e+03	1.84808e-02	5.18000e+02
1029	5.16378e+02	1.02900e+03	1.84787e-02	5.19000e+02
1030	5.17345e+02	1.03000e+03	1.84795e-02	5.20000e+02
1031	5.18314e+02	1.03100e+03	1.84818e-02	5.21000e+02
1032	5.19287e+02	1.03200e+03	1.84941e-02	5.22000e+02
1033	5.20273e+02	1.03300e+03	1.84989e-02	5.23000e+02
1034	5.21253e+02	1.03400e+03	1.85002e-02	5.24000e+02
1035	5.22237e+02	1.03500e+03	1.84996e-02	5.25000e+02
1036	5.23211e+02	1.03600e+03	1.84897e-02	5.26000e+02
1037	5.24197e+02	1.03700e+03	1.84787e-02	5.27000e+02
1038	5.25175e+02	1.03800e+03	1.84646e-02	5.28000e+02
1039	5.26146e+02	1.03900e+03	1.84484e-02	5.29000e+02
1040	5.27119e+02	1.04000e+03	1.84214e-02	5.30000e+02
1041	5.28093e+02	1.04100e+03	1.84002e-02	5.31000e+02
1042	5.29069e+02	1.04200e+03	1.83811e-02	5.32000e+02
1043	5.30040e+02	1.04300e+03	1.83635e-02	5.33000e+02
1044	5.31021e+02	1.04400e+03	1.83517e-02	5.34000e+02
1045	5.31991e+02	1.04500e+03	1.83413e-02	5.35000e+02
1046	5.32961e+02	1.04600e+03	1.83324e-02	5.36000e+02
1047	5.33937e+02	1.04700e+03	1.83245e-02	5.37000e+02
1048	5.34922e+02	1.04800e+03	1.83255e-02	5.38000e+02
1049	5.35893e+02	1.04900e+03	1.83227e-02	5.39000e+02
1050	5.36863e+02	1.05000e+03	1.83194e-02	5.40000e+02
1051	5.37845e+02	1.05100e+03	1.83157e-02	5.41000e+02
1052	5.38816e+02	1.05200e+03	1.83088e-02	5.42000e+02
1053	5.39794e+02	1.05300e+03	1.82989e-02	5.43000e+02
1054	5.40757e+02	1.05400e+03	1.82843e-02	5.44000e+02
1055	5.41741e+02	1.05500e+03	1.82663e-02	5.45000e+02
1056	5.42714e+02	1.05600e+03	1.82347e-02	5.46000e+02
1057	5.43695e+02	1.05700e+03	1.82055e-02	5.47000e+02
1058	5.44669e+02	1.05800e+03	1.81778e-02	5.48000e+02
1059	5.45644e+02	1.05900e+03	1.81516e-02	5.49000e+02
1060	5.46612e+02	1.06000e+03	1.81254e-02	5.50000e+02
1061	5.47590e+02	1.06100e+03	1.81080e-02	5.51000e+02
1062	5.48565e+02	1.06200e+03	1.80959e-02	5.52000e+02
1063	5.49544e+02	1.06300e+03	1.80870e-02	5.53000e+02
1064	5.50513e+02	1.06400e+03	1.81014e-02	5.54000e+02
1065	5.51497e+02	1.06500e+03	1.81093e-02	5.55000e+02
1066	5.52479e+02	1.06600e+03	1.81192e-02	5.56000e+02
1067	5.53456e+02	1.06700e+03	1.81314e-02	5.57000e+02
1068	5.54430e+02	1.06800e+03	1.81507e-02	5.58000e+02
1069	5.55415e+02	1.06900e+03	1.81631e-02	5.59000e+02
1070	5.56391e+02	1.07000e+03	1.81722e-02	5.60000e+02
1071	5.57374e+02	1.07100e+03	1.81795e-02	5.61000e+02
1072	5.58344e+02	1.07200e+03	1.81751e-02	5.62000e+02
1073	5.59322e+02	1.07300e+03	1.81706e-02	5.63000e+02
1074	5.60303e+02	1.07400e+03	1.81651e-02	5.64000e+02
1075	5.61280e+02	1.07500e+03	1.81591e-02	5.65000e+02
1076	5.62264e+02	1.07600e+03	1.81467e-02	5.66000e+02
1077	5.63255e+02	1.07700e+03	1.81433e-02	5.67000e+02
1078	5.64237e+02	1.07800e+03	1.81442e-02	5.68000e+02
1079	5.65231e+02	1.07900e+03	1.81473e-02	5.69000e+02
1080	5.66211e+02	1.08000e+03	1.81631e-02	5.70000e+02
1081	5.67199e+02	1.08100e+03	1.81742e-02	5.71000e+02
1082	5.68202e+02	1.08200e+03	1.81842e-02	5.72000e+02
1083	5.69235e+02	1.08300e+03	1.81934e-02	5.73000e+02
1084	5.70248e+02	1.08400e+03	1.82013e-02	5.74000e+02
1085	5.71252e+02	1.08500e+03	1.82049e-02	5.75000e+02
1086	5.72244e+02	1.08600e+03	1.82044e-02	5.76000e+02
1087	5.73233e+02	1.08700e+03	1.82010e-02	5.77000e+02
1088	5.74198e+02	1.08800e+03	1.81812e-02	5.78000e+02
1089	5.75195e+02	1.08900e+03	1.81633e-02	5.79000e+02
1090	5.76164e+02	1.09000e+03	1.81440e-02	5.80000e+02
1091	5.77170e+02	1.09100e+03	1.81241e-02	5.81000e+02
1092	5.78155e+02	1.09200e+03	1.80973e-02	5.82000e+02
1093	5.79114e+02	1.09300e+03	1.80784e-02	5.83000e+02
1094	5.80104e+02	1.09400e+03	1.80625e-02	5.84000e+02
1095	5.81093e+02	1.09500e+03	1.80471e-02	5.85000e+02
1096	5.82096e+02	1.09600e+03	1.80376e-02	5.86000e+02
1097	5.83086e+02	1.09700e+03	1.80227e-02	5.87000e+02
1098	5.84070e+02	1.09800e+03	1.80051e-02	5.88000e+02
1099	5.85055e+02	1.09900e+03	1.79865e-02	5.89000e+02
1100	5.86056e+02	1.10000e+03	1.79651e-02	5.90000e+02
1101	5.87044e+02	1.10100e+03	1.79490e-02	5.91000e+02
1102	5.88008e+02	1.10200e+03	1.79385e-02	5.92000e+02
1103	5.88981e+02	1.10300e+03	1.79320e-02	5.93000e+02
1104	5.89962e+02	1.10400e+03	1.79371e-02	5.94000e+02
1105	5.90939e+02	1.10500e+03	1.79423e-02	5.95000e+02
1106	5.91923e+02	1.10600e+03	1.79493e-02	5.96000e+02
1107	5.92919e+02	1.10700e+03	1.79571e-02	5.97000e+02
1108	5.93914e+02	1.10800e+03	1.79756e-02	5.98000e+02
1109	5.94897e+02	1.10900e+03	1.79862e-02	5.99000e+02
1110	5.95894e+02	1.11000e+03	1.79958e-02	6.00000e+02
1111	5.96886e+02	1.11100e+03	1.80058e-02	6.01000e+02
1112	5.97881e+02	1.11200e+03	1.80122e-02	6.02000e+02
1113	5.98869e+02	1.11300e+03	1.80220e-02	6.03000e+02
1114	5.99852e+02	1.11400e+03	1.80337e-02	6.04000e+02
1115	6.00851e+02	1.11500e+03	1.80460e-02	6.05000e+02
1116	6.01852e+02	1.11600e+03	1.80615e-02	6.06000e+02
1117	6.02849e+02	1.11700e+03	1.80737e-02	6.07000e+02
1118	6.03851e+02	1.11800e+03	1.80826e-02	6.08000e+02
1119	6.04859e+02	1.11900e+03	1.80888e-02	6.09000e+02
1120	6.05859e+02	1.12000e+03	1.80844e-02	6.10000e+02
1121	6.06848e+02	1.12100e+03	1.80771e-02	6.11000e+02
1122	6.07850e+02	1.12200e+03	1.80663e-02	6.12000e+02
1123	6.08851e+02	1.12300e+03	1.80537e-02	6.13000e+02
1124	6.09850e+02	1.12400e+03	1.80269e-02	6.14000e+02
1125	6.10862e+02	1.12500e+03	1.80082e-02	6.15000e+02
1126	6.11854e+02	1.12600e+03	1.79907e-02	6.16000e+02
1127	6.12856e+02	1.12700e+03	1.79733e-02	6.17000e+02
1128	6.13854e+02	1.12800e+03	1.79587e-02	6.18000e+02
1129	6.14870e+02	1.12900e+03	1.79439e-02	6.19000e+02
1130	6.15890e+02	1.13000e+03	1.79307e-02	6.20000e+02
1131	6.16909e+02	1.13100e+03	1.79185e-02	6.21000e+02
1132	6.17898e+02	1.13200e+03	1.79085e-02	6.22000e+02
1133	6.18910e+02	1.13300e+03	1.78977e-02	6.23000e+02
1134	6.19919e+02	1.13400e+03	1.78876e-02	6.24000e+02
1135	6.20934e+02	1.13500e+03	1.78787e-02	6.25000e+02
1136	6.21917e+02	1.13600e+03	1.78762e-02	6.26000e+02
1137	6.22929e+02	1.13700e+03	1.78741e-02	6.27000e+02
1138	6.23911e+02	1.13800e+03	1.78726e-02	6.28000e+02
1139	6.24906e+02	1.13900e+03	1.78716e-02	6.29000e+02
1140	6.25916e+02	1.14000e+03	1.78742e-02	6.30000e+02
1141	6.26870e+02	1.14100e+03	1.78708e-02	6.31000e+02
1142	6.27851e+02	1.14200e+03	1.78632e-02	6.32000e+02
1143	6.28814e+02	1.14300e+03	1.78529e-02	6.33000e+02
1144	6.29821e+02	1.14400e+03	1.78307e-02	6.34000e+02
1145	6.30824e+02	1.14500e+03	1.78114e-02	6.35000e+02
1146	6.31808e+02	1.14600e+03	1.77931e-02	6.36000e+02
1147	6.32797e+02	1.14700e+03	1.77760e-02	6.37000e+02
1148	6.33775e+02	1.14800e+03	1.77635e-02	6.38000e+02
1149	6.34746e+02	1.14900e+03	1.77614e-02	6.39000e+02
1150	6.35733e+02	1.15000e+03	1.77678e-02	6.40000e+02
1151	6.36715e+02	1.15100e+03	1.77792e-02	6.41000e+02
1152	6.37697e+02	1.15200e+03	1.78173e-02	6.42000e+02
1153	6.38689e+02	1.15300e+03	1.78436e-02	6.43000e+02
1154	6.39668e+02	1.15400e+03	1.78660e-02	6.44000e+02
1155	6.40639e+02	1.15500e+03	1.78866e-02	6.45000e+02
1156	6.41602e+02	1.15600e+03	1.79052e-02	6.46000e+02
1157	6.42585e+02	1.15700e+03	1.79167e-02	6.47000e+02
1158	6.43559e+02	1.15800e+03	1.79234e-02	6.48000e+02
1159	6.44544e+02	1.15900e+03	1.79273e-02	6.49000e+02
1160	6.45522e+02	1.16000e+03	1.79118e-02	6.50000e+02
1161	6.46511e+02	1.16100e+03	1.79035e-02	6.51000e+02
1162	6.47500e+02	1.16200e+03	1.78957e-02	6.52000e+02
1163	6.48495e+02	1.16300e+03	1.78877e-02	6.53000e+02
1164	6.49472e+02	1.16400e+03	1.78744e-02	6.54000e+02
1165	6.50460e+02	1.16500e+03	1.78630e-02	6.55000e+02
1166	6.51443e+02	1.16600e+03	1.78520e-02	6.56000e+02
1167	6.52425e+02	1.16700e+03	1.78411e-02	6.57000e+02
1168	6.53423e+02	1.16800e+03	1.78314e-02	6.58000e+02
1169	6.54415e+02	1.16900e+03	1.78223e-02	6.59000e+02
1170	6.55387e+02	1.17000e+03	1.78143e-02	6.60000e+02
1171	6.56373e+02	1.17100e+03	1.78071e-02	6.61000e+02
1172	6.57372e+02	1.17200e+03	1.78033e-02	6.62000e+02
1173	6.58361e+02	1.17300e+03	1.77994e-02	6.63000e+02
1174	6.59349e+02	1.17400e+03	1.77969e-02	6.64000e+02
1175	6.60330e+02	1.17500e+03	1.77955e-02	6.65000e+02
1176	6.61335e+02	1.17600e+03	1.77982e-02	6.66000e+02
1177	6.62321e+02	1.17700e+03	1.77989e-02	6.67000e+02
1178	6.63312e+02	1.17800e+03	1.77990e-02	6.68000e+02
1179	6.64293e+02	1.17900e+03	1.77987e-02	6.69000e+02
1180	6.65282e+02	1.18000e+03	1.77975e-02	6.70000e+02
1181	6.66259e+02	1.18100e+03	1.77943e-02	6.71000e+02
1182	6.67253e+02	1.18200e+03	1.77898e-02	6.72000e+02
1183	6.68238e+02	1.18300e+03	1.77849e-02	6.73000e+02
1184	6.69183e+02	1.18400e+03	1.77807e-02	6.74000e+02
1185	6.69534e+02	1.18500e+03	1.77849e-02	6.75000e+02
1186	6.69912e+02	1.18600e+03	1.77976e-02	6.76000e+02
1187	6.70533e+02	1.18700e+03	1.78155e-02	6.77000e+02
1188	6.71253e+02	1.18800e+03	1.78635e-02	6.78000e+02
1189	6.71982e+02	1.18900e+03	1.79092e-02	6.79000e+02
1190	6.72711e+02	1.19000e+03	1.79512e-02	6.80000e+02
1191	6.73399e+02	1.19100e+03	1.79874e-02	6.81000e+02
1192	6.74072e+02	1.19200e+03	1.80357e-02	6.82000e+02
1193	6.74714e+02	1.19300e+03	1.80592e-02	6.83000e+02
1194	6.75344e+02	1.19400e+03	1.80671e-02	6.84000e+02
1195	6.75969e+02	1.19500e+03	1.80665e-02	6.85000e+02
1196	6.76571e+02	1.19600e+03	1.80263e-02	6.86000e+02
1197	6.77144e+02	1.19700e+03	1.80017e-02	6.87000e+02
1198	6.77714e+02	1.19800e+03	1.79773e-02	6.88000e+02
1199	6.78255e+02	1.19900e+03	1.79512e-02	6.89000e+02
1200	6.78784e+02	1.20000e+03	1.79143e-02	6.90000e+02
1201	6.79299e+02	1.20100e+03	1.78834e-02	6.91000e+02
1202	6.79794e+02	1.20200e+03	1.78549e-02	6.92000e+02
1203	6.80289e+02	1.20300e+03	1.78281e-02	6.93000e+02
1204	6.80762e+02	1.20400e+03	1.78059e-02	6.94000e+02
1205	6.81213e+02	1.20500e+03	1.77859e-02	6.95000e+02
1206	6.81654e+02	1.20600e+03	1.77699e-02	6.96000e+02
1207	6.82081e+02	1.20700e+03	1.77569e-02	6.97000e+02
1208	6.82502e+02	1.20800e+03	1.77543e-02	6.98000e+02
1209	6.82923e+02	1.20900e+03	1.77506e-02	6.99000e+02
1210	6.83324e+02	1.21000e+03	1.77502e-02	7.00000e+02