File: Experiments/TUBS/tga_nonisotherm/tga_dynamic_n2_dyn45_piece_3mg_r1.txt
index	ts	t	weight	tr
[#]	[°C]	[s]	[mg]	[°C]
657	1.32624e+02	6.57000e+02	3.02382e+00	1.32752e+02
658	1.33387e+02	6.58000e+02	3.02383e+00	1.33502e+02
659	1.34157e+02	6.59000e+02	3.02382e+00	1.34252e+02
660	1.34915e+02	6.60000e+02	3.02377e+00	1.35002e+02
661	1.35687e+02	6.61000e+02	3.02371e+00	1.35752e+02
662	1.36459e+02	6.62000e+02	3.02363e+00	1.36502e+02
663	1.37208e+02	6.63000e+02	3.02356e+00	1.37252e+02
664	1.37997e+02	6.64000e+02	3.02345e+00	1.38002e+02
665	1.38739e+02	6.65000e+02	3.02338e+00	1.38752e+02
666	1.39501e+02	6.66000e+02	3.02333e+00	1.39502e+02
667	1.40281e+02	6.67000e+02	3.02330e+00	1.40252e+02
668	1.41028e+02	6.68000e+02	3.02332e+00	1.41002e+02
669	1.41794e+02	6.69000e+02	3.02333e+00	1.41752e+02
670	1.42560e+02	6.70000e+02	3.02333e+00	1.42502e+02
671	1.43328e+02	6.71000e+02	3.02333e+00	1.43252e+02
672	1.44088e+02	6.72000e+02	3.02334e+00	1.44002e+02
673	1.44848e+02	6.73000e+02	3.02334e+00	1.44752e+02
674	1.45617e+02	6.74000e+02	3.02332e+00	1.45502e+02
675	1.46347e+02	6.75000e+02	3.02331e+00	1.46252e+02
676	1.47126e+02	6.76000e+02	3.02326e+00	1.47002e+02
677	1.47882e+02	6.77000e+02	3.02323e+00	1.47752e+02
678	1.48649e+02	6.78000e+02	3.02318e+00	1.48502e+02
679	1.49409e+02	6.79000e+02	3.02314e+00	1.49252e+02
680	1.50178e+02	6.80000e+02	3.02307e+00	1.50002e+02
681	1.50949e+02	6.81000e+02	3.02300e+00	1.50752e+02
682	1.51696e+02	6.82000e+02	3.02293e+00	1.51503e+02
683	1.52469e+02	6.83000e+02	3.02287e+00	1.52253e+02
684	1.53228e+02	6.84000e+02	3.02279e+00	1.53003e+02
685	1.53980e+02	6.85000e+02	3.02273e+00	1.53753e+02
686	1.54758e+02	6.86000e+02	3.02268e+00	1.54503e+02
687	1.55512e+02	6.87000e+02	3.02263e+00	1.55253e+02
688	1.56265e+02	6.88000e+02	3.02261e+00	1.56003e+02
689	1.57034e+02	6.89000e+02	3.02258e+00	1.56753e+02
690	1.57801e+02	6.90000e+02	3.02255e+00	1.57503e+02
691	1.58568e+02	6.91000e+02	3.02251e+00	1.58253e+02
692	1.59313e+02	6.92000e+02	3.02246e+00	1.59003e+02
693	1.60075e+02	6.93000e+02	3.02240e+00	1.59753e+02
694	1.60833e+02	6.94000e+02	3.02234e+00	1.60503e+02
695	1.61598e+02	6.95000e+02	3.02227e+00	1.61253e+02
696	1.62367e+02	6.96000e+02	3.02217e+00	1.62003e+02
697	1.63126e+02	6.97000e+02	3.02209e+00	1.62753e+02
698	1.63897e+02	6.98000e+02	3.02203e+00	1.63503e+02
699	1.64663e+02	6.99000e+02	3.02197e+00	1.64253e+02
700	1.65426e+02	7.00000e+02	3.02194e+00	1.65003e+02
701	1.66176e+02	7.01000e+02	3.02191e+00	1.65753e+02
702	1.66926e+02	7.02000e+02	3.02189e+00	1.66503e+02
703	1.67696e+02	7.03000e+02	3.02187e+00	1.67253e+02
704	1.68461e+02	7.04000e+02	3.02189e+00	1.68003e+02
705	1.69219e+02	7.05000e+02	3.02190e+00	1.68753e+02
706	1.69979e+02	7.06000e+02	3.02190e+00	1.69503e+02
707	1.70755e+02	7.07000e+02	3.02190e+00	1.70253e+02
708	1.71513e+02	7.08000e+02	3.02189e+00	1.71003e+02
709	1.72262e+02	7.09000e+02	3.02187e+00	1.71753e+02
710	1.73030e+02	7.10000e+02	3.02184e+00	1.72503e+02
711	1.73794e+02	7.11000e+02	3.02181e+00	1.73253e+02
712	1.74561e+02	7.12000e+02	3.02173e+00	1.74003e+02
713	1.75311e+02	7.13000e+02	3.02165e+00	1.74753e+02
714	1.76094e+02	7.14000e+02	3.02157e+00	1.75503e+02
715	1.76838e+02	7.15000e+02	3.02149e+00	1.76254e+02
716	1.77606e+02	7.16000e+02	3.02137e+00	1.77004e+02
717	1.78372e+02	7.17000e+02	3.02128e+00	1.77754e+02
718	1.79147e+02	7.18000e+02	3.02119e+00	1.78504e+02
719	1.79896e+02	7.19000e+02	3.02111e+00	1.79254e+02
720	1.80661e+02	7.20000e+02	3.02103e+00	1.80004e+02
721	1.81418e+02	7.21000e+02	3.02095e+00	1.80754e+02
722	1.82172e+02	7.22000e+02	3.02086e+00	1.81504e+02
723	1.82938e+02	7.23000e+02	3.02077e+00	1.82254e+02
724	1.83698e+02	7.24000e+02	3.02066e+00	1.83004e+02
725	1.84457e+02	7.25000e+02	3.02056e+00	1.83754e+02
726	1.85231e+02	7.26000e+02	3.02045e+00	1.84504e+02
727	1.85994e+02	7.27000e+02	3.02035e+00	1.85254e+02
728	1.86752e+02	7.28000e+02	3.02024e+00	1.86004e+02
729	1.87514e+02	7.29000e+02	3.02012e+00	1.86754e+02
730	1.88268e+02	7.30000e+02	3.02002e+00	1.87504e+02
731	1.89039e+02	7.31000e+02	3.01990e+00	1.88254e+02
732	1.89795e+02	7.32000e+02	3.01978e+00	1.89004e+02
733	1.90566e+02	7.33000e+02	3.01964e+00	1.89754e+02
734	1.91330e+02	7.34000e+02	3.01950e+00	1.90504e+02
735	1.92084e+02	7.35000e+02	3.01934e+00	1.91254e+02
736	1.92847e+02	7.36000e+02	3.01915e+00	1.92004e+02
737	1.93612e+02	7.37000e+02	3.01896e+00	1.92754e+02
738	1.94379e+02	7.38000e+02	3.01876e+00	1.93504e+02
739	1.95138e+02	7.39000e+02	3.01856e+00	1.94254e+02
740	1.95905e+02	7.40000e+02	3.01832e+00	1.95004e+02
741	1.96665e+02	7.41000e+02	3.01808e+00	1.95754e+02
742	1.97421e+02	7.42000e+02	3.01783e+00	1.96504e+02
743	1.98179e+02	7.43000e+02	3.01757e+00	1.97254e+02
744	1.98947e+02	7.44000e+02	3.01727e+00	1.98004e+02
745	1.99719e+02	7.45000e+02	3.01697e+00	1.98754e+02
746	2.00477e+02	7.46000e+02	3.01667e+00	1.99504e+02
747	2.01246e+02	7.47000e+02	3.01637e+00	2.00255e+02
748	2.02003e+02	7.48000e+02	3.01605e+00	2.01005e+02
749	2.02765e+02	7.49000e+02	3.01575e+00	2.01755e+02
750	2.03521e+02	7.50000e+02	3.01545e+00	2.02505e+02
751	2.04287e+02	7.51000e+02	3.01515e+00	2.03255e+02
752	2.05051e+02	7.52000e+02	3.01485e+00	2.04005e+02
753	2.05816e+02	7.53000e+02	3.01453e+00	2.04755e+02
754	2.06570e+02	7.54000e+02	3.01420e+00	2.05505e+02
755	2.07342e+02	7.55000e+02	3.01386e+00	2.06255e+02
756	2.08102e+02	7.56000e+02	3.01348e+00	2.07005e+02
757	2.08857e+02	7.57000e+02	3.01310e+00	2.07755e+02
758	2.09622e+02	7.58000e+02	3.01272e+00	2.08505e+02
759	2.10389e+02	7.59000e+02	3.01233e+00	2.09255e+02
760	2.11150e+02	7.60000e+02	3.01192e+00	2.10005e+02
761	2.11924e+02	7.61000e+02	3.01151e+00	2.10755e+02
762	2.12695e+02	7.62000e+02	3.01112e+00	2.11505e+02
763	2.13451e+02	7.63000e+02	3.01072e+00	2.12255e+02
764	2.14220e+02	7.64000e+02	3.01033e+00	2.13005e+02
765	2.14989e+02	7.65000e+02	3.00994e+00	2.13755e+02
766	2.15743e+02	7.66000e+02	3.00955e+00	2.14505e+02
767	2.16505e+02	7.67000e+02	3.00915e+00	2.15255e+02
768	2.17264e+02	7.68000e+02	3.00874e+00	2.16005e+02
769	2.18036e+02	7.69000e+02	3.00830e+00	2.16755e+02
770	2.18805e+02	7.70000e+02	3.00784e+00	2.17505e+02
771	2.19561e+02	7.71000e+02	3.00736e+00	2.18255e+02
772	2.20320e+02	7.72000e+02	3.00682e+00	2.19005e+02
773	2.21091e+02	7.73000e+02	3.00631e+00	2.19755e+02
774	2.21854e+02	7.74000e+02	3.00580e+00	2.20505e+02
775	2.22614e+02	7.75000e+02	3.00529e+00	2.21255e+02
776	2.23402e+02	7.76000e+02	3.00478e+00	2.22005e+02
777	2.24172e+02	7.77000e+02	3.00429e+00	2.22755e+02
778	2.24954e+02	7.78000e+02	3.00382e+00	2.23505e+02
779	2.25711e+02	7.79000e+02	3.00334e+00	2.24255e+02
780	2.26488e+02	7.80000e+02	3.00290e+00	2.25006e+02
781	2.27255e+02	7.81000e+02	3.00243e+00	2.25756e+02
782	2.28021e+02	7.82000e+02	3.00196e+00	2.26506e+02
783	2.28805e+02	7.83000e+02	3.00148e+00	2.27256e+02
784	2.29585e+02	7.84000e+02	3.00098e+00	2.28006e+02
785	2.30344e+02	7.85000e+02	3.00049e+00	2.28756e+02
786	2.31111e+02	7.86000e+02	3.00000e+00	2.29506e+02
787	2.31872e+02	7.87000e+02	2.99950e+00	2.30256e+02
788	2.32635e+02	7.88000e+02	2.99899e+00	2.31006e+02
789	2.33401e+02	7.89000e+02	2.99848e+00	2.31756e+02
790	2.34157e+02	7.90000e+02	2.99797e+00	2.32506e+02
791	2.34929e+02	7.91000e+02	2.99746e+00	2.33256e+02
792	2.35678e+02	7.92000e+02	2.99694e+00	2.34006e+02
793	2.36444e+02	7.93000e+02	2.99642e+00	2.34756e+02
794	2.37200e+02	7.94000e+02	2.99590e+00	2.35506e+02
795	2.37963e+02	7.95000e+02	2.99538e+00	2.36256e+02
796	2.38717e+02	7.96000e+02	2.99487e+00	2.37006e+02
797	2.39485e+02	7.97000e+02	2.99435e+00	2.37756e+02
798	2.40251e+02	7.98000e+02	2.99384e+00	2.38506e+02
799	2.41012e+02	7.99000e+02	2.99332e+00	2.39256e+02
800	2.41771e+02	8.00000e+02	2.99281e+00	2.40006e+02
801	2.42542e+02	8.01000e+02	2.99229e+00	2.40756e+02
802	2.43299e+02	8.02000e+02	2.99176e+00	2.41506e+02
803	2.44062e+02	8.03000e+02	2.99123e+00	2.42256e+02
804	2.44807e+02	8.04000e+02	2.99067e+00	2.43006e+02
805	2.45591e+02	8.05000e+02	2.99011e+00	2.43756e+02
806	2.46376e+02	8.06000e+02	2.98955e+00	2.44506e+02
807	2.47151e+02	8.07000e+02	2.98897e+00	2.45256e+02
808	2.47925e+02	8.08000e+02	2.98837e+00	2.46006e+02
809	2.48697e+02	8.09000e+02	2.98777e+00	2.46756e+02
810	2.49474e+02	8.10000e+02	2.98718e+00	2.47506e+02
811	2.50245e+02	8.11000e+02	2.98658e+00	2.48256e+02
812	2.51013e+02	8.12000e+02	2.98596e+00	2.49007e+02
813	2.51787e+02	8.13000e+02	2.98535e+00	2.49757e+02
814	2.52547e+02	8.14000e+02	2.98473e+00	2.50507e+02
815	2.53311e+02	8.15000e+02	2.98412e+00	2.51257e+02
816	2.54090e+02	8.16000e+02	2.98348e+00	2.52007e+02
817	2.54872e+02	8.17000e+02	2.98286e+00	2.52757e+02
818	2.55647e+02	8.18000e+02	2.98223e+00	2.53507e+02
819	2.56412e+02	8.19000e+02	2.98161e+00	2.54257e+02
820	2.57173e+02	8.20000e+02	2.98099e+00	2.55007e+02
821	2.57951e+02	8.21000e+02	2.98037e+00	2.55757e+02
822	2.58706e+02	8.22000e+02	2.97976e+00	2.56507e+02
823	2.59455e+02	8.23000e+02	2.97915e+00	2.57257e+02
824	2.60241e+02	8.24000e+02	2.97855e+00	2.58007e+02
825	2.61006e+02	8.25000e+02	2.97793e+00	2.58757e+02
826	2.61758e+02	8.26000e+02	2.97730e+00	2.59507e+02
827	2.62532e+02	8.27000e+02	2.97667e+00	2.60257e+02
828	2.63291e+02	8.28000e+02	2.97600e+00	2.61007e+02
829	2.64055e+02	8.29000e+02	2.97534e+00	2.61757e+02
830	2.64806e+02	8.30000e+02	2.97466e+00	2.62507e+02
831	2.65554e+02	8.31000e+02	2.97399e+00	2.63257e+02
832	2.66314e+02	8.32000e+02	2.97327e+00	2.64007e+02
833	2.67075e+02	8.33000e+02	2.97258e+00	2.64757e+02
834	2.67829e+02	8.34000e+02	2.97188e+00	2.65507e+02
835	2.68597e+02	8.35000e+02	2.97119e+00	2.66257e+02
836	2.69351e+02	8.36000e+02	2.97050e+00	2.67007e+02
837	2.70109e+02	8.37000e+02	2.96981e+00	2.67757e+02
838	2.70871e+02	8.38000e+02	2.96912e+00	2.68507e+02
839	2.71644e+02	8.39000e+02	2.96843e+00	2.69257e+02
840	2.72400e+02	8.40000e+02	2.96774e+00	2.70007e+02
841	2.73151e+02	8.41000e+02	2.96704e+00	2.70757e+02
842	2.73914e+02	8.42000e+02	2.96634e+00	2.71507e+02
843	2.74678e+02	8.43000e+02	2.96563e+00	2.72257e+02
844	2.75440e+02	8.44000e+02	2.96491e+00	2.73007e+02
845	2.76218e+02	8.45000e+02	2.96419e+00	2.73758e+02
846	2.76972e+02	8.46000e+02	2.96347e+00	2.74508e+02
847	2.77749e+02	8.47000e+02	2.96274e+00	2.75258e+02
848	2.78508e+02	8.48000e+02	2.96199e+00	2.76008e+02
849	2.79257e+02	8.49000e+02	2.96124e+00	2.76758e+02
850	2.80013e+02	8.50000e+02	2.96049e+00	2.77508e+02
851	2.80775e+02	8.51000e+02	2.95973e+00	2.78258e+02
852	2.81531e+02	8.52000e+02	2.95894e+00	2.79008e+02
853	2.82285e+02	8.53000e+02	2.95817e+00	2.79758e+02
854	2.83053e+02	8.54000e+02	2.95738e+00	2.80508e+02
855	2.83807e+02	8.55000e+02	2.95660e+00	2.81258e+02
856	2.84572e+02	8.56000e+02	2.95579e+00	2.82008e+02
857	2.85340e+02	8.57000e+02	2.95499e+00	2.82758e+02
858	2.86104e+02	8.58000e+02	2.95419e+00	2.83508e+02
859	2.86853e+02	8.59000e+02	2.95338e+00	2.84258e+02
860	2.87625e+02	8.60000e+02	2.95255e+00	2.85008e+02
861	2.88390e+02	8.61000e+02	2.95173e+00	2.85758e+02
862	2.89153e+02	8.62000e+02	2.95090e+00	2.86508e+02
863	2.89927e+02	8.63000e+02	2.95005e+00	2.87258e+02
864	2.90670e+02	8.64000e+02	2.94917e+00	2.88008e+02
865	2.91440e+02	8.65000e+02	2.94828e+00	2.88758e+02
866	2.92203e+02	8.66000e+02	2.94737e+00	2.89508e+02
867	2.92961e+02	8.67000e+02	2.94645e+00	2.90258e+02
868	2.93727e+02	8.68000e+02	2.94546e+00	2.91008e+02
869	2.94457e+02	8.69000e+02	2.94448e+00	2.91758e+02
870	2.95204e+02	8.70000e+02	2.94348e+00	2.92508e+02
871	2.95971e+02	8.71000e+02	2.94247e+00	2.93258e+02
872	2.96727e+02	8.72000e+02	2.94137e+00	2.94008e+02
873	2.97505e+02	8.73000e+02	2.94026e+00	2.94758e+02
874	2.98241e+02	8.74000e+02	2.93912e+00	2.95508e+02
875	2.98988e+02	8.75000e+02	2.93796e+00	2.96258e+02
876	2.99747e+02	8.76000e+02	2.93667e+00	2.97008e+02
877	3.00517e+02	8.77000e+02	2.93540e+00	2.97759e+02
878	3.01273e+02	8.78000e+02	2.93410e+00	2.98509e+02
879	3.02032e+02	8.79000e+02	2.93279e+00	2.99259e+02
880	3.02789e+02	8.80000e+02	2.93137e+00	3.00009e+02
881	3.03548e+02	8.81000e+02	2.92998e+00	3.00759e+02
882	3.04317e+02	8.82000e+02	2.92858e+00	3.01509e+02
883	3.05082e+02	8.83000e+02	2.92718e+00	3.02259e+02
884	3.05837e+02	8.84000e+02	2.92572e+00	3.03009e+02
885	3.06608e+02	8.85000e+02	2.92428e+00	3.03759e+02
886	3.07378e+02	8.86000e+02	2.92282e+00	3.04509e+02
887	3.08152e+02	8.87000e+02	2.92135e+00	3.05259e+02
888	3.08922e+02	8.88000e+02	2.91982e+00	3.06009e+02
889	3.09680e+02	8.89000e+02	2.91829e+00	3.06759e+02
890	3.10434e+02	8.90000e+02	2.91674e+00	3.07509e+02
891	3.11193e+02	8.91000e+02	2.91516e+00	3.08259e+02
892	3.11955e+02	8.92000e+02	2.91350e+00	3.09009e+02
893	3.12720e+02	8.93000e+02	2.91185e+00	3.09759e+02
894	3.13484e+02	8.94000e+02	2.91017e+00	3.10509e+02
895	3.14233e+02	8.95000e+02	2.90848e+00	3.11259e+02
896	3.14993e+02	8.96000e+02	2.90668e+00	3.12009e+02
897	3.15754e+02	8.97000e+02	2.90490e+00	3.12759e+02
898	3.16518e+02	8.98000e+02	2.90310e+00	3.13509e+02
899	3.17266e+02	8.99000e+02	2.90127e+00	3.14259e+02
900	3.18030e+02	9.00000e+02	2.89933e+00	3.15009e+02
901	3.18804e+02	9.01000e+02	2.89741e+00	3.15759e+02
902	3.19587e+02	9.02000e+02	2.89546e+00	3.16509e+02
903	3.20378e+02	9.03000e+02	2.89350e+00	3.17259e+02
904	3.21146e+02	9.04000e+02	2.89143e+00	3.18009e+02
905	3.21922e+02	9.05000e+02	2.88939e+00	3.18759e+02
906	3.22680e+02	9.06000e+02	2.88733e+00	3.19509e+02
907	3.23448e+02	9.07000e+02	2.88525e+00	3.20259e+02
908	3.24218e+02	9.08000e+02	2.88308e+00	3.21009e+02
909	3.24960e+02	9.09000e+02	2.88094e+00	3.21759e+02
910	3.25704e+02	9.10000e+02	2.87877e+00	3.22510e+02
911	3.26451e+02	9.11000e+02	2.87659e+00	3.23260e+02
912	3.27228e+02	9.12000e+02	2.87434e+00	3.24010e+02
913	3.27970e+02	9.13000e+02	2.87209e+00	3.24760e+02
914	3.28700e+02	9.14000e+02	2.86982e+00	3.25510e+02
915	3.29452e+02	9.15000e+02	2.86753e+00	3.26260e+02
916	3.30193e+02	9.16000e+02	2.86516e+00	3.27010e+02
917	3.30927e+02	9.17000e+02	2.86279e+00	3.27760e+02
918	3.31644e+02	9.18000e+02	2.86040e+00	3.28510e+02
919	3.32340e+02	9.19000e+02	2.85798e+00	3.29260e+02
920	3.33057e+02	9.20000e+02	2.85546e+00	3.30010e+02
921	3.33762e+02	9.21000e+02	2.85295e+00	3.30760e+02
922	3.34490e+02	9.22000e+02	2.85040e+00	3.31510e+02
923	3.35242e+02	9.23000e+02	2.84783e+00	3.32260e+02
924	3.36002e+02	9.24000e+02	2.84511e+00	3.33010e+02
925	3.36773e+02	9.25000e+02	2.84239e+00	3.33760e+02
926	3.37521e+02	9.26000e+02	2.83962e+00	3.34510e+02
927	3.38275e+02	9.27000e+02	2.83681e+00	3.35260e+02
928	3.39026e+02	9.28000e+02	2.83377e+00	3.36010e+02
929	3.39801e+02	9.29000e+02	2.83074e+00	3.36760e+02
930	3.40551e+02	9.30000e+02	2.82763e+00	3.37510e+02
931	3.41316e+02	9.31000e+02	2.82446e+00	3.38260e+02
932	3.42085e+02	9.32000e+02	2.82096e+00	3.39010e+02
933	3.42832e+02	9.33000e+02	2.81748e+00	3.39760e+02
934	3.43585e+02	9.34000e+02	2.81391e+00	3.40510e+02
935	3.44343e+02	9.35000e+02	2.81025e+00	3.41260e+02
936	3.45100e+02	9.36000e+02	2.80617e+00	3.42010e+02
937	3.45834e+02	9.37000e+02	2.80214e+00	3.42760e+02
938	3.46620e+02	9.38000e+02	2.79801e+00	3.43510e+02
939	3.47395e+02	9.39000e+02	2.79379e+00	3.44260e+02
940	3.48200e+02	9.40000e+02	2.78912e+00	3.45010e+02
941	3.48952e+02	9.41000e+02	2.78450e+00	3.45760e+02
942	3.49707e+02	9.42000e+02	2.77978e+00	3.46510e+02
943	3.50471e+02	9.43000e+02	2.77497e+00	3.47261e+02
944	3.51218e+02	9.44000e+02	2.76966e+00	3.48011e+02
945	3.51958e+02	9.45000e+02	2.76437e+00	3.48761e+02
946	3.52704e+02	9.46000e+02	2.75893e+00	3.49511e+02
947	3.53443e+02	9.47000e+02	2.75336e+00	3.50261e+02
948	3.54210e+02	9.48000e+02	2.74710e+00	3.51011e+02
949	3.54948e+02	9.49000e+02	2.74086e+00	3.51761e+02
950	3.55696e+02	9.50000e+02	2.73439e+00	3.52511e+02
951	3.56454e+02	9.51000e+02	2.72772e+00	3.53261e+02
952	3.57201e+02	9.52000e+02	2.72003e+00	3.54011e+02
953	3.57949e+02	9.53000e+02	2.71234e+00	3.54761e+02
954	3.58693e+02	9.54000e+02	2.70432e+00	3.55511e+02
955	3.59437e+02	9.55000e+02	2.69601e+00	3.56261e+02
956	3.60181e+02	9.56000e+02	2.68622e+00	3.57011e+02
957	3.60913e+02	9.57000e+02	2.67653e+00	3.57761e+02
958	3.61655e+02	9.58000e+02	2.66642e+00	3.58511e+02
959	3.62399e+02	9.59000e+02	2.65595e+00	3.59261e+02
960	3.63145e+02	9.60000e+02	2.64366e+00	3.60011e+02
961	3.63875e+02	9.61000e+02	2.63156e+00	3.60761e+02
962	3.64615e+02	9.62000e+02	2.61903e+00	3.61511e+02
963	3.65336e+02	9.63000e+02	2.60612e+00	3.62261e+02
964	3.66045e+02	9.64000e+02	2.59119e+00	3.63011e+02
965	3.66785e+02	9.65000e+02	2.57677e+00	3.63761e+02
966	3.67533e+02	9.66000e+02	2.56195e+00	3.64511e+02
967	3.68281e+02	9.67000e+02	2.54562e+00	3.65261e+02
968	3.68999e+02	9.68000e+02	2.52813e+00	3.66011e+02
969	3.69723e+02	9.69000e+02	2.51118e+00	3.66761e+02
970	3.70460e+02	9.70000e+02	2.49283e+00	3.67511e+02
971	3.71181e+02	9.71000e+02	2.47324e+00	3.68261e+02
972	3.71920e+02	9.72000e+02	2.45236e+00	3.69011e+02
973	3.72651e+02	9.73000e+02	2.43191e+00	3.69761e+02
974	3.73392e+02	9.74000e+02	2.41096e+00	3.70511e+02
975	3.74131e+02	9.75000e+02	2.38847e+00	3.71262e+02
976	3.74857e+02	9.76000e+02	2.36448e+00	3.72012e+02
977	3.75591e+02	9.77000e+02	2.34099e+00	3.72762e+02
978	3.76332e+02	9.78000e+02	2.31703e+00	3.73512e+02
979	3.77102e+02	9.79000e+02	2.29150e+00	3.74262e+02
980	3.77916e+02	9.80000e+02	2.26447e+00	3.75012e+02
981	3.78681e+02	9.81000e+02	2.23798e+00	3.75762e+02
982	3.79456e+02	9.82000e+02	2.21105e+00	3.76512e+02
983	3.80210e+02	9.83000e+02	2.18263e+00	3.77262e+02
984	3.80974e+02	9.84000e+02	2.15278e+00	3.78012e+02
985	3.81720e+02	9.85000e+02	2.12317e+00	3.78762e+02
986	3.82449e+02	9.86000e+02	2.09306e+00	3.79512e+02
987	3.83194e+02	9.87000e+02	2.06252e+00	3.80262e+02
988	3.83931e+02	9.88000e+02	2.02998e+00	3.81012e+02
989	3.84680e+02	9.89000e+02	1.99777e+00	3.81762e+02
990	3.85432e+02	9.90000e+02	1.96520e+00	3.82512e+02
991	3.86177e+02	9.91000e+02	1.93229e+00	3.83262e+02
992	3.86945e+02	9.92000e+02	1.89762e+00	3.84012e+02
993	3.87672e+02	9.93000e+02	1.86328e+00	3.84762e+02
994	3.88424e+02	9.94000e+02	1.82865e+00	3.85512e+02
995	3.89169e+02	9.95000e+02	1.79375e+00	3.86262e+02
996	3.89906e+02	9.96000e+02	1.75744e+00	3.87012e+02
997	3.90653e+02	9.97000e+02	1.72143e+00	3.87762e+02
998	3.91392e+02	9.98000e+02	1.68523e+00	3.88512e+02
999	3.92124e+02	9.99000e+02	1.64884e+00	3.89262e+02
1000	3.92842e+02	1.00000e+03	1.61147e+00	3.90012e+02
1001	3.93586e+02	1.00100e+03	1.57435e+00	3.90762e+02
1002	3.94330e+02	1.00200e+03	1.53713e+00	3.91512e+02
1003	3.95078e+02	1.00300e+03	1.49979e+00	3.92262e+02
1004	3.95949e+02	1.00400e+03	1.46187e+00	3.93012e+02
1005	3.96716e+02	1.00500e+03	1.42411e+00	3.93762e+02
1006	3.97440e+02	1.00600e+03	1.38632e+00	3.94512e+02
1007	3.98168e+02	1.00700e+03	1.34848e+00	3.95262e+02
1008	3.98901e+02	1.00800e+03	1.31037e+00	3.96013e+02
1009	3.99666e+02	1.00900e+03	1.27237e+00	3.96763e+02
1010	4.00423e+02	1.01000e+03	1.23437e+00	3.97513e+02
1011	4.01159e+02	1.01100e+03	1.19633e+00	3.98263e+02
1012	4.01926e+02	1.01200e+03	1.15811e+00	3.99013e+02
1013	4.02657e+02	1.01300e+03	1.11980e+00	3.99763e+02
1014	4.03402e+02	1.01400e+03	1.08129e+00	4.00513e+02
1015	4.04171e+02	1.01500e+03	1.04265e+00	4.01263e+02
1016	4.04930e+02	1.01600e+03	1.00329e+00	4.02013e+02
1017	4.05704e+02	1.01700e+03	9.63884e-01	4.02763e+02
1018	4.06473e+02	1.01800e+03	9.24266e-01	4.03513e+02
1019	4.07273e+02	1.01900e+03	8.84497e-01	4.04263e+02
1020	4.08043e+02	1.02000e+03	8.43937e-01	4.05013e+02
1021	4.08848e+02	1.02100e+03	8.03822e-01	4.05763e+02
1022	4.09620e+02	1.02200e+03	7.63949e-01	4.06513e+02
1023	4.10388e+02	1.02300e+03	7.24250e-01	4.07263e+02
1024	4.11167e+02	1.02400e+03	6.85316e-01	4.08013e+02
1025	4.11929e+02	1.02500e+03	6.46533e-01	4.08763e+02
1026	4.12683e+02	1.02600e+03	6.07952e-01	4.09513e+02
1027	4.13455e+02	1.02700e+03	5.70340e-01	4.10263e+02
1028	4.14210e+02	1.02800e+03	5.35399e-01	4.11013e+02
1029	4.15043e+02	1.02900e+03	5.00019e-01	4.11763e+02
1030	4.15858e+02	1.03000e+03	4.66887e-01	4.12513e+02
1031	4.16651e+02	1.03100e+03	4.35781e-01	4.13263e+02
1032	4.17452e+02	1.03200e+03	4.06445e-01	4.14013e+02
1033	4.18231e+02	1.03300e+03	3.76887e-01	4.14763e+02
1034	4.18980e+02	1.03400e+03	3.49673e-01	4.15513e+02
1035	4.19809e+02	1.03500e+03	3.24577e-01	4.16263e+02
1036	4.20632e+02	1.03600e+03	3.01233e-01	4.17013e+02
1037	4.21417e+02	1.03700e+03	2.77614e-01	4.17763e+02
1038	4.22183e+02	1.03800e+03	2.56116e-01	4.18513e+02
1039	4.22975e+02	1.03900e+03	2.36492e-01	4.19263e+02
1040	4.23753e+02	1.04000e+03	2.18739e-01	4.20014e+02
1041	4.24514e+02	1.04100e+03	2.01175e-01	4.20764e+02
1042	4.25255e+02	1.04200e+03	1.84525e-01	4.21514e+02
1043	4.26021e+02	1.04300e+03	1.68553e-01	4.22264e+02
1044	4.26789e+02	1.04400e+03	1.55356e-01	4.23014e+02
1045	4.27549e+02	1.04500e+03	1.42048e-01	4.23764e+02
1046	4.28320e+02	1.04600e+03	1.29814e-01	4.24514e+02
1047	4.29121e+02	1.04700e+03	1.18878e-01	4.25264e+02
1048	4.29896e+02	1.04800e+03	1.09218e-01	4.26014e+02
1049	4.30643e+02	1.04900e+03	9.91310e-02	4.26764e+02
1050	4.31394e+02	1.05000e+03	8.95102e-02	4.27514e+02
1051	4.32165e+02	1.05100e+03	8.13425e-02	4.28264e+02
1052	4.32950e+02	1.05200e+03	7.45429e-02	4.29014e+02
1053	4.33735e+02	1.05300e+03	6.74489e-02	4.29764e+02
1054	4.34523e+02	1.05400e+03	6.07616e-02	4.30514e+02
1055	4.35313e+02	1.05500e+03	5.44454e-02	4.31264e+02
1056	4.36089e+02	1.05600e+03	4.98349e-02	4.32014e+02
1057	4.36873e+02	1.05700e+03	4.48741e-02	4.32764e+02
1058	4.37626e+02	1.05800e+03	4.01659e-02	4.33514e+02
1059	4.38395e+02	1.05900e+03	3.57102e-02	4.34264e+02
1060	4.39153e+02	1.06000e+03	3.25533e-02	4.35014e+02
1061	4.39938e+02	1.06100e+03	2.91138e-02	4.35764e+02
1062	4.40727e+02	1.06200e+03	2.58412e-02	4.36514e+02
1063	4.41464e+02	1.06300e+03	2.27436e-02	4.37264e+02
1064	4.42229e+02	1.06400e+03	2.05519e-02	4.38014e+02
1065	4.43005e+02	1.06500e+03	1.81508e-02	4.38764e+02
1066	4.43754e+02	1.06600e+03	1.58586e-02	4.39514e+02
1067	4.44548e+02	1.06700e+03	1.36859e-02	4.40264e+02
1068	4.45399e+02	1.06800e+03	1.21276e-02	4.41014e+02
1069	4.46149e+02	1.06900e+03	1.04391e-02	4.41764e+02
1070	4.46895e+02	1.07000e+03	8.83256e-03	4.42514e+02
1071	4.47645e+02	1.07100e+03	7.31104e-03	4.43264e+02
1072	4.48373e+02	1.07200e+03	6.22554e-03	4.44014e+02
1073	4.49098e+02	1.07300e+03	5.03836e-03	4.44765e+02
1074	4.49827e+02	1.07400e+03	3.90107e-03	4.45515e+02
1075	4.50569e+02	1.07500e+03	2.81917e-03	4.46265e+02
1076	4.51312e+02	1.07600e+03	2.02603e-03	4.47015e+02
1077	4.52057e+02	1.07700e+03	1.16523e-03	4.47765e+02
1078	4.52842e+02	1.07800e+03	3.39504e-04	4.48515e+02
1079	4.53579e+02	1.07900e+03	-4.47671e-04	4.49265e+02
1080	4.54330e+02	1.08000e+03	-1.04432e-03	4.50015e+02
1081	4.55044e+02	1.08100e+03	-1.68432e-03	4.50765e+02
1082	4.55789e+02	1.08200e+03	-2.30137e-03	4.51515e+02
1083	4.56511e+02	1.08300e+03	-2.89295e-03	4.52265e+02
1084	4.57243e+02	1.08400e+03	-3.34808e-03	4.53015e+02
1085	4.57981e+02	1.08500e+03	-3.82771e-03	4.53765e+02
1086	4.58732e+02	1.08600e+03	-4.28286e-03	4.54515e+02
1087	4.59451e+02	1.08700e+03	-4.71333e-03	4.55265e+02
1088	4.60188e+02	1.08800e+03	-5.02065e-03	4.56015e+02
1089	4.60918e+02	1.08900e+03	-5.34223e-03	4.56765e+02
1090	4.61661e+02	1.09000e+03	-5.63931e-03	4.57515e+02
1091	4.62408e+02	1.09100e+03	-5.91429e-03	4.58265e+02
1092	4.63145e+02	1.09200e+03	-6.07395e-03	4.59015e+02
1093	4.63894e+02	1.09300e+03	-6.26521e-03	4.59765e+02
1094	4.64637e+02	1.09400e+03	-6.44951e-03	4.60515e+02
1095	4.65365e+02	1.09500e+03	-6.62361e-03	4.61265e+02
1096	4.66121e+02	1.09600e+03	-6.74072e-03	4.62015e+02
1097	4.66868e+02	1.09700e+03	-6.87808e-03	4.62765e+02
1098	4.67611e+02	1.09800e+03	-7.00975e-03	4.63515e+02
1099	4.68362e+02	1.09900e+03	-7.13281e-03	4.64265e+02
1100	4.69095e+02	1.10000e+03	-7.21980e-03	4.65015e+02
1101	4.69835e+02	1.10100e+03	-7.30393e-03	4.65765e+02
1102	4.70582e+02	1.10200e+03	-7.37746e-03	4.66515e+02
1103	4.71310e+02	1.10300e+03	-7.44313e-03	4.67265e+02
1104	4.72070e+02	1.10400e+03	-7.46637e-03	4.68015e+02
1105	4.72819e+02	1.10500e+03	-7.50892e-03	4.68766e+02
1106	4.73581e+02	1.10600e+03	-7.55382e-03	4.69516e+02
1107	4.74311e+02	1.10700e+03	-7.59812e-03	4.70266e+02
1108	4.75081e+02	1.10800e+03	-7.64055e-03	4.71016e+02
1109	4.75859e+02	1.10900e+03	-7.68899e-03	4.71766e+02
1110	4.76625e+02	1.11000e+03	-7.74167e-03	4.72516e+02
1111	4.77376e+02	1.11100e+03	-7.79651e-03	4.73266e+02
1112	4.78122e+02	1.11200e+03	-7.86173e-03	4.74016e+02
1113	4.78870e+02	1.11300e+03	-7.92225e-03	4.74766e+02
1114	4.79596e+02	1.11400e+03	-7.97994e-03	4.75516e+02
1115	4.80313e+02	1.11500e+03	-8.03556e-03	4.76266e+02
1116	4.81033e+02	1.11600e+03	-8.08746e-03	4.77016e+02
1117	4.81762e+02	1.11700e+03	-8.13414e-03	4.77766e+02
1118	4.82482e+02	1.11800e+03	-8.17409e-03	4.78516e+02
1119	4.83229e+02	1.11900e+03	-8.20933e-03	4.79266e+02
1120	4.83938e+02	1.12000e+03	-8.22497e-03	4.80016e+02
1121	4.84631e+02	1.12100e+03	-8.24607e-03	4.80766e+02
1122	4.85325e+02	1.12200e+03	-8.26874e-03	4.81516e+02
1123	4.86027e+02	1.12300e+03	-8.29292e-03	4.82266e+02
1124	4.86756e+02	1.12400e+03	-8.31340e-03	4.83016e+02
1125	4.87480e+02	1.12500e+03	-8.33887e-03	4.83766e+02
1126	4.88216e+02	1.12600e+03	-8.36265e-03	4.84516e+02
1127	4.88946e+02	1.12700e+03	-8.38337e-03	4.85266e+02
1128	4.89666e+02	1.12800e+03	-8.39857e-03	4.86016e+02
1129	4.90386e+02	1.12900e+03	-8.40184e-03	4.86766e+02
1130	4.91108e+02	1.13000e+03	-8.39821e-03	4.87516e+02
1131	4.91830e+02	1.13100e+03	-8.39229e-03	4.88266e+02
1132	4.92540e+02	1.13200e+03	-8.36929e-03	4.89016e+02
1133	4.93267e+02	1.13300e+03	-8.36747e-03	4.89766e+02
1134	4.93975e+02	1.13400e+03	-8.37717e-03	4.90516e+02
1135	4.94668e+02	1.13500e+03	-8.39332e-03	4.91266e+02
1136	4.95388e+02	1.13600e+03	-8.43965e-03	4.92016e+02
1137	4.96113e+02	1.13700e+03	-8.47841e-03	4.92766e+02
1138	4.96834e+02	1.13800e+03	-8.51715e-03	4.93517e+02
1139	4.97546e+02	1.13900e+03	-8.55647e-03	4.94267e+02
1140	4.98274e+02	1.14000e+03	-8.60726e-03	4.95017e+02
1141	4.98996e+02	1.14100e+03	-8.64328e-03	4.95767e+02
1142	4.99701e+02	1.14200e+03	-8.67026e-03	4.96517e+02
1143	5.00427e+02	1.14300e+03	-8.69221e-03	4.97267e+02
1144	5.01166e+02	1.14400e+03	-8.68788e-03	4.98017e+02
1145	5.01906e+02	1.14500e+03	-8.68604e-03	4.98767e+02
1146	5.02646e+02	1.14600e+03	-8.68059e-03	4.99517e+02
1147	5.03374e+02	1.14700e+03	-8.67292e-03	5.00267e+02
1148	5.04103e+02	1.14800e+03	-8.64961e-03	5.01017e+02
1149	5.04837e+02	1.14900e+03	-8.64085e-03	5.01767e+02
1150	5.05585e+02	1.15000e+03	-8.64101e-03	5.02517e+02
1151	5.06322e+02	1.15100e+03	-8.64704e-03	5.03267e+02
1152	5.07051e+02	1.15200e+03	-8.67807e-03	5.04017e+02
1153	5.07790e+02	1.15300e+03	-8.71062e-03	5.04767e+02
1154	5.08511e+02	1.15400e+03	-8.74961e-03	5.05517e+02
1155	5.09250e+02	1.15500e+03	-8.79288e-03	5.06267e+02
1156	5.09980e+02	1.15600e+03	-8.86199e-03	5.07017e+02
1157	5.10722e+02	1.15700e+03	-8.91322e-03	5.07767e+02
1158	5.11449e+02	1.15800e+03	-8.95585e-03	5.08517e+02
1159	5.12179e+02	1.15900e+03	-8.99400e-03	5.09267e+02
1160	5.12916e+02	1.16000e+03	-9.01895e-03	5.10017e+02
1161	5.13640e+02	1.16100e+03	-9.04608e-03	5.10767e+02
1162	5.14380e+02	1.16200e+03	-9.07528e-03	5.11517e+02
1163	5.15114e+02	1.16300e+03	-9.10694e-03	5.12267e+02
1164	5.15847e+02	1.16400e+03	-9.13813e-03	5.13017e+02
1165	5.16579e+02	1.16500e+03	-9.18085e-03	5.13767e+02
1166	5.17311e+02	1.16600e+03	-9.23003e-03	5.14517e+02
1167	5.18060e+02	1.16700e+03	-9.28219e-03	5.15267e+02
1168	5.18781e+02	1.16800e+03	-9.35199e-03	5.16017e+02
1169	5.19514e+02	1.16900e+03	-9.40589e-03	5.16767e+02
1170	5.20242e+02	1.17000e+03	-9.45270e-03	5.17518e+02
1171	5.20975e+02	1.17100e+03	-9.49578e-03	5.18268e+02
1172	5.21709e+02	1.17200e+03	-9.52080e-03	5.19018e+02
1173	5.22439e+02	1.17300e+03	-9.54835e-03	5.19768e+02
1174	5.23175e+02	1.17400e+03	-9.57439e-03	5.20518e+02
1175	5.23903e+02	1.17500e+03	-9.59955e-03	5.21268e+02
1176	5.24623e+02	1.17600e+03	-9.61525e-03	5.22018e+02
1177	5.25351e+02	1.17700e+03	-9.64080e-03	5.22768e+02
1178	5.26076e+02	1.17800e+03	-9.67018e-03	5.23518e+02
1179	5.26791e+02	1.17900e+03	-9.70064e-03	5.24268e+02
1180	5.27521e+02	1.18000e+03	-9.73864e-03	5.25018e+02
1181	5.28251e+02	1.18100e+03	-9.76929e-03	5.25768e+02
1182	5.28967e+02	1.18200e+03	-9.79526e-03	5.26518e+02
1183	5.29686e+02	1.18300e+03	-9.81871e-03	5.27268e+02
1184	5.30429e+02	1.18400e+03	-9.83178e-03	5.28018e+02
1185	5.31154e+02	1.18500e+03	-9.84579e-03	5.28768e+02
1186	5.31889e+02	1.18600e+03	-9.86016e-03	5.29518e+02
1187	5.32619e+02	1.18700e+03	-9.87497e-03	5.30268e+02
1188	5.33337e+02	1.18800e+03	-9.88572e-03	5.31018e+02
1189	5.34072e+02	1.18900e+03	-9.90418e-03	5.31768e+02
1190	5.34802e+02	1.19000e+03	-9.92534e-03	5.32518e+02
1191	5.35524e+02	1.19100e+03	-9.94658e-03	5.33268e+02
1192	5.36247e+02	1.19200e+03	-9.97273e-03	5.34018e+02
1193	5.36982e+02	1.19300e+03	-9.99140e-03	5.34768e+02
1194	5.37716e+02	1.19400e+03	-1.00082e-02	5.35518e+02
1195	5.38449e+02	1.19500e+03	-1.00255e-02	5.36268e+02
1196	5.39177e+02	1.19600e+03	-1.00414e-02	5.37018e+02
1197	5.39920e+02	1.19700e+03	-1.00661e-02	5.37768e+02
1198	5.40654e+02	1.19800e+03	-1.00961e-02	5.38518e+02
1199	5.41378e+02	1.19900e+03	-1.01294e-02	5.39268e+02
1200	5.42095e+02	1.20000e+03	-1.01814e-02	5.40018e+02
1201	5.42830e+02	1.20100e+03	-1.02273e-02	5.40768e+02
1202	5.43561e+02	1.20200e+03	-1.02722e-02	5.41518e+02
1203	5.44293e+02	1.20300e+03	-1.03163e-02	5.42268e+02
1204	5.45016e+02	1.20400e+03	-1.03604e-02	5.43019e+02
1205	5.45745e+02	1.20500e+03	-1.03965e-02	5.43769e+02
1206	5.46477e+02	1.20600e+03	-1.04275e-02	5.44519e+02
1207	5.47205e+02	1.20700e+03	-1.04562e-02	5.45269e+02
1208	5.47959e+02	1.20800e+03	-1.04696e-02	5.46019e+02
1209	5.48704e+02	1.20900e+03	-1.04895e-02	5.46769e+02
1210	5.49448e+02	1.21000e+03	-1.05103e-02	5.47519e+02
1211	5.50177e+02	1.21100e+03	-1.05309e-02	5.48269e+02
1212	5.50917e+02	1.21200e+03	-1.05493e-02	5.49019e+02
1213	5.51644e+02	1.21300e+03	-1.05684e-02	5.49769e+02
1214	5.52364e+02	1.21400e+03	-1.05882e-02	5.50519e+02
1215	5.53092e+02	1.21500e+03	-1.06085e-02	5.51269e+02
1216	5.53823e+02	1.21600e+03	-1.06268e-02	5.52019e+02
1217	5.54524e+02	1.21700e+03	-1.06433e-02	5.52769e+02
1218	5.55236e+02	1.21800e+03	-1.06585e-02	5.53519e+02
1219	5.55953e+02	1.21900e+03	-1.06732e-02	5.54269e+02
1220	5.56677e+02	1.22000e+03	-1.06870e-02	5.55019e+02
1221	5.57403e+02	1.22100e+03	-1.07065e-02	5.55769e+02
1222	5.58115e+02	1.22200e+03	-1.07322e-02	5.56519e+02
1223	5.58843e+02	1.22300e+03	-1.07623e-02	5.57269e+02
1224	5.59576e+02	1.22400e+03	-1.08075e-02	5.58019e+02
1225	5.60304e+02	1.22500e+03	-1.08502e-02	5.58769e+02
1226	5.61038e+02	1.22600e+03	-1.08923e-02	5.59519e+02
1227	5.61768e+02	1.22700e+03	-1.09334e-02	5.60269e+02
1228	5.62496e+02	1.22800e+03	-1.09774e-02	5.61019e+02
1229	5.63235e+02	1.22900e+03	-1.10088e-02	5.61769e+02
1230	5.63981e+02	1.23000e+03	-1.10320e-02	5.62519e+02
1231	5.64723e+02	1.23100e+03	-1.10507e-02	5.63269e+02
1232	5.65467e+02	1.23200e+03	-1.10428e-02	5.64019e+02
1233	5.66218e+02	1.23300e+03	-1.10435e-02	5.64769e+02
1234	5.66966e+02	1.23400e+03	-1.10449e-02	5.65519e+02
1235	5.67711e+02	1.23500e+03	-1.10459e-02	5.66269e+02
1236	5.68461e+02	1.23600e+03	-1.10423e-02	5.67020e+02
1237	5.69206e+02	1.23700e+03	-1.10477e-02	5.67770e+02
1238	5.69944e+02	1.23800e+03	-1.10581e-02	5.68520e+02
1239	5.70700e+02	1.23900e+03	-1.10711e-02	5.69270e+02
1240	5.71438e+02	1.24000e+03	-1.10987e-02	5.70020e+02
1241	5.72195e+02	1.24100e+03	-1.11208e-02	5.70770e+02
1242	5.72946e+02	1.24200e+03	-1.11420e-02	5.71520e+02
1243	5.73715e+02	1.24300e+03	-1.11631e-02	5.72270e+02
1244	5.74452e+02	1.24400e+03	-1.11858e-02	5.73020e+02
1245	5.75183e+02	1.24500e+03	-1.12052e-02	5.73770e+02
1246	5.75924e+02	1.24600e+03	-1.12239e-02	5.74520e+02
1247	5.76656e+02	1.24700e+03	-1.12429e-02	5.75270e+02
1248	5.77397e+02	1.24800e+03	-1.12598e-02	5.76020e+02
1249	5.78123e+02	1.24900e+03	-1.12814e-02	5.76770e+02
1250	5.78872e+02	1.25000e+03	-1.13063e-02	5.77520e+02
1251	5.79652e+02	1.25100e+03	-1.13326e-02	5.78270e+02
1252	5.80394e+02	1.25200e+03	-1.13657e-02	5.79020e+02
1253	5.81141e+02	1.25300e+03	-1.13954e-02	5.79770e+02
1254	5.81879e+02	1.25400e+03	-1.14239e-02	5.80520e+02
1255	5.82676e+02	1.25500e+03	-1.14518e-02	5.81270e+02
1256	5.83479e+02	1.25600e+03	-1.14793e-02	5.82020e+02
1257	5.84783e+02	1.25700e+03	-1.15058e-02	5.82770e+02
1258	5.85401e+02	1.25800e+03	-1.15316e-02	5.83520e+02
1259	5.86072e+02	1.25900e+03	-1.15568e-02	5.84270e+02
1260	5.86786e+02	1.26000e+03	-1.15787e-02	5.85020e+02
1261	5.87492e+02	1.26100e+03	-1.16003e-02	5.85770e+02
1262	5.88196e+02	1.26200e+03	-1.16191e-02	5.86520e+02
1263	5.88938e+02	1.26300e+03	-1.16353e-02	5.87270e+02
1264	5.89661e+02	1.26400e+03	-1.16393e-02	5.88020e+02
1265	5.90386e+02	1.26500e+03	-1.16408e-02	5.88770e+02
1266	5.91134e+02	1.26600e+03	-1.16384e-02	5.89520e+02
1267	5.91877e+02	1.26700e+03	-1.16336e-02	5.90270e+02
1268	5.92611e+02	1.26800e+03	-1.16143e-02	5.91021e+02
1269	5.93317e+02	1.26900e+03	-1.16079e-02	5.91771e+02
1270	5.94059e+02	1.27000e+03	-1.16098e-02	5.92521e+02
1271	5.94804e+02	1.27100e+03	-1.16170e-02	5.93271e+02
1272	5.95528e+02	1.27200e+03	-1.16505e-02	5.94021e+02
1273	5.96265e+02	1.27300e+03	-1.16879e-02	5.94771e+02
1274	5.96992e+02	1.27400e+03	-1.17289e-02	5.95521e+02
1275	5.97730e+02	1.27500e+03	-1.17711e-02	5.96271e+02
1276	5.98469e+02	1.27600e+03	-1.18355e-02	5.97021e+02
1277	5.99216e+02	1.27700e+03	-1.18756e-02	5.97771e+02
1278	5.99962e+02	1.27800e+03	-1.19010e-02	5.98521e+02
1279	6.00687e+02	1.27900e+03	-1.19171e-02	5.99271e+02
1280	6.01436e+02	1.28000e+03	-1.18905e-02	6.00021e+02
1281	6.02211e+02	1.28100e+03	-1.18677e-02	6.00771e+02
1282	6.02974e+02	1.28200e+03	-1.18393e-02	6.01521e+02
1283	6.03772e+02	1.28300e+03	-1.18074e-02	6.02271e+02
1284	6.04534e+02	1.28400e+03	-1.17475e-02	6.03021e+02
1285	6.05332e+02	1.28500e+03	-1.17117e-02	6.03771e+02
1286	6.06168e+02	1.28600e+03	-1.16871e-02	6.04521e+02
1287	6.07029e+02	1.28700e+03	-1.16686e-02	6.05271e+02
1288	6.07804e+02	1.28800e+03	-1.16781e-02	6.06021e+02
1289	6.08541e+02	1.28900e+03	-1.16831e-02	6.06771e+02
1290	6.09371e+02	1.29000e+03	-1.16908e-02	6.07521e+02
1291	6.10378e+02	1.29100e+03	-1.17015e-02	6.08271e+02
1292	6.11182e+02	1.29200e+03	-1.17348e-02	6.09021e+02
1293	6.11241e+02	1.29300e+03	-1.17567e-02	6.09771e+02
1294	6.11681e+02	1.29400e+03	-1.17752e-02	6.10521e+02
1295	6.12258e+02	1.29500e+03	-1.17926e-02	6.11271e+02
1296	6.12964e+02	1.29600e+03	-1.18089e-02	6.12021e+02
1297	6.13634e+02	1.29700e+03	-1.18263e-02	6.12771e+02
1298	6.14367e+02	1.29800e+03	-1.18455e-02	6.13521e+02
1299	6.15125e+02	1.29900e+03	-1.18665e-02	6.14271e+02
1300	6.15784e+02	1.30000e+03	-1.18926e-02	6.15021e+02
1301	6.16493e+02	1.30100e+03	-1.19229e-02	6.15772e+02
1302	6.17228e+02	1.30200e+03	-1.19563e-02	6.16522e+02
1303	6.18012e+02	1.30300e+03	-1.19912e-02	6.17272e+02
1304	6.18784e+02	1.30400e+03	-1.20349e-02	6.18022e+02
1305	6.19521e+02	1.30500e+03	-1.20699e-02	6.18772e+02
1306	6.20235e+02	1.30600e+03	-1.21011e-02	6.19522e+02
1307	6.20943e+02	1.30700e+03	-1.21301e-02	6.20272e+02
1308	6.22413e+02	1.30800e+03	-1.21430e-02	6.21022e+02
1309	6.24259e+02	1.30900e+03	-1.21533e-02	6.21772e+02
1310	6.24911e+02	1.31000e+03	-1.21576e-02	6.22522e+02
1311	6.25600e+02	1.31100e+03	-1.21577e-02	6.23272e+02
1312	6.26268e+02	1.31200e+03	-1.21375e-02	6.24022e+02
1313	6.26931e+02	1.31300e+03	-1.21264e-02	6.24772e+02
1314	6.27602e+02	1.31400e+03	-1.21169e-02	6.25522e+02
1315	6.28302e+02	1.31500e+03	-1.21072e-02	6.26272e+02
1316	6.29009e+02	1.31600e+03	-1.20945e-02	6.27022e+02
1317	6.29725e+02	1.31700e+03	-1.20848e-02	6.27772e+02
1318	6.30450e+02	1.31800e+03	-1.20764e-02	6.28522e+02
1319	6.31172e+02	1.31900e+03	-1.20683e-02	6.29272e+02
1320	6.31905e+02	1.32000e+03	-1.20635e-02	6.30022e+02
1321	6.32620e+02	1.32100e+03	-1.20584e-02	6.30772e+02
1322	6.33344e+02	1.32200e+03	-1.20563e-02	6.31522e+02
1323	6.34069e+02	1.32300e+03	-1.20564e-02	6.32272e+02
1324	6.34788e+02	1.32400e+03	-1.20640e-02	6.33022e+02
1325	6.35495e+02	1.32500e+03	-1.20742e-02	6.33772e+02
1326	6.36220e+02	1.32600e+03	-1.20888e-02	6.34522e+02
1327	6.36953e+02	1.32700e+03	-1.21067e-02	6.35272e+02
1328	6.37680e+02	1.32800e+03	-1.21434e-02	6.36022e+02
1329	6.38406e+02	1.32900e+03	-1.21780e-02	6.36772e+02
1330	6.39130e+02	1.33000e+03	-1.22161e-02	6.37522e+02
1331	6.39846e+02	1.33100e+03	-1.22566e-02	6.38272e+02
1332	6.40552e+02	1.33200e+03	-1.23083e-02	6.39022e+02
1333	6.41272e+02	1.33300e+03	-1.23514e-02	6.39773e+02
1334	6.41986e+02	1.33400e+03	-1.23896e-02	6.40523e+02
1335	6.42711e+02	1.33500e+03	-1.24248e-02	6.41273e+02
1336	6.43437e+02	1.33600e+03	-1.24483e-02	6.42023e+02
1337	6.44168e+02	1.33700e+03	-1.24697e-02	6.42773e+02
1338	6.44897e+02	1.33800e+03	-1.24871e-02	6.43523e+02
1339	6.45624e+02	1.33900e+03	-1.25016e-02	6.44273e+02
1340	6.46341e+02	1.34000e+03	-1.24987e-02	6.45023e+02
1341	6.47060e+02	1.34100e+03	-1.25033e-02	6.45773e+02
1342	6.47802e+02	1.34200e+03	-1.25076e-02	6.46523e+02
1343	6.48535e+02	1.34300e+03	-1.25102e-02	6.47273e+02
1344	6.49280e+02	1.34400e+03	-1.25061e-02	6.48023e+02
1345	6.50029e+02	1.34500e+03	-1.25007e-02	6.48773e+02
1346	6.50790e+02	1.34600e+03	-1.24919e-02	6.49523e+02
1347	6.51559e+02	1.34700e+03	-1.24806e-02	6.50273e+02
1348	6.52337e+02	1.34800e+03	-1.24610e-02	6.51023e+02
1349	6.53122e+02	1.34900e+03	-1.24456e-02	6.51773e+02
1350	6.53924e+02	1.35000e+03	-1.24325e-02	6.52523e+02
1351	6.54808e+02	1.35100e+03	-1.24214e-02	6.53273e+02
1352	6.55846e+02	1.35200e+03	-1.24151e-02	6.54023e+02
1353	6.56521e+02	1.35300e+03	-1.24120e-02	6.54773e+02
1354	6.57183e+02	1.35400e+03	-1.24107e-02	6.55523e+02
1355	6.57820e+02	1.35500e+03	-1.24101e-02	6.56273e+02
1356	6.58468e+02	1.35600e+03	-1.24193e-02	6.57023e+02
1357	6.59172e+02	1.35700e+03	-1.24211e-02	6.57773e+02
1358	6.59908e+02	1.35800e+03	-1.24196e-02	6.58523e+02
1359	6.60696e+02	1.35900e+03	-1.24166e-02	6.59273e+02
1360	6.61406e+02	1.36000e+03	-1.24068e-02	6.60023e+02
1361	6.62141e+02	1.36100e+03	-1.23991e-02	6.60773e+02
1362	6.62894e+02	1.36200e+03	-1.23934e-02	6.61523e+02
1363	6.63668e+02	1.36300e+03	-1.23897e-02	6.62273e+02
1364	6.64311e+02	1.36400e+03	-1.23903e-02	6.63023e+02
1365	6.65001e+02	1.36500e+03	-1.23968e-02	6.63773e+02
1366	6.65695e+02	1.36600e+03	-1.24088e-02	6.64523e+02
1367	6.66428e+02	1.36700e+03	-1.24246e-02	6.65274e+02
1368	6.67166e+02	1.36800e+03	-1.24612e-02	6.66024e+02
1369	6.67911e+02	1.36900e+03	-1.24913e-02	6.66774e+02
1370	6.68661e+02	1.37000e+03	-1.25199e-02	6.67524e+02
1371	6.69385e+02	1.37100e+03	-1.25475e-02	6.68274e+02
1372	6.70121e+02	1.37200e+03	-1.25759e-02	6.69024e+02
1373	6.70859e+02	1.37300e+03	-1.25976e-02	6.69774e+02
1374	6.71587e+02	1.37400e+03	-1.26177e-02	6.70524e+02
1375	6.72325e+02	1.37500e+03	-1.26385e-02	6.71274e+02
1376	6.73061e+02	1.37600e+03	-1.26587e-02	6.72024e+02
1377	6.73802e+02	1.37700e+03	-1.26949e-02	6.72774e+02
1378	6.74532e+02	1.37800e+03	-1.27416e-02	6.73524e+02
1379	6.75277e+02	1.37900e+03	-1.27934e-02	6.74274e+02
1380	6.76026e+02	1.38000e+03	-1.28683e-02	6.75024e+02
1381	6.76772e+02	1.38100e+03	-1.29254e-02	6.75774e+02
1382	6.77506e+02	1.38200e+03	-1.29731e-02	6.76524e+02
1383	6.78252e+02	1.38300e+03	-1.30154e-02	6.77274e+02
1384	6.78997e+02	1.38400e+03	-1.30355e-02	6.78024e+02
1385	6.79722e+02	1.38500e+03	-1.30485e-02	6.78774e+02
1386	6.80453e+02	1.38600e+03	-1.30492e-02	6.79524e+02
1387	6.81242e+02	1.38700e+03	-1.30405e-02	6.80274e+02
1388	6.81729e+02	1.38800e+03	-1.29803e-02	6.81024e+02
1389	6.81958e+02	1.38900e+03	-1.29297e-02	6.81774e+02
1390	6.82361e+02	1.39000e+03	-1.28745e-02	6.82524e+02
1391	6.82874e+02	1.39100e+03	-1.28153e-02	6.83274e+02
1392	6.83409e+02	1.39200e+03	-1.27281e-02	6.84024e+02
1393	6.83934e+02	1.39300e+03	-1.26633e-02	6.84774e+02
1394	6.84455e+02	1.39400e+03	-1.26124e-02	6.85524e+02
1395	6.84958e+02	1.39500e+03	-1.25710e-02	6.86274e+02
1396	6.85436e+02	1.39600e+03	-1.25514e-02	6.87024e+02
1397	6.85904e+02	1.39700e+03	-1.25329e-02	6.87774e+02
1398	6.86377e+02	1.39800e+03	-1.25220e-02	6.88524e+02
1399	6.86805e+02	1.39900e+03	-1.25165e-02	6.89275e+02
1400	6.87240e+02	1.40000e+03	-1.25375e-02	6.90025e+02
1401	6.87674e+02	1.40100e+03	-1.25436e-02	6.90775e+02
1402	6.88097e+02	1.40200e+03	-1.25435e-02	6.91525e+02
1403	6.88521e+02	1.40300e+03	-1.25395e-02	6.92275e+02
1404	6.88951e+02	1.40400e+03	-1.25221e-02	6.93025e+02
1405	6.89394e+02	1.40500e+03	-1.24989e-02	6.93775e+02
1406	6.89810e+02	1.40600e+03	-1.24698e-02	6.94525e+02
1407	6.90938e+02	1.40700e+03	-1.24377e-02	6.95275e+02
1408	6.91139e+02	1.40800e+03	-1.23900e-02	6.96025e+02
1409	6.91229e+02	1.40900e+03	-1.23616e-02	6.96775e+02
1410	6.91393e+02	1.41000e+03	-1.23392e-02	6.97525e+02
1411	6.91593e+02	1.41100e+03	-1.23204e-02	6.98275e+02
1412	6.91813e+02	1.41200e+03	-1.23260e-02	6.99025e+02
1413	6.92030e+02	1.41300e+03	-1.23269e-02	6.99775e+02
1414	6.92256e+02	1.41400e+03	-1.23285e-02	7.00000e+02