File: Experiments/TUBS/tga_nonisotherm/tga_dynamic_n2_dyn30_piece_6mg_r3.txt
index	ts	t	weight	tr
[#]	[°C]	[s]	[mg]	[°C]
683	1.31021e+02	6.83000e+02	6.00445e+00	1.31500e+02
685	1.32025e+02	6.85000e+02	6.00435e+00	1.32500e+02
687	1.33021e+02	6.87000e+02	6.00426e+00	1.33500e+02
689	1.34031e+02	6.89000e+02	6.00415e+00	1.34500e+02
691	1.35023e+02	6.91000e+02	6.00403e+00	1.35500e+02
693	1.36027e+02	6.93000e+02	6.00393e+00	1.36500e+02
695	1.37031e+02	6.95000e+02	6.00384e+00	1.37500e+02
697	1.38031e+02	6.97000e+02	6.00376e+00	1.38500e+02
699	1.39040e+02	6.99000e+02	6.00364e+00	1.39500e+02
701	1.40050e+02	7.01000e+02	6.00350e+00	1.40500e+02
703	1.41067e+02	7.03000e+02	6.00337e+00	1.41500e+02
705	1.42065e+02	7.05000e+02	6.00322e+00	1.42500e+02
707	1.43064e+02	7.07000e+02	6.00307e+00	1.43500e+02
709	1.44074e+02	7.09000e+02	6.00291e+00	1.44500e+02
711	1.45081e+02	7.11000e+02	6.00275e+00	1.45500e+02
713	1.46069e+02	7.13000e+02	6.00257e+00	1.46500e+02
715	1.47088e+02	7.15000e+02	6.00239e+00	1.47500e+02
717	1.48096e+02	7.17000e+02	6.00220e+00	1.48500e+02
719	1.49095e+02	7.19000e+02	6.00205e+00	1.49500e+02
721	1.50116e+02	7.21000e+02	6.00194e+00	1.50500e+02
723	1.51141e+02	7.23000e+02	6.00182e+00	1.51500e+02
725	1.52136e+02	7.25000e+02	6.00169e+00	1.52500e+02
727	1.53143e+02	7.27000e+02	6.00155e+00	1.53500e+02
729	1.54154e+02	7.29000e+02	6.00139e+00	1.54500e+02
731	1.55166e+02	7.31000e+02	6.00122e+00	1.55500e+02
733	1.56179e+02	7.33000e+02	6.00103e+00	1.56500e+02
735	1.57182e+02	7.35000e+02	6.00085e+00	1.57500e+02
737	1.58181e+02	7.37000e+02	6.00067e+00	1.58500e+02
739	1.59195e+02	7.39000e+02	6.00049e+00	1.59500e+02
741	1.60202e+02	7.41000e+02	6.00031e+00	1.60500e+02
743	1.61207e+02	7.43000e+02	6.00014e+00	1.61500e+02
745	1.62231e+02	7.45000e+02	5.99997e+00	1.62500e+02
747	1.63229e+02	7.47000e+02	5.99979e+00	1.63500e+02
749	1.64237e+02	7.49000e+02	5.99962e+00	1.64500e+02
751	1.65245e+02	7.51000e+02	5.99945e+00	1.65500e+02
753	1.66249e+02	7.53000e+02	5.99930e+00	1.66500e+02
755	1.67247e+02	7.55000e+02	5.99913e+00	1.67500e+02
757	1.68263e+02	7.57000e+02	5.99895e+00	1.68500e+02
759	1.69264e+02	7.59000e+02	5.99874e+00	1.69500e+02
761	1.70279e+02	7.61000e+02	5.99846e+00	1.70500e+02
763	1.71280e+02	7.63000e+02	5.99817e+00	1.71500e+02
765	1.72277e+02	7.65000e+02	5.99783e+00	1.72500e+02
767	1.73295e+02	7.67000e+02	5.99750e+00	1.73500e+02
769	1.74305e+02	7.69000e+02	5.99718e+00	1.74500e+02
771	1.75312e+02	7.71000e+02	5.99689e+00	1.75500e+02
773	1.76304e+02	7.73000e+02	5.99663e+00	1.76500e+02
775	1.77321e+02	7.75000e+02	5.99635e+00	1.77500e+02
777	1.78320e+02	7.77000e+02	5.99607e+00	1.78500e+02
779	1.79343e+02	7.79000e+02	5.99579e+00	1.79500e+02
781	1.80338e+02	7.81000e+02	5.99549e+00	1.80500e+02
783	1.81350e+02	7.83000e+02	5.99517e+00	1.81500e+02
785	1.82355e+02	7.85000e+02	5.99483e+00	1.82500e+02
787	1.83363e+02	7.87000e+02	5.99452e+00	1.83500e+02
789	1.84381e+02	7.89000e+02	5.99420e+00	1.84500e+02
791	1.85371e+02	7.91000e+02	5.99380e+00	1.85500e+02
793	1.86384e+02	7.93000e+02	5.99329e+00	1.86500e+02
795	1.87394e+02	7.95000e+02	5.99277e+00	1.87500e+02
797	1.88405e+02	7.97000e+02	5.99215e+00	1.88500e+02
799	1.89405e+02	7.99000e+02	5.99154e+00	1.89500e+02
801	1.90410e+02	8.01000e+02	5.99090e+00	1.90500e+02
803	1.91434e+02	8.03000e+02	5.99026e+00	1.91500e+02
805	1.92428e+02	8.05000e+02	5.98959e+00	1.92500e+02
807	1.93442e+02	8.07000e+02	5.98889e+00	1.93500e+02
809	1.94460e+02	8.09000e+02	5.98812e+00	1.94500e+02
811	1.95477e+02	8.11000e+02	5.98733e+00	1.95500e+02
813	1.96483e+02	8.13000e+02	5.98645e+00	1.96500e+02
815	1.97493e+02	8.15000e+02	5.98554e+00	1.97500e+02
817	1.98506e+02	8.17000e+02	5.98455e+00	1.98500e+02
819	1.99512e+02	8.19000e+02	5.98355e+00	1.99500e+02
821	2.00531e+02	8.21000e+02	5.98250e+00	2.00500e+02
823	2.01548e+02	8.23000e+02	5.98144e+00	2.01500e+02
825	2.02568e+02	8.25000e+02	5.98032e+00	2.02500e+02
827	2.03587e+02	8.27000e+02	5.97918e+00	2.03500e+02
829	2.04578e+02	8.29000e+02	5.97797e+00	2.04500e+02
831	2.05605e+02	8.31000e+02	5.97674e+00	2.05500e+02
833	2.06623e+02	8.33000e+02	5.97543e+00	2.06500e+02
835	2.07640e+02	8.35000e+02	5.97412e+00	2.07500e+02
837	2.08659e+02	8.37000e+02	5.97274e+00	2.08500e+02
839	2.09671e+02	8.39000e+02	5.97136e+00	2.09500e+02
841	2.10702e+02	8.41000e+02	5.96992e+00	2.10500e+02
843	2.11712e+02	8.43000e+02	5.96847e+00	2.11500e+02
845	2.12724e+02	8.45000e+02	5.96700e+00	2.12500e+02
847	2.13736e+02	8.47000e+02	5.96557e+00	2.13500e+02
849	2.14747e+02	8.49000e+02	5.96419e+00	2.14500e+02
851	2.15761e+02	8.51000e+02	5.96280e+00	2.15500e+02
853	2.16778e+02	8.53000e+02	5.96144e+00	2.16500e+02
855	2.17800e+02	8.55000e+02	5.96007e+00	2.17500e+02
857	2.18817e+02	8.57000e+02	5.95868e+00	2.18500e+02
859	2.19834e+02	8.59000e+02	5.95729e+00	2.19500e+02
861	2.20851e+02	8.61000e+02	5.95592e+00	2.20500e+02
863	2.21857e+02	8.63000e+02	5.95457e+00	2.21500e+02
865	2.22889e+02	8.65000e+02	5.95324e+00	2.22500e+02
867	2.23901e+02	8.67000e+02	5.95185e+00	2.23500e+02
869	2.24917e+02	8.69000e+02	5.95039e+00	2.24500e+02
871	2.25948e+02	8.71000e+02	5.94891e+00	2.25500e+02
873	2.26976e+02	8.73000e+02	5.94736e+00	2.26500e+02
875	2.27993e+02	8.75000e+02	5.94583e+00	2.27500e+02
877	2.28998e+02	8.77000e+02	5.94429e+00	2.28500e+02
879	2.30029e+02	8.79000e+02	5.94278e+00	2.29500e+02
881	2.31038e+02	8.81000e+02	5.94129e+00	2.30500e+02
883	2.32056e+02	8.83000e+02	5.93977e+00	2.31500e+02
885	2.33082e+02	8.85000e+02	5.93824e+00	2.32500e+02
887	2.34083e+02	8.87000e+02	5.93672e+00	2.33500e+02
889	2.35110e+02	8.89000e+02	5.93520e+00	2.34500e+02
891	2.36139e+02	8.91000e+02	5.93368e+00	2.35500e+02
893	2.37154e+02	8.93000e+02	5.93217e+00	2.36500e+02
895	2.38167e+02	8.95000e+02	5.93063e+00	2.37500e+02
897	2.39194e+02	8.97000e+02	5.92906e+00	2.38500e+02
899	2.40202e+02	8.99000e+02	5.92747e+00	2.39500e+02
901	2.41219e+02	9.01000e+02	5.92585e+00	2.40500e+02
903	2.42236e+02	9.03000e+02	5.92424e+00	2.41500e+02
905	2.43249e+02	9.05000e+02	5.92263e+00	2.42500e+02
907	2.44257e+02	9.07000e+02	5.92102e+00	2.43500e+02
909	2.45259e+02	9.09000e+02	5.91941e+00	2.44500e+02
911	2.46278e+02	9.11000e+02	5.91781e+00	2.45500e+02
913	2.47287e+02	9.13000e+02	5.91620e+00	2.46500e+02
915	2.48280e+02	9.15000e+02	5.91457e+00	2.47500e+02
917	2.49309e+02	9.17000e+02	5.91292e+00	2.48500e+02
919	2.50321e+02	9.19000e+02	5.91127e+00	2.49500e+02
921	2.51337e+02	9.21000e+02	5.90962e+00	2.50500e+02
923	2.52340e+02	9.23000e+02	5.90798e+00	2.51500e+02
925	2.53362e+02	9.25000e+02	5.90632e+00	2.52500e+02
927	2.54372e+02	9.27000e+02	5.90463e+00	2.53500e+02
929	2.55390e+02	9.29000e+02	5.90288e+00	2.54500e+02
931	2.56402e+02	9.31000e+02	5.90114e+00	2.55500e+02
933	2.57411e+02	9.33000e+02	5.89937e+00	2.56500e+02
935	2.58431e+02	9.35000e+02	5.89761e+00	2.57500e+02
937	2.59441e+02	9.37000e+02	5.89585e+00	2.58500e+02
939	2.60472e+02	9.39000e+02	5.89411e+00	2.59500e+02
941	2.61499e+02	9.41000e+02	5.89236e+00	2.60500e+02
943	2.62520e+02	9.43000e+02	5.89058e+00	2.61500e+02
945	2.63539e+02	9.45000e+02	5.88878e+00	2.62500e+02
947	2.64545e+02	9.47000e+02	5.88701e+00	2.63500e+02
949	2.65588e+02	9.49000e+02	5.88525e+00	2.64500e+02
951	2.66581e+02	9.51000e+02	5.88348e+00	2.65500e+02
953	2.67602e+02	9.53000e+02	5.88169e+00	2.66500e+02
955	2.68617e+02	9.55000e+02	5.87990e+00	2.67500e+02
957	2.69647e+02	9.57000e+02	5.87808e+00	2.68500e+02
959	2.70655e+02	9.59000e+02	5.87623e+00	2.69500e+02
961	2.71711e+02	9.61000e+02	5.87434e+00	2.70500e+02
963	2.72734e+02	9.63000e+02	5.87246e+00	2.71500e+02
965	2.73778e+02	9.65000e+02	5.87056e+00	2.72500e+02
967	2.74825e+02	9.67000e+02	5.86865e+00	2.73500e+02
969	2.75847e+02	9.69000e+02	5.86674e+00	2.74500e+02
971	2.76879e+02	9.71000e+02	5.86486e+00	2.75500e+02
973	2.77914e+02	9.73000e+02	5.86290e+00	2.76500e+02
975	2.78939e+02	9.75000e+02	5.86079e+00	2.77500e+02
977	2.79949e+02	9.77000e+02	5.85845e+00	2.78500e+02
979	2.80972e+02	9.79000e+02	5.85609e+00	2.79500e+02
981	2.82009e+02	9.81000e+02	5.85361e+00	2.80500e+02
983	2.83029e+02	9.83000e+02	5.85119e+00	2.81500e+02
985	2.84043e+02	9.85000e+02	5.84881e+00	2.82500e+02
987	2.85064e+02	9.87000e+02	5.84642e+00	2.83500e+02
989	2.86085e+02	9.89000e+02	5.84396e+00	2.84500e+02
991	2.87102e+02	9.91000e+02	5.84136e+00	2.85500e+02
993	2.88145e+02	9.93000e+02	5.83846e+00	2.86500e+02
995	2.89183e+02	9.95000e+02	5.83547e+00	2.87500e+02
997	2.90173e+02	9.97000e+02	5.83219e+00	2.88500e+02
999	2.91175e+02	9.99000e+02	5.82892e+00	2.89500e+02
1001	2.92187e+02	1.00100e+03	5.82554e+00	2.90500e+02
1003	2.93210e+02	1.00300e+03	5.82220e+00	2.91500e+02
1005	2.94214e+02	1.00500e+03	5.81885e+00	2.92500e+02
1007	2.95222e+02	1.00700e+03	5.81550e+00	2.93500e+02
1009	2.96224e+02	1.00900e+03	5.81212e+00	2.94500e+02
1011	2.97231e+02	1.01100e+03	5.80870e+00	2.95500e+02
1013	2.98236e+02	1.01300e+03	5.80520e+00	2.96500e+02
1015	2.99224e+02	1.01500e+03	5.80165e+00	2.97500e+02
1017	3.00243e+02	1.01700e+03	5.79795e+00	2.98500e+02
1019	3.01258e+02	1.01900e+03	5.79418e+00	2.99500e+02
1021	3.02284e+02	1.02100e+03	5.79024e+00	3.00500e+02
1023	3.03308e+02	1.02300e+03	5.78629e+00	3.01500e+02
1025	3.04345e+02	1.02500e+03	5.78218e+00	3.02500e+02
1027	3.05385e+02	1.02700e+03	5.77803e+00	3.03500e+02
1029	3.06397e+02	1.02900e+03	5.77370e+00	3.04500e+02
1031	3.07423e+02	1.03100e+03	5.76932e+00	3.05500e+02
1033	3.08431e+02	1.03300e+03	5.76472e+00	3.06500e+02
1035	3.09448e+02	1.03500e+03	5.76004e+00	3.07500e+02
1037	3.10479e+02	1.03700e+03	5.75511e+00	3.08500e+02
1039	3.11484e+02	1.03900e+03	5.75014e+00	3.09500e+02
1041	3.12494e+02	1.04100e+03	5.74493e+00	3.10500e+02
1043	3.13524e+02	1.04300e+03	5.73968e+00	3.11500e+02
1045	3.14566e+02	1.04500e+03	5.73421e+00	3.12500e+02
1047	3.15608e+02	1.04700e+03	5.72873e+00	3.13500e+02
1049	3.16639e+02	1.04900e+03	5.72309e+00	3.14500e+02
1051	3.17664e+02	1.05100e+03	5.71742e+00	3.15500e+02
1053	3.18668e+02	1.05300e+03	5.71162e+00	3.16500e+02
1055	3.19698e+02	1.05500e+03	5.70580e+00	3.17500e+02
1057	3.20711e+02	1.05700e+03	5.69987e+00	3.18500e+02
1059	3.21769e+02	1.05900e+03	5.69390e+00	3.19500e+02
1061	3.22846e+02	1.06100e+03	5.68777e+00	3.20500e+02
1063	3.23957e+02	1.06300e+03	5.68149e+00	3.21500e+02
1065	3.24963e+02	1.06500e+03	5.67483e+00	3.22500e+02
1067	3.26034e+02	1.06700e+03	5.66804e+00	3.23500e+02
1069	3.27067e+02	1.06900e+03	5.66094e+00	3.24500e+02
1071	3.28119e+02	1.07100e+03	5.65394e+00	3.25500e+02
1073	3.29102e+02	1.07300e+03	5.64692e+00	3.26500e+02
1075	3.30155e+02	1.07500e+03	5.63986e+00	3.27500e+02
1077	3.31192e+02	1.07700e+03	5.63268e+00	3.28500e+02
1079	3.32312e+02	1.07900e+03	5.62537e+00	3.29500e+02
1081	3.33399e+02	1.08100e+03	5.61774e+00	3.30500e+02
1083	3.34488e+02	1.08300e+03	5.60999e+00	3.31500e+02
1085	3.35670e+02	1.08500e+03	5.60185e+00	3.32500e+02
1087	3.36715e+02	1.08700e+03	5.59359e+00	3.33500e+02
1089	3.37730e+02	1.08900e+03	5.58479e+00	3.34500e+02
1091	3.38788e+02	1.09100e+03	5.57569e+00	3.35500e+02
1093	3.39902e+02	1.09300e+03	5.56566e+00	3.36500e+02
1095	3.40885e+02	1.09500e+03	5.55526e+00	3.37500e+02
1097	3.41875e+02	1.09700e+03	5.54374e+00	3.38500e+02
1099	3.42868e+02	1.09900e+03	5.53206e+00	3.39500e+02
1101	3.43852e+02	1.10100e+03	5.51942e+00	3.40500e+02
1103	3.44874e+02	1.10300e+03	5.50656e+00	3.41500e+02
1105	3.45903e+02	1.10500e+03	5.49270e+00	3.42500e+02
1107	3.46894e+02	1.10700e+03	5.47850e+00	3.43500e+02
1109	3.47902e+02	1.10900e+03	5.46303e+00	3.44500e+02
1111	3.48871e+02	1.11100e+03	5.44715e+00	3.45500e+02
1113	3.49840e+02	1.11300e+03	5.42976e+00	3.46500e+02
1115	3.50812e+02	1.11500e+03	5.41190e+00	3.47500e+02
1117	3.51821e+02	1.11700e+03	5.39229e+00	3.48500e+02
1119	3.52782e+02	1.11900e+03	5.37211e+00	3.49500e+02
1121	3.53747e+02	1.12100e+03	5.34986e+00	3.50500e+02
1123	3.54754e+02	1.12300e+03	5.32693e+00	3.51500e+02
1125	3.55724e+02	1.12500e+03	5.30150e+00	3.52500e+02
1127	3.56660e+02	1.12700e+03	5.27521e+00	3.53500e+02
1129	3.57630e+02	1.12900e+03	5.24581e+00	3.54500e+02
1131	3.58580e+02	1.13100e+03	5.21535e+00	3.55500e+02
1133	3.59544e+02	1.13300e+03	5.18113e+00	3.56500e+02
1135	3.60512e+02	1.13500e+03	5.14579e+00	3.57500e+02
1137	3.61473e+02	1.13700e+03	5.10634e+00	3.58500e+02
1139	3.62444e+02	1.13900e+03	5.06596e+00	3.59500e+02
1141	3.63431e+02	1.14100e+03	5.02149e+00	3.60500e+02
1143	3.64402e+02	1.14300e+03	4.97610e+00	3.61500e+02
1145	3.65359e+02	1.14500e+03	4.92665e+00	3.62500e+02
1147	3.66274e+02	1.14700e+03	4.87621e+00	3.63500e+02
1149	3.67213e+02	1.14900e+03	4.82178e+00	3.64500e+02
1151	3.68153e+02	1.15100e+03	4.76553e+00	3.65500e+02
1153	3.69127e+02	1.15300e+03	4.70538e+00	3.66500e+02
1155	3.70086e+02	1.15500e+03	4.64334e+00	3.67500e+02
1157	3.71065e+02	1.15700e+03	4.57720e+00	3.68500e+02
1159	3.71997e+02	1.15900e+03	4.50992e+00	3.69500e+02
1161	3.72925e+02	1.16100e+03	4.43857e+00	3.70500e+02
1163	3.73836e+02	1.16300e+03	4.36637e+00	3.71500e+02
1165	3.74751e+02	1.16500e+03	4.29030e+00	3.72500e+02
1167	3.75685e+02	1.16700e+03	4.21231e+00	3.73500e+02
1169	3.76630e+02	1.16900e+03	4.13018e+00	3.74500e+02
1171	3.77606e+02	1.17100e+03	4.04698e+00	3.75500e+02
1173	3.78563e+02	1.17300e+03	3.95982e+00	3.76500e+02
1175	3.79521e+02	1.17500e+03	3.87200e+00	3.77500e+02
1177	3.80504e+02	1.17700e+03	3.78090e+00	3.78500e+02
1179	3.81520e+02	1.17900e+03	3.68930e+00	3.79500e+02
1181	3.82497e+02	1.18100e+03	3.59499e+00	3.80500e+02
1183	3.83458e+02	1.18300e+03	3.50030e+00	3.81500e+02
1185	3.84411e+02	1.18500e+03	3.40352e+00	3.82500e+02
1187	3.85359e+02	1.18700e+03	3.30657e+00	3.83500e+02
1189	3.86346e+02	1.18900e+03	3.20814e+00	3.84500e+02
1191	3.87328e+02	1.19100e+03	3.10951e+00	3.85500e+02
1193	3.88322e+02	1.19300e+03	3.00963e+00	3.86500e+02
1195	3.89299e+02	1.19500e+03	2.90949e+00	3.87500e+02
1197	3.90311e+02	1.19700e+03	2.80843e+00	3.88500e+02
1199	3.91295e+02	1.19900e+03	2.70768e+00	3.89500e+02
1201	3.92292e+02	1.20100e+03	2.60712e+00	3.90500e+02
1203	3.93286e+02	1.20300e+03	2.50703e+00	3.91500e+02
1205	3.94281e+02	1.20500e+03	2.40775e+00	3.92500e+02
1207	3.95275e+02	1.20700e+03	2.30860e+00	3.93500e+02
1209	3.96256e+02	1.20900e+03	2.21008e+00	3.94500e+02
1211	3.97252e+02	1.21100e+03	2.11171e+00	3.95500e+02
1213	3.98245e+02	1.21300e+03	2.01418e+00	3.96500e+02
1215	3.99295e+02	1.21500e+03	1.91718e+00	3.97500e+02
1217	4.00321e+02	1.21700e+03	1.82149e+00	3.98500e+02
1219	4.01300e+02	1.21900e+03	1.72595e+00	3.99500e+02
1221	4.02310e+02	1.22100e+03	1.63106e+00	4.00500e+02
1223	4.03291e+02	1.22300e+03	1.53571e+00	4.01500e+02
1225	4.04318e+02	1.22500e+03	1.43989e+00	4.02500e+02
1227	4.05328e+02	1.22700e+03	1.34379e+00	4.03500e+02
1229	4.06339e+02	1.22900e+03	1.24722e+00	4.04500e+02
1231	4.07420e+02	1.23100e+03	1.15114e+00	4.05500e+02
1233	4.08476e+02	1.23300e+03	1.05640e+00	4.06500e+02
1235	4.09579e+02	1.23500e+03	9.63434e-01	4.07500e+02
1237	4.10670e+02	1.23700e+03	8.73167e-01	4.08500e+02
1239	4.11725e+02	1.23900e+03	7.87512e-01	4.09500e+02
1241	4.12761e+02	1.24100e+03	7.07950e-01	4.10500e+02
1243	4.13807e+02	1.24300e+03	6.35243e-01	4.11500e+02
1245	4.14836e+02	1.24500e+03	5.68220e-01	4.12500e+02
1247	4.15874e+02	1.24700e+03	5.07699e-01	4.13500e+02
1249	4.16916e+02	1.24900e+03	4.52482e-01	4.14500e+02
1251	4.17975e+02	1.25100e+03	4.03023e-01	4.15500e+02
1253	4.19033e+02	1.25300e+03	3.59244e-01	4.16500e+02
1255	4.20096e+02	1.25500e+03	3.18058e-01	4.17500e+02
1257	4.21134e+02	1.25700e+03	2.82849e-01	4.18500e+02
1259	4.22195e+02	1.25900e+03	2.49641e-01	4.19500e+02
1261	4.23240e+02	1.26100e+03	2.22742e-01	4.20500e+02
1263	4.24275e+02	1.26300e+03	1.96309e-01	4.21500e+02
1265	4.25329e+02	1.26500e+03	1.74366e-01	4.22500e+02
1267	4.26387e+02	1.26700e+03	1.53262e-01	4.23500e+02
1269	4.27403e+02	1.26900e+03	1.36121e-01	4.24500e+02
1271	4.28432e+02	1.27100e+03	1.19602e-01	4.25500e+02
1273	4.29480e+02	1.27300e+03	1.06398e-01	4.26500e+02
1275	4.30514e+02	1.27500e+03	9.36742e-02	4.27500e+02
1277	4.31520e+02	1.27700e+03	8.36214e-02	4.28500e+02
1279	4.32545e+02	1.27900e+03	7.39088e-02	4.29500e+02
1281	4.33560e+02	1.28100e+03	6.62857e-02	4.30500e+02
1283	4.34563e+02	1.28300e+03	5.89370e-02	4.31500e+02
1285	4.35563e+02	1.28500e+03	5.32142e-02	4.32500e+02
1287	4.36572e+02	1.28700e+03	4.76806e-02	4.33500e+02
1289	4.37577e+02	1.28900e+03	4.33737e-02	4.34500e+02
1291	4.38564e+02	1.29100e+03	3.91899e-02	4.35500e+02
1293	4.39562e+02	1.29300e+03	3.58865e-02	4.36500e+02
1295	4.40563e+02	1.29500e+03	3.26798e-02	4.37500e+02
1297	4.41555e+02	1.29700e+03	3.01510e-02	4.38500e+02
1299	4.42544e+02	1.29900e+03	2.77260e-02	4.39500e+02
1301	4.43537e+02	1.30100e+03	2.58345e-02	4.40500e+02
1303	4.44534e+02	1.30300e+03	2.39885e-02	4.41500e+02
1305	4.45526e+02	1.30500e+03	2.25340e-02	4.42500e+02
1307	4.46513e+02	1.30700e+03	2.11343e-02	4.43500e+02
1309	4.47506e+02	1.30900e+03	2.00370e-02	4.44500e+02
1311	4.48493e+02	1.31100e+03	1.89623e-02	4.45500e+02
1313	4.49476e+02	1.31300e+03	1.81004e-02	4.46500e+02
1315	4.50477e+02	1.31500e+03	1.72642e-02	4.47500e+02
1317	4.51471e+02	1.31700e+03	1.65921e-02	4.48500e+02
1319	4.52471e+02	1.31900e+03	1.59393e-02	4.49500e+02
1321	4.53470e+02	1.32100e+03	1.54316e-02	4.50500e+02
1323	4.54481e+02	1.32300e+03	1.49517e-02	4.51500e+02
1325	4.55463e+02	1.32500e+03	1.45738e-02	4.52500e+02
1327	4.56446e+02	1.32700e+03	1.41825e-02	4.53500e+02
1329	4.57438e+02	1.32900e+03	1.38427e-02	4.54500e+02
1331	4.58412e+02	1.33100e+03	1.35238e-02	4.55500e+02
1333	4.59383e+02	1.33300e+03	1.32831e-02	4.56500e+02
1335	4.60326e+02	1.33500e+03	1.30819e-02	4.57500e+02
1337	4.61308e+02	1.33700e+03	1.29839e-02	4.58500e+02
1339	4.62292e+02	1.33900e+03	1.28887e-02	4.59500e+02
1341	4.63266e+02	1.34100e+03	1.28496e-02	4.60500e+02
1343	4.64259e+02	1.34300e+03	1.27938e-02	4.61500e+02
1345	4.65221e+02	1.34500e+03	1.27386e-02	4.62500e+02
1347	4.66192e+02	1.34700e+03	1.26774e-02	4.63500e+02
1349	4.67154e+02	1.34900e+03	1.26004e-02	4.64500e+02
1351	4.68098e+02	1.35100e+03	1.25188e-02	4.65500e+02
1353	4.69044e+02	1.35300e+03	1.24200e-02	4.66500e+02
1355	4.70012e+02	1.35500e+03	1.23278e-02	4.67500e+02
1357	4.70982e+02	1.35700e+03	1.22499e-02	4.68500e+02
1359	4.71940e+02	1.35900e+03	1.21855e-02	4.69500e+02
1361	4.72903e+02	1.36100e+03	1.21268e-02	4.70500e+02
1363	4.73890e+02	1.36300e+03	1.20480e-02	4.71500e+02
1365	4.74882e+02	1.36500e+03	1.19753e-02	4.72500e+02
1367	4.75846e+02	1.36700e+03	1.19311e-02	4.73500e+02
1369	4.76821e+02	1.36900e+03	1.19126e-02	4.74500e+02
1371	4.77789e+02	1.37100e+03	1.18851e-02	4.75500e+02
1373	4.78761e+02	1.37300e+03	1.18747e-02	4.76500e+02
1375	4.79739e+02	1.37500e+03	1.18790e-02	4.77500e+02
1377	4.80721e+02	1.37700e+03	1.18913e-02	4.78500e+02
1379	4.81707e+02	1.37900e+03	1.18858e-02	4.79500e+02
1381	4.82687e+02	1.38100e+03	1.18729e-02	4.80500e+02
1383	4.83667e+02	1.38300e+03	1.18672e-02	4.81500e+02
1385	4.84654e+02	1.38500e+03	1.18503e-02	4.82500e+02
1387	4.85636e+02	1.38700e+03	1.18133e-02	4.83500e+02
1389	4.86610e+02	1.38900e+03	1.17400e-02	4.84500e+02
1391	4.87596e+02	1.39100e+03	1.16691e-02	4.85500e+02
1393	4.88567e+02	1.39300e+03	1.16094e-02	4.86500e+02
1395	4.89557e+02	1.39500e+03	1.15856e-02	4.87500e+02
1397	4.90529e+02	1.39700e+03	1.16176e-02	4.88500e+02
1399	4.91505e+02	1.39900e+03	1.16415e-02	4.89500e+02
1401	4.92481e+02	1.40100e+03	1.16585e-02	4.90500e+02
1403	4.93468e+02	1.40300e+03	1.16280e-02	4.91500e+02
1405	4.94443e+02	1.40500e+03	1.15371e-02	4.92500e+02
1407	4.95427e+02	1.40700e+03	1.14718e-02	4.93500e+02
1409	4.96408e+02	1.40900e+03	1.14272e-02	4.94500e+02
1411	4.97384e+02	1.41100e+03	1.14078e-02	4.95500e+02
1413	4.98367e+02	1.41300e+03	1.14296e-02	4.96500e+02
1415	4.99351e+02	1.41500e+03	1.14308e-02	4.97500e+02
1417	5.00337e+02	1.41700e+03	1.14248e-02	4.98500e+02
1419	5.01322e+02	1.41900e+03	1.14107e-02	4.99500e+02
1421	5.02291e+02	1.42100e+03	1.13732e-02	5.00500e+02
1423	5.03295e+02	1.42300e+03	1.13286e-02	5.01500e+02
1425	5.04288e+02	1.42500e+03	1.12675e-02	5.02500e+02
1427	5.05271e+02	1.42700e+03	1.12143e-02	5.03500e+02
1429	5.06266e+02	1.42900e+03	1.11477e-02	5.04500e+02
1431	5.07264e+02	1.43100e+03	1.10739e-02	5.05500e+02
1433	5.08258e+02	1.43300e+03	1.10226e-02	5.06500e+02
1435	5.09240e+02	1.43500e+03	1.10020e-02	5.07500e+02
1437	5.10251e+02	1.43700e+03	1.10096e-02	5.08500e+02
1439	5.11250e+02	1.43900e+03	1.09882e-02	5.09500e+02
1441	5.12266e+02	1.44100e+03	1.09493e-02	5.10500e+02
1443	5.13260e+02	1.44300e+03	1.09243e-02	5.11500e+02
1445	5.14263e+02	1.44500e+03	1.08878e-02	5.12500e+02
1447	5.15265e+02	1.44700e+03	1.08243e-02	5.13500e+02
1449	5.16244e+02	1.44900e+03	1.07112e-02	5.14500e+02
1451	5.17228e+02	1.45100e+03	1.06154e-02	5.15500e+02
1453	5.18239e+02	1.45300e+03	1.05814e-02	5.16500e+02
1455	5.19229e+02	1.45500e+03	1.06368e-02	5.17500e+02
1457	5.20212e+02	1.45700e+03	1.08610e-02	5.18500e+02
1459	5.21174e+02	1.45900e+03	1.10545e-02	5.19500e+02
1461	5.22188e+02	1.46100e+03	1.12230e-02	5.20500e+02
1463	5.23185e+02	1.46300e+03	1.13042e-02	5.21500e+02
1465	5.24166e+02	1.46500e+03	1.12583e-02	5.22500e+02
1467	5.25145e+02	1.46700e+03	1.12350e-02	5.23500e+02
1469	5.26141e+02	1.46900e+03	1.11571e-02	5.24500e+02
1471	5.27114e+02	1.47100e+03	1.10661e-02	5.25500e+02
1473	5.28072e+02	1.47300e+03	1.09620e-02	5.26500e+02
1475	5.29074e+02	1.47500e+03	1.08831e-02	5.27500e+02
1477	5.30113e+02	1.47700e+03	1.08252e-02	5.28500e+02
1479	5.31191e+02	1.47900e+03	1.07572e-02	5.29500e+02
1481	5.32239e+02	1.48100e+03	1.06995e-02	5.30500e+02
1483	5.33248e+02	1.48300e+03	1.06755e-02	5.31500e+02
1485	5.34343e+02	1.48500e+03	1.07101e-02	5.32500e+02
1487	5.35407e+02	1.48700e+03	1.07587e-02	5.33500e+02
1489	5.36454e+02	1.48900e+03	1.08358e-02	5.34500e+02
1491	5.37504e+02	1.49100e+03	1.08681e-02	5.35500e+02
1493	5.38561e+02	1.49300e+03	1.08492e-02	5.36500e+02
1495	5.39599e+02	1.49500e+03	1.08250e-02	5.37500e+02
1497	5.40600e+02	1.49700e+03	1.07620e-02	5.38500e+02
1499	5.41633e+02	1.49900e+03	1.07057e-02	5.39500e+02
1501	5.42679e+02	1.50100e+03	1.06555e-02	5.40500e+02
1503	5.43690e+02	1.50300e+03	1.06271e-02	5.41500e+02
1505	5.44753e+02	1.50500e+03	1.06377e-02	5.42500e+02
1507	5.45762e+02	1.50700e+03	1.06547e-02	5.43500e+02
1509	5.46730e+02	1.50900e+03	1.07002e-02	5.44500e+02
1511	5.47727e+02	1.51100e+03	1.07310e-02	5.45500e+02
1513	5.48734e+02	1.51300e+03	1.07346e-02	5.46500e+02
1515	5.49730e+02	1.51500e+03	1.07130e-02	5.47500e+02
1517	5.50732e+02	1.51700e+03	1.06553e-02	5.48500e+02
1519	5.51699e+02	1.51900e+03	1.06167e-02	5.49500e+02
1521	5.52688e+02	1.52100e+03	1.05744e-02	5.50500e+02
1523	5.53692e+02	1.52300e+03	1.05233e-02	5.51500e+02
1525	5.54685e+02	1.52500e+03	1.04697e-02	5.52500e+02
1527	5.55652e+02	1.52700e+03	1.04209e-02	5.53500e+02
1529	5.56626e+02	1.52900e+03	1.03411e-02	5.54500e+02
1531	5.57578e+02	1.53100e+03	1.02377e-02	5.55500e+02
1533	5.58557e+02	1.53300e+03	1.01258e-02	5.56500e+02
1535	5.59550e+02	1.53500e+03	1.00854e-02	5.57500e+02
1537	5.60541e+02	1.53700e+03	1.01710e-02	5.58500e+02
1539	5.61500e+02	1.53900e+03	1.02763e-02	5.59500e+02
1541	5.62479e+02	1.54100e+03	1.04520e-02	5.60500e+02
1543	5.63489e+02	1.54300e+03	1.05714e-02	5.61500e+02
1545	5.64432e+02	1.54500e+03	1.06072e-02	5.62500e+02
1547	5.65407e+02	1.54700e+03	1.06102e-02	5.63500e+02
1549	5.66374e+02	1.54900e+03	1.05462e-02	5.64500e+02
1551	5.67349e+02	1.55100e+03	1.05174e-02	5.65500e+02
1553	5.68294e+02	1.55300e+03	1.04956e-02	5.66500e+02
1555	5.69267e+02	1.55500e+03	1.04723e-02	5.67500e+02
1557	5.70235e+02	1.55700e+03	1.04585e-02	5.68500e+02
1559	5.71198e+02	1.55900e+03	1.04466e-02	5.69500e+02
1561	5.72183e+02	1.56100e+03	1.04262e-02	5.70500e+02
1563	5.73152e+02	1.56300e+03	1.03915e-02	5.71500e+02
1565	5.74130e+02	1.56500e+03	1.03453e-02	5.72500e+02
1567	5.75113e+02	1.56700e+03	1.03128e-02	5.73500e+02
1569	5.76096e+02	1.56900e+03	1.02915e-02	5.74500e+02
1571	5.77085e+02	1.57100e+03	1.02728e-02	5.75500e+02
1573	5.78075e+02	1.57300e+03	1.02696e-02	5.76500e+02
1575	5.79051e+02	1.57500e+03	1.02641e-02	5.77500e+02
1577	5.80017e+02	1.57700e+03	1.02617e-02	5.78500e+02
1579	5.81006e+02	1.57900e+03	1.02639e-02	5.79500e+02
1581	5.81993e+02	1.58100e+03	1.02757e-02	5.80500e+02
1583	5.82963e+02	1.58300e+03	1.02857e-02	5.81500e+02
1585	5.83946e+02	1.58500e+03	1.02853e-02	5.82500e+02
1587	5.84930e+02	1.58700e+03	1.02723e-02	5.83500e+02
1589	5.85904e+02	1.58900e+03	1.02496e-02	5.84500e+02
1591	5.86879e+02	1.59100e+03	1.02497e-02	5.85500e+02
1593	5.87861e+02	1.59300e+03	1.02820e-02	5.86500e+02
1595	5.88841e+02	1.59500e+03	1.03141e-02	5.87500e+02
1597	5.89820e+02	1.59700e+03	1.03358e-02	5.88500e+02
1599	5.90802e+02	1.59900e+03	1.03303e-02	5.89500e+02
1601	5.91783e+02	1.60100e+03	1.02829e-02	5.90500e+02
1603	5.92780e+02	1.60300e+03	1.02340e-02	5.91500e+02
1605	5.93767e+02	1.60500e+03	1.01538e-02	5.92500e+02
1607	5.94747e+02	1.60700e+03	1.00959e-02	5.93500e+02
1609	5.95739e+02	1.60900e+03	1.00841e-02	5.94500e+02
1611	5.96733e+02	1.61100e+03	1.01105e-02	5.95500e+02
1613	5.97702e+02	1.61300e+03	1.01766e-02	5.96500e+02
1615	5.98688e+02	1.61500e+03	1.01846e-02	5.97500e+02
1617	5.99677e+02	1.61700e+03	1.01487e-02	5.98500e+02
1619	6.00671e+02	1.61900e+03	1.01215e-02	5.99500e+02
1621	6.01647e+02	1.62100e+03	1.00713e-02	6.00500e+02
1623	6.02634e+02	1.62300e+03	1.00151e-02	6.01500e+02
1625	6.03618e+02	1.62500e+03	9.95330e-03	6.02500e+02
1627	6.04592e+02	1.62700e+03	9.91562e-03	6.03500e+02
1629	6.05591e+02	1.62900e+03	9.90657e-03	6.04500e+02
1631	6.06570e+02	1.63100e+03	9.90224e-03	6.05500e+02
1633	6.07555e+02	1.63300e+03	9.92219e-03	6.06500e+02
1635	6.08545e+02	1.63500e+03	9.93228e-03	6.07500e+02
1637	6.09540e+02	1.63700e+03	9.93041e-03	6.08500e+02
1639	6.10514e+02	1.63900e+03	9.91006e-03	6.09500e+02
1641	6.11504e+02	1.64100e+03	9.86498e-03	6.10500e+02
1643	6.12499e+02	1.64300e+03	9.84523e-03	6.11500e+02
1645	6.13486e+02	1.64500e+03	9.84525e-03	6.12500e+02
1647	6.14483e+02	1.64700e+03	9.85118e-03	6.13500e+02
1649	6.15474e+02	1.64900e+03	9.87387e-03	6.14500e+02
1651	6.16459e+02	1.65100e+03	9.89060e-03	6.15500e+02
1653	6.17454e+02	1.65300e+03	9.90827e-03	6.16500e+02
1655	6.18457e+02	1.65500e+03	9.92652e-03	6.17500e+02
1657	6.19460e+02	1.65700e+03	9.94190e-03	6.18500e+02
1659	6.20454e+02	1.65900e+03	9.95366e-03	6.19500e+02
1661	6.21458e+02	1.66100e+03	9.95604e-03	6.20500e+02
1663	6.22455e+02	1.66300e+03	9.95221e-03	6.21500e+02
1665	6.23446e+02	1.66500e+03	9.91927e-03	6.22500e+02
1667	6.24447e+02	1.66700e+03	9.86626e-03	6.23500e+02
1669	6.25433e+02	1.66900e+03	9.80291e-03	6.24500e+02
1671	6.26433e+02	1.67100e+03	9.76968e-03	6.25500e+02
1673	6.27429e+02	1.67300e+03	9.76834e-03	6.26500e+02
1675	6.28413e+02	1.67500e+03	9.76761e-03	6.27500e+02
1677	6.29391e+02	1.67700e+03	9.78654e-03	6.28500e+02
1679	6.30375e+02	1.67900e+03	9.80079e-03	6.29500e+02
1681	6.31351e+02	1.68100e+03	9.79747e-03	6.30500e+02
1683	6.32352e+02	1.68300e+03	9.76718e-03	6.31500e+02
1685	6.33349e+02	1.68500e+03	9.72223e-03	6.32500e+02
1687	6.34327e+02	1.68700e+03	9.70486e-03	6.33500e+02
1689	6.35326e+02	1.68900e+03	9.70440e-03	6.34500e+02
1691	6.36325e+02	1.69100e+03	9.69541e-03	6.35500e+02
1693	6.37330e+02	1.69300e+03	9.69952e-03	6.36500e+02
1695	6.38344e+02	1.69500e+03	9.71331e-03	6.37500e+02
1697	6.39346e+02	1.69700e+03	9.73050e-03	6.38500e+02
1699	6.40361e+02	1.69900e+03	9.73556e-03	6.39500e+02
1701	6.41362e+02	1.70100e+03	9.74303e-03	6.40500e+02
1703	6.42375e+02	1.70300e+03	9.76487e-03	6.41500e+02
1705	6.43386e+02	1.70500e+03	9.78419e-03	6.42500e+02
1707	6.44394e+02	1.70700e+03	9.77945e-03	6.43500e+02
1709	6.45406e+02	1.70900e+03	9.75195e-03	6.44500e+02
1711	6.46420e+02	1.71100e+03	9.73642e-03	6.45500e+02
1713	6.47442e+02	1.71300e+03	9.71998e-03	6.46500e+02
1715	6.48480e+02	1.71500e+03	9.70166e-03	6.47500e+02
1717	6.49497e+02	1.71700e+03	9.67158e-03	6.48500e+02
1719	6.50547e+02	1.71900e+03	9.61381e-03	6.49500e+02
1721	6.51587e+02	1.72100e+03	9.49775e-03	6.50500e+02
1723	6.52621e+02	1.72300e+03	9.38370e-03	6.51500e+02
1725	6.53972e+02	1.72500e+03	9.32513e-03	6.52500e+02
1727	6.58394e+02	1.72700e+03	9.36305e-03	6.53500e+02
1729	6.58693e+02	1.72900e+03	9.56768e-03	6.54500e+02
1731	6.59271e+02	1.73100e+03	9.75294e-03	6.55500e+02
1733	6.60096e+02	1.73300e+03	9.97178e-03	6.56500e+02
1735	6.60912e+02	1.73500e+03	1.01327e-02	6.57500e+02
1737	6.61716e+02	1.73700e+03	1.01752e-02	6.58500e+02
1739	6.62579e+02	1.73900e+03	1.01566e-02	6.59500e+02
1741	6.63496e+02	1.74100e+03	9.99480e-03	6.60500e+02
1743	6.64408e+02	1.74300e+03	9.86269e-03	6.61500e+02
1745	6.65343e+02	1.74500e+03	9.71733e-03	6.62500e+02
1747	6.66278e+02	1.74700e+03	9.61748e-03	6.63500e+02
1749	6.67247e+02	1.74900e+03	9.57875e-03	6.64500e+02
1751	6.68189e+02	1.75100e+03	9.54576e-03	6.65500e+02
1753	6.69166e+02	1.75300e+03	9.56958e-03	6.66500e+02
1755	6.70133e+02	1.75500e+03	9.60178e-03	6.67500e+02
1757	6.71103e+02	1.75700e+03	9.64857e-03	6.68500e+02
1759	6.72081e+02	1.75900e+03	9.66181e-03	6.69500e+02
1761	6.73049e+02	1.76100e+03	9.64040e-03	6.70500e+02
1763	6.74011e+02	1.76300e+03	9.63929e-03	6.71500e+02
1765	6.74973e+02	1.76500e+03	9.64927e-03	6.72500e+02
1767	6.75953e+02	1.76700e+03	9.66197e-03	6.73500e+02
1769	6.76927e+02	1.76900e+03	9.69017e-03	6.74500e+02
1771	6.77913e+02	1.77100e+03	9.70783e-03	6.75500e+02
1773	6.78890e+02	1.77300e+03	9.70729e-03	6.76500e+02
1775	6.79873e+02	1.77500e+03	9.69823e-03	6.77500e+02
1777	6.80859e+02	1.77700e+03	9.67442e-03	6.78500e+02
1779	6.81839e+02	1.77900e+03	9.65578e-03	6.79500e+02
1781	6.82828e+02	1.78100e+03	9.61519e-03	6.80500e+02
1783	6.83815e+02	1.78300e+03	9.54436e-03	6.81500e+02
1785	6.84787e+02	1.78500e+03	9.41166e-03	6.82500e+02
1787	6.85800e+02	1.78700e+03	9.27988e-03	6.83500e+02
1789	6.86794e+02	1.78900e+03	9.13583e-03	6.84500e+02
1791	6.87784e+02	1.79100e+03	9.04807e-03	6.85500e+02
1793	6.88788e+02	1.79300e+03	9.10695e-03	6.86500e+02
1795	6.89500e+02	1.79500e+03	9.22478e-03	6.87500e+02
1797	6.90037e+02	1.79700e+03	9.45539e-03	6.88500e+02
1799	6.90778e+02	1.79900e+03	9.60765e-03	6.89500e+02
1801	6.91498e+02	1.80100e+03	9.70508e-03	6.90500e+02
1803	6.92155e+02	1.80300e+03	9.76140e-03	6.91500e+02
1805	6.92744e+02	1.80500e+03	9.72291e-03	6.92500e+02
1807	6.93314e+02	1.80700e+03	9.66835e-03	6.93500e+02
1809	6.93829e+02	1.80900e+03	9.56615e-03	6.94500e+02
1811	6.94313e+02	1.81100e+03	9.49631e-03	6.95500e+02
1813	6.94790e+02	1.81300e+03	9.45498e-03	6.96500e+02
1815	6.95223e+02	1.81500e+03	9.42724e-03	6.97500e+02
1817	6.95632e+02	1.81700e+03	9.44233e-03	6.98500e+02
1819	6.96018e+02	1.81900e+03	9.47544e-03	6.99500e+02
1820	6.96200e+02	1.82000e+03	9.51560e-03	7.00000e+02