File: Experiments/TUBS/tga_nonisotherm/tga_dynamic_n2high60_dyn30_powder_3mg_r2.txt
Index	Ts	t	Weight	Tr
[#]	[°C]	[s]	[mg]	[°C]
682	1.30187e+02	6.82000e+02	2.98964	131.0
684	1.31201e+02	6.84000e+02	2.98955	132.0
686	1.32187e+02	6.86000e+02	2.98946	133.0
688	1.33169e+02	6.88000e+02	2.9894	134.0
690	1.34180e+02	6.90000e+02	2.98937	135.0
692	1.35184e+02	6.92000e+02	2.98935	136.0
694	1.36195e+02	6.94000e+02	2.98931	137.0
696	1.37190e+02	6.96000e+02	2.98922	138.0
698	1.38193e+02	6.98000e+02	2.98912	139.0
700	1.39197e+02	7.00000e+02	2.989	140.0
702	1.40199e+02	7.02000e+02	2.98886	141.0
704	1.41200e+02	7.04000e+02	2.98871	142.0
706	1.42205e+02	7.06000e+02	2.98854	143.0
708	1.43207e+02	7.08000e+02	2.98831	144.0
710	1.44208e+02	7.10000e+02	2.98802	145.0
712	1.45217e+02	7.12000e+02	2.98765	146.0
714	1.46221e+02	7.14000e+02	2.9873	147.0
716	1.47216e+02	7.16000e+02	2.98698	148.0
718	1.48223e+02	7.18000e+02	2.9867	149.0
720	1.49230e+02	7.20000e+02	2.98646	150.0
722	1.50222e+02	7.22000e+02	2.98622	151.0
724	1.51249e+02	7.24000e+02	2.98595	152.0
726	1.52252e+02	7.26000e+02	2.98564	153.0
728	1.53248e+02	7.28000e+02	2.98525	154.0
730	1.54257e+02	7.30000e+02	2.98481	155.0
732	1.55253e+02	7.32000e+02	2.98431	156.0
734	1.56252e+02	7.34000e+02	2.98381	157.0
736	1.57278e+02	7.36000e+02	2.98331	158.0
738	1.58280e+02	7.38000e+02	2.98282	159.0
740	1.59283e+02	7.40000e+02	2.98233	160.0
742	1.60275e+02	7.42000e+02	2.98184	161.0
744	1.61297e+02	7.44000e+02	2.98131	162.0
746	1.62295e+02	7.46000e+02	2.98075	163.0
748	1.63308e+02	7.48000e+02	2.98014	164.0
750	1.64302e+02	7.50000e+02	2.97952	165.0
752	1.65319e+02	7.52000e+02	2.97886	166.0
754	1.66321e+02	7.54000e+02	2.97815	167.0
756	1.67338e+02	7.56000e+02	2.97737	168.0
758	1.68343e+02	7.58000e+02	2.97654	169.0
760	1.69358e+02	7.60000e+02	2.97562	170.0
762	1.70364e+02	7.62000e+02	2.97466	171.0
764	1.71382e+02	7.64000e+02	2.97365	172.0
766	1.72386e+02	7.66000e+02	2.97262	173.0
768	1.73386e+02	7.68000e+02	2.97153	174.0
770	1.74402e+02	7.70000e+02	2.97034	175.0
772	1.75397e+02	7.72000e+02	2.96898	176.0
774	1.76414e+02	7.74000e+02	2.96753	177.0
776	1.77411e+02	7.76000e+02	2.96591	178.0
778	1.78429e+02	7.78000e+02	2.96416	179.0
780	1.79438e+02	7.80000e+02	2.9622	180.0
782	1.80446e+02	7.82000e+02	2.96013	181.0
784	1.81454e+02	7.84000e+02	2.95786	182.0
786	1.82465e+02	7.86000e+02	2.95547	183.0
788	1.83484e+02	7.88000e+02	2.9529	184.0
790	1.84488e+02	7.90000e+02	2.95024	185.0
792	1.85506e+02	7.92000e+02	2.94743	186.0
794	1.86518e+02	7.94000e+02	2.94453	187.0
796	1.87538e+02	7.96000e+02	2.94148	188.0
798	1.88551e+02	7.98000e+02	2.93836	189.0
800	1.89552e+02	8.00000e+02	2.93512	190.0
802	1.90573e+02	8.02000e+02	2.93179	191.0
804	1.91590e+02	8.04000e+02	2.92836	192.0
806	1.92601e+02	8.06000e+02	2.92491	193.0
808	1.93608e+02	8.08000e+02	2.92142	194.0
810	1.94623e+02	8.10000e+02	2.91792	195.0
812	1.95636e+02	8.12000e+02	2.91442	196.0
814	1.96635e+02	8.14000e+02	2.91095	197.0
816	1.97657e+02	8.16000e+02	2.90751	198.0
818	1.98673e+02	8.18000e+02	2.90414	199.0
820	1.99694e+02	8.20000e+02	2.90087	200.0
822	2.00702e+02	8.22000e+02	2.89769	201.0
824	2.01723e+02	8.24000e+02	2.89466	202.0
826	2.02748e+02	8.26000e+02	2.89174	203.0
828	2.03762e+02	8.28000e+02	2.88899	204.0
830	2.04781e+02	8.30000e+02	2.88635	205.0
832	2.05807e+02	8.32000e+02	2.8839	206.0
834	2.06833e+02	8.34000e+02	2.88161	207.0
836	2.07841e+02	8.36000e+02	2.87956	208.0
838	2.08862e+02	8.38000e+02	2.87764	209.0
840	2.09897e+02	8.40000e+02	2.87595	210.0
842	2.10915e+02	8.42000e+02	2.87438	211.0
844	2.11931e+02	8.44000e+02	2.87301	212.0
846	2.12956e+02	8.46000e+02	2.87171	213.0
848	2.13958e+02	8.48000e+02	2.87054	214.0
850	2.14999e+02	8.50000e+02	2.86946	215.0
852	2.16004e+02	8.52000e+02	2.8685	216.0
854	2.17033e+02	8.54000e+02	2.86758	217.0
856	2.18050e+02	8.56000e+02	2.86674	218.0
858	2.19053e+02	8.58000e+02	2.86593	219.0
860	2.20076e+02	8.60000e+02	2.86519	220.0
862	2.21082e+02	8.62000e+02	2.86444	221.0
864	2.22099e+02	8.64000e+02	2.86371	222.0
866	2.23093e+02	8.66000e+02	2.86298	223.0
868	2.24106e+02	8.68000e+02	2.86224	224.0
870	2.25079e+02	8.70000e+02	2.8615	225.0
872	2.26078e+02	8.72000e+02	2.86075	226.0
874	2.27092e+02	8.74000e+02	2.86003	227.0
876	2.28102e+02	8.76000e+02	2.85933	228.0
878	2.29091e+02	8.78000e+02	2.85865	229.0
880	2.30102e+02	8.80000e+02	2.85796	230.0
882	2.31115e+02	8.82000e+02	2.85729	231.0
884	2.32126e+02	8.84000e+02	2.85663	232.0
886	2.33147e+02	8.86000e+02	2.85594	233.0
888	2.34156e+02	8.88000e+02	2.85522	234.0
890	2.35175e+02	8.90000e+02	2.85451	235.0
892	2.36189e+02	8.92000e+02	2.85379	236.0
894	2.37189e+02	8.94000e+02	2.85308	237.0
896	2.38204e+02	8.96000e+02	2.85238	238.0
898	2.39228e+02	8.98000e+02	2.8517	239.0
900	2.40240e+02	9.00000e+02	2.85105	240.0
902	2.41240e+02	9.02000e+02	2.85042	241.0
904	2.42245e+02	9.04000e+02	2.84982	242.0
906	2.43245e+02	9.06000e+02	2.84923	243.0
908	2.44258e+02	9.08000e+02	2.84867	244.0
910	2.45263e+02	9.10000e+02	2.84811	245.0
912	2.46276e+02	9.12000e+02	2.84756	246.0
914	2.47286e+02	9.14000e+02	2.84701	247.0
916	2.48298e+02	9.16000e+02	2.84646	248.0
918	2.49309e+02	9.18000e+02	2.84595	249.0
920	2.50321e+02	9.20000e+02	2.84548	250.0
922	2.51308e+02	9.22000e+02	2.84503	251.0
924	2.52339e+02	9.24000e+02	2.84461	252.0
926	2.53343e+02	9.26000e+02	2.84419	253.0
928	2.54341e+02	9.28000e+02	2.84376	254.0
930	2.55348e+02	9.30000e+02	2.84332	255.0
932	2.56339e+02	9.32000e+02	2.84287	256.0
934	2.57346e+02	9.34000e+02	2.84243	257.0
936	2.58365e+02	9.36000e+02	2.842	258.0
938	2.59372e+02	9.38000e+02	2.84153	259.0
940	2.60381e+02	9.40000e+02	2.84102	260.0
942	2.61405e+02	9.42000e+02	2.8405	261.0
944	2.62411e+02	9.44000e+02	2.83994	262.0
946	2.63398e+02	9.46000e+02	2.83936	263.0
948	2.64424e+02	9.48000e+02	2.83879	264.0
950	2.65442e+02	9.50000e+02	2.83826	265.0
952	2.66489e+02	9.52000e+02	2.83777	266.0
954	2.67480e+02	9.54000e+02	2.83729	267.0
956	2.68503e+02	9.56000e+02	2.83681	268.0
958	2.69542e+02	9.58000e+02	2.83634	269.0
960	2.70598e+02	9.60000e+02	2.83585	270.0
962	2.71611e+02	9.62000e+02	2.83532	271.0
964	2.72646e+02	9.64000e+02	2.83475	272.0
966	2.73638e+02	9.66000e+02	2.83416	273.0
968	2.74646e+02	9.68000e+02	2.83355	274.0
970	2.75649e+02	9.70000e+02	2.83291	275.0
972	2.76655e+02	9.72000e+02	2.83224	276.0
974	2.77658e+02	9.74000e+02	2.83154	277.0
976	2.78658e+02	9.76000e+02	2.83079	278.0
978	2.79654e+02	9.78000e+02	2.83	279.0
980	2.80675e+02	9.80000e+02	2.82914	280.0
982	2.81694e+02	9.82000e+02	2.82824	281.0
984	2.82707e+02	9.84000e+02	2.82727	282.0
986	2.83741e+02	9.86000e+02	2.82623	283.0
988	2.84768e+02	9.88000e+02	2.82506	284.0
990	2.85792e+02	9.90000e+02	2.82379	285.0
992	2.86850e+02	9.92000e+02	2.82239	286.0
994	2.87931e+02	9.94000e+02	2.82093	287.0
996	2.88983e+02	9.96000e+02	2.8194	288.0
998	2.89994e+02	9.98000e+02	2.81784	289.0
1000	2.91004e+02	1.00000e+03	2.8162	290.0
1002	2.92006e+02	1.00200e+03	2.81447	291.0
1004	2.93029e+02	1.00400e+03	2.81256	292.0
1006	2.94036e+02	1.00600e+03	2.81053	293.0
1008	2.95065e+02	1.00800e+03	2.80832	294.0
1010	2.96067e+02	1.01000e+03	2.80607	295.0
1012	2.97061e+02	1.01200e+03	2.8037	296.0
1014	2.98096e+02	1.01400e+03	2.80123	297.0
1016	2.99095e+02	1.01600e+03	2.79857	298.0
1018	3.00085e+02	1.01800e+03	2.79579	299.0
1020	3.01098e+02	1.02000e+03	2.79281	300.0
1022	3.02096e+02	1.02200e+03	2.78972	301.0
1024	3.03104e+02	1.02400e+03	2.78645	302.0
1026	3.04103e+02	1.02600e+03	2.78309	303.0
1028	3.05094e+02	1.02800e+03	2.77955	304.0
1030	3.06094e+02	1.03000e+03	2.77592	305.0
1032	3.07106e+02	1.03200e+03	2.77215	306.0
1034	3.08100e+02	1.03400e+03	2.76835	307.0
1036	3.09104e+02	1.03600e+03	2.76446	308.0
1038	3.10115e+02	1.03800e+03	2.76049	309.0
1040	3.11150e+02	1.04000e+03	2.7564	310.0
1042	3.12176e+02	1.04200e+03	2.75226	311.0
1044	3.13200e+02	1.04400e+03	2.74804	312.0
1046	3.14227e+02	1.04600e+03	2.74376	313.0
1048	3.15234e+02	1.04800e+03	2.73941	314.0
1050	3.16245e+02	1.05000e+03	2.73504	315.0
1052	3.17241e+02	1.05200e+03	2.73065	316.0
1054	3.18261e+02	1.05400e+03	2.72626	317.0
1056	3.19265e+02	1.05600e+03	2.72185	318.0
1058	3.20260e+02	1.05800e+03	2.71746	319.0
1060	3.21266e+02	1.06000e+03	2.71307	320.0
1062	3.22271e+02	1.06200e+03	2.70866	321.0
1064	3.23287e+02	1.06400e+03	2.70421	322.0
1066	3.24302e+02	1.06600e+03	2.69968	323.0
1068	3.25349e+02	1.06800e+03	2.695	324.0
1070	3.26398e+02	1.07000e+03	2.69021	325.0
1072	3.27448e+02	1.07200e+03	2.68521	326.0
1074	3.28472e+02	1.07400e+03	2.68006	327.0
1076	3.29497e+02	1.07600e+03	2.67466	328.0
1078	3.30544e+02	1.07800e+03	2.66906	329.0
1080	3.31538e+02	1.08000e+03	2.66311	330.0
1082	3.32542e+02	1.08200e+03	2.65691	331.0
1084	3.33550e+02	1.08400e+03	2.65025	332.0
1086	3.34575e+02	1.08600e+03	2.64331	333.0
1088	3.35632e+02	1.08800e+03	2.63582	334.0
1090	3.36650e+02	1.09000e+03	2.62794	335.0
1092	3.37651e+02	1.09200e+03	2.61939	336.0
1094	3.38642e+02	1.09400e+03	2.61043	337.0
1096	3.39659e+02	1.09600e+03	2.60077	338.0
1098	3.40646e+02	1.09800e+03	2.59063	339.0
1100	3.41631e+02	1.10000e+03	2.5797	340.0
1102	3.42666e+02	1.10200e+03	2.56829	341.0
1104	3.43678e+02	1.10400e+03	2.55602	342.0
1106	3.44689e+02	1.10600e+03	2.54315	343.0
1108	3.45711e+02	1.10800e+03	2.52927	344.0
1110	3.46735e+02	1.11000e+03	2.51474	345.0
1112	3.47717e+02	1.11200e+03	2.49911	346.0
1114	3.48714e+02	1.11400e+03	2.4828	347.0
1116	3.49729e+02	1.11600e+03	2.46531	348.0
1118	3.50756e+02	1.11800e+03	2.44713	349.0
1120	3.51749e+02	1.12000e+03	2.42775	350.0
1122	3.52747e+02	1.12200e+03	2.40759	351.0
1124	3.53704e+02	1.12400e+03	2.38611	352.0
1126	3.54692e+02	1.12600e+03	2.36381	353.0
1128	3.55653e+02	1.12800e+03	2.34014	354.0
1130	3.56641e+02	1.13000e+03	2.31569	355.0
1132	3.57639e+02	1.13200e+03	2.28988	356.0
1134	3.58672e+02	1.13400e+03	2.26327	357.0
1136	3.59637e+02	1.13600e+03	2.2353	358.0
1138	3.60654e+02	1.13800e+03	2.20654	359.0
1140	3.61631e+02	1.14000e+03	2.17648	360.0
1142	3.62634e+02	1.14200e+03	2.14569	361.0
1144	3.63635e+02	1.14400e+03	2.11373	362.0
1146	3.64647e+02	1.14600e+03	2.0811	363.0
1148	3.65648e+02	1.14800e+03	2.04734	364.0
1150	3.66622e+02	1.15000e+03	2.01287	365.0
1152	3.67577e+02	1.15200e+03	1.97723	366.0
1154	3.68562e+02	1.15400e+03	1.94094	367.0
1156	3.69543e+02	1.15600e+03	1.90355	368.0
1158	3.70492e+02	1.15800e+03	1.86555	369.0
1160	3.71443e+02	1.16000e+03	1.8265	370.0
1162	3.72410e+02	1.16200e+03	1.78686	371.0
1164	3.73382e+02	1.16400e+03	1.74621	372.0
1166	3.74361e+02	1.16600e+03	1.70501	373.0
1168	3.75341e+02	1.16800e+03	1.66284	374.0
1170	3.76309e+02	1.17000e+03	1.62019	375.0
1172	3.77275e+02	1.17200e+03	1.57678	376.0
1174	3.78275e+02	1.17400e+03	1.53302	377.0
1176	3.79267e+02	1.17600e+03	1.48868	378.0
1178	3.80244e+02	1.17800e+03	1.44408	379.0
1180	3.81228e+02	1.18000e+03	1.39914	380.0
1182	3.82196e+02	1.18200e+03	1.35417	381.0
1184	3.83163e+02	1.18400e+03	1.30906	382.0
1186	3.84132e+02	1.18600e+03	1.26378	383.0
1188	3.85107e+02	1.18800e+03	1.21831	384.0
1190	3.86051e+02	1.19000e+03	1.17287	385.0
1192	3.87052e+02	1.19200e+03	1.12755	386.0
1194	3.88011e+02	1.19400e+03	1.08247	387.0
1196	3.88975e+02	1.19600e+03	1.03779	388.0
1198	3.89973e+02	1.19800e+03	0.993369	389.0
1200	3.90953e+02	1.20000e+03	0.949332	390.0
1202	3.91935e+02	1.20200e+03	0.905438	391.0
1204	3.92922e+02	1.20400e+03	0.861822	392.0
1206	3.93947e+02	1.20600e+03	0.818433	393.0
1208	3.94913e+02	1.20800e+03	0.775522	394.0
1210	3.95877e+02	1.21000e+03	0.733084	395.0
1212	3.96860e+02	1.21200e+03	0.691572	396.0
1214	3.97846e+02	1.21400e+03	0.650847	397.0
1216	3.98836e+02	1.21600e+03	0.611536	398.0
1218	3.99856e+02	1.21800e+03	0.573217	399.0
1220	4.00869e+02	1.22000e+03	0.536568	400.0
1222	4.01908e+02	1.22200e+03	0.500954	401.0
1224	4.02917e+02	1.22400e+03	0.467145	402.0
1226	4.03938e+02	1.22600e+03	0.43452	403.0
1228	4.04948e+02	1.22800e+03	0.403903	404.0
1230	4.05974e+02	1.23000e+03	0.374481	405.0
1232	4.06971e+02	1.23200e+03	0.347089	406.0
1234	4.08010e+02	1.23400e+03	0.320887	407.0
1236	4.09030e+02	1.23600e+03	0.296671	408.0
1238	4.10061e+02	1.23800e+03	0.273546	409.0
1240	4.11091e+02	1.24000e+03	0.25225	410.0
1242	4.12100e+02	1.24200e+03	0.231971	411.0
1244	4.13153e+02	1.24400e+03	0.2134	412.0
1246	4.14196e+02	1.24600e+03	0.195779	413.0
1248	4.15210e+02	1.24800e+03	0.17974	414.0
1250	4.16235e+02	1.25000e+03	0.16457	415.0
1252	4.17232e+02	1.25200e+03	0.15085	416.0
1254	4.18215e+02	1.25400e+03	0.137918	417.0
1256	4.19203e+02	1.25600e+03	0.126284	418.0
1258	4.20200e+02	1.25800e+03	0.11535	419.0
1260	4.21202e+02	1.26000e+03	0.105597	420.0
1262	4.22193e+02	1.26200e+03	0.0965158	421.0
1264	4.23183e+02	1.26400e+03	0.0885294	422.0
1266	4.24196e+02	1.26600e+03	0.0811197	423.0
1268	4.25218e+02	1.26800e+03	0.0746677	424.0
1270	4.26214e+02	1.27000e+03	0.0687268	425.0
1272	4.27246e+02	1.27200e+03	0.0636036	426.0
1274	4.28230e+02	1.27400e+03	0.0588799	427.0
1276	4.29219e+02	1.27600e+03	0.0548291	428.0
1278	4.30212e+02	1.27800e+03	0.051141	429.0
1280	4.31211e+02	1.28000e+03	0.0480141	430.0
1282	4.32227e+02	1.28200e+03	0.045123	431.0
1284	4.33210e+02	1.28400e+03	0.0426172	432.0
1286	4.34211e+02	1.28600e+03	0.0403123	433.0
1288	4.35216e+02	1.28800e+03	0.0383413	434.0
1290	4.36188e+02	1.29000e+03	0.0365415	435.0
1292	4.37169e+02	1.29200e+03	0.0350289	436.0
1294	4.38144e+02	1.29400e+03	0.0336654	437.0
1296	4.39128e+02	1.29600e+03	0.0325371	438.0
1298	4.40098e+02	1.29800e+03	0.0315097	439.0
1300	4.41094e+02	1.30000e+03	0.0306497	440.0
1302	4.42083e+02	1.30200e+03	0.0298773	441.0
1304	4.43070e+02	1.30400e+03	0.0292444	442.0
1306	4.44061e+02	1.30600e+03	0.0286668	443.0
1308	4.45059e+02	1.30800e+03	0.0281792	444.0
1310	4.46043e+02	1.31000e+03	0.0277277	445.0
1312	4.47036e+02	1.31200e+03	0.0273398	446.0
1314	4.48041e+02	1.31400e+03	0.0269802	447.0
1316	4.49000e+02	1.31600e+03	0.0266578	448.0
1318	4.49991e+02	1.31800e+03	0.0263406	449.0
1320	4.50973e+02	1.32000e+03	0.0260506	450.0
1322	4.51979e+02	1.32200e+03	0.0257959	451.0
1324	4.52964e+02	1.32400e+03	0.0255982	452.0
1326	4.53939e+02	1.32600e+03	0.025442	453.0
1328	4.54910e+02	1.32800e+03	0.0253477	454.0
1330	4.55891e+02	1.33000e+03	0.0252663	455.0
1332	4.56838e+02	1.33200e+03	0.0251979	456.0
1334	4.57768e+02	1.33400e+03	0.0251316	457.0
1336	4.58689e+02	1.33600e+03	0.0250739	458.0
1338	4.59644e+02	1.33800e+03	0.0250179	459.0
1340	4.60623e+02	1.34000e+03	0.0249538	460.0
1342	4.61576e+02	1.34200e+03	0.0248742	461.0
1344	4.62561e+02	1.34400e+03	0.024788	462.0
1346	4.63537e+02	1.34600e+03	0.0247217	463.0
1348	4.64524e+02	1.34800e+03	0.0246793	464.0
1350	4.65492e+02	1.35000e+03	0.0246478	465.0
1352	4.66457e+02	1.35200e+03	0.0246501	466.0
1354	4.67443e+02	1.35400e+03	0.0246841	467.0
1356	4.68406e+02	1.35600e+03	0.0247459	468.0
1358	4.69390e+02	1.35800e+03	0.0247906	469.0
1360	4.70362e+02	1.36000e+03	0.0248147	470.0
1362	4.71341e+02	1.36200e+03	0.0248296	471.0
1364	4.72309e+02	1.36400e+03	0.0248209	472.0
1366	4.73299e+02	1.36600e+03	0.0247908	473.0
1368	4.74269e+02	1.36800e+03	0.024741	474.0
1370	4.75247e+02	1.37000e+03	0.0246979	475.0
1372	4.76221e+02	1.37200e+03	0.0246602	476.0
1374	4.77217e+02	1.37400e+03	0.0246177	477.0
1376	4.78192e+02	1.37600e+03	0.0245774	478.0
1378	4.79166e+02	1.37800e+03	0.0245517	479.0
1380	4.80164e+02	1.38000e+03	0.0245381	480.0
1382	4.81145e+02	1.38200e+03	0.0245139	481.0
1384	4.82123e+02	1.38400e+03	0.0244851	482.0
1386	4.83097e+02	1.38600e+03	0.0244768	483.0
1388	4.84089e+02	1.38800e+03	0.0244933	484.0
1390	4.85082e+02	1.39000e+03	0.0244998	485.0
1392	4.86059e+02	1.39200e+03	0.0244871	486.0
1394	4.87029e+02	1.39400e+03	0.0244585	487.0
1396	4.88030e+02	1.39600e+03	0.0244145	488.0
1398	4.89011e+02	1.39800e+03	0.0243711	489.0
1400	4.89992e+02	1.40000e+03	0.0243313	490.0
1402	4.90975e+02	1.40200e+03	0.0243049	491.0
1404	4.91957e+02	1.40400e+03	0.0243008	492.0
1406	4.92936e+02	1.40600e+03	0.0243018	493.0
1408	4.93920e+02	1.40800e+03	0.0243026	494.0
1410	4.94904e+02	1.41000e+03	0.0242936	495.0
1412	4.95890e+02	1.41200e+03	0.0242833	496.0
1414	4.96864e+02	1.41400e+03	0.0242847	497.0
1416	4.97854e+02	1.41600e+03	0.0242933	498.0
1418	4.98831e+02	1.41800e+03	0.0242973	499.0
1420	4.99813e+02	1.42000e+03	0.0243008	500.0
1422	5.00786e+02	1.42200e+03	0.0243086	501.0
1424	5.01755e+02	1.42400e+03	0.0243072	502.0
1426	5.02722e+02	1.42600e+03	0.0242843	503.0
1428	5.03705e+02	1.42800e+03	0.0242395	504.0
1430	5.04677e+02	1.43000e+03	0.0242084	505.0
1432	5.05655e+02	1.43200e+03	0.0241885	506.0
1434	5.06627e+02	1.43400e+03	0.0241656	507.0
1436	5.07613e+02	1.43600e+03	0.0241477	508.0
1438	5.08585e+02	1.43800e+03	0.0241425	509.0
1440	5.09576e+02	1.44000e+03	0.0241506	510.0
1442	5.10555e+02	1.44200e+03	0.0241588	511.0
1444	5.11535e+02	1.44400e+03	0.0241753	512.0
1446	5.12521e+02	1.44600e+03	0.0242064	513.0
1448	5.13504e+02	1.44800e+03	0.0242509	514.0
1450	5.14488e+02	1.45000e+03	0.0242865	515.0
1452	5.15479e+02	1.45200e+03	0.0243108	516.0
1454	5.16471e+02	1.45400e+03	0.0243306	517.0
1456	5.17475e+02	1.45600e+03	0.0243322	518.0
1458	5.18468e+02	1.45800e+03	0.0243053	519.0
1460	5.19458e+02	1.46000e+03	0.0242409	520.0
1462	5.20453e+02	1.46200e+03	0.0241804	521.0
1464	5.21460e+02	1.46400e+03	0.0241354	522.0
1466	5.22447e+02	1.46600e+03	0.0241176	523.0
1468	5.23433e+02	1.46800e+03	0.0241451	524.0
1470	5.24429e+02	1.47000e+03	0.0241923	525.0
1472	5.25414e+02	1.47200e+03	0.0242569	526.0
1474	5.26402e+02	1.47400e+03	0.0242916	527.0
1476	5.27391e+02	1.47600e+03	0.0242834	528.0
1478	5.28380e+02	1.47800e+03	0.0242687	529.0
1480	5.29366e+02	1.48000e+03	0.0242527	530.0
1482	5.30353e+02	1.48200e+03	0.0242422	531.0
1484	5.31352e+02	1.48400e+03	0.02423	532.0
1486	5.32325e+02	1.48600e+03	0.0242096	533.0
1488	5.33312e+02	1.48800e+03	0.0241839	534.0
1490	5.34313e+02	1.49000e+03	0.0241634	535.0
1492	5.35323e+02	1.49200e+03	0.0241408	536.0
1494	5.36327e+02	1.49400e+03	0.0241135	537.0
1496	5.37318e+02	1.49600e+03	0.0240859	538.0
1498	5.38343e+02	1.49800e+03	0.0240681	539.0
1500	5.39333e+02	1.50000e+03	0.0240658	540.0
1502	5.40331e+02	1.50200e+03	0.0240716	541.0
1504	5.41317e+02	1.50400e+03	0.0240864	542.0
1506	5.42311e+02	1.50600e+03	0.024088	543.0
1508	5.43311e+02	1.50800e+03	0.0240537	544.0
1510	5.44303e+02	1.51000e+03	0.0239939	545.0
1512	5.45315e+02	1.51200e+03	0.0239227	546.0
1514	5.46316e+02	1.51400e+03	0.0238826	547.0
1516	5.47338e+02	1.51600e+03	0.0238773	548.0
1518	5.48365e+02	1.51800e+03	0.0238718	549.0
1520	5.49368e+02	1.52000e+03	0.023881	550.0
1522	5.50364e+02	1.52200e+03	0.0239052	551.0
1524	5.51384e+02	1.52400e+03	0.0239361	552.0
1526	5.52443e+02	1.52600e+03	0.0239543	553.0
1528	5.53554e+02	1.52800e+03	0.023958	554.0
1530	5.54804e+02	1.53000e+03	0.0239665	555.0
1532	5.55623e+02	1.53200e+03	0.0239721	556.0
1534	5.56493e+02	1.53400e+03	0.02397	557.0
1536	5.57443e+02	1.53600e+03	0.0239708	558.0
1538	5.58417e+02	1.53800e+03	0.0239911	559.0
1540	5.59404e+02	1.54000e+03	0.0240276	560.0
1542	5.60411e+02	1.54200e+03	0.024047	561.0
1544	5.61387e+02	1.54400e+03	0.0240393	562.0
1546	5.62361e+02	1.54600e+03	0.0240147	563.0
1548	5.63336e+02	1.54800e+03	0.0239643	564.0
1550	5.64327e+02	1.55000e+03	0.0239059	565.0
1552	5.65304e+02	1.55200e+03	0.0238476	566.0
1554	5.66287e+02	1.55400e+03	0.0238203	567.0
1556	5.67270e+02	1.55600e+03	0.0238388	568.0
1558	5.68255e+02	1.55800e+03	0.0238637	569.0
1560	5.69232e+02	1.56000e+03	0.0238951	570.0
1562	5.70215e+02	1.56200e+03	0.0239221	571.0
1564	5.71208e+02	1.56400e+03	0.0239419	572.0
1566	5.72202e+02	1.56600e+03	0.0239558	573.0
1568	5.73186e+02	1.56800e+03	0.0239593	574.0
1570	5.74175e+02	1.57000e+03	0.0239621	575.0
1572	5.75169e+02	1.57200e+03	0.0239638	576.0
1574	5.76157e+02	1.57400e+03	0.0239603	577.0
1576	5.77163e+02	1.57600e+03	0.0239462	578.0
1578	5.78147e+02	1.57800e+03	0.0239326	579.0
1580	5.79142e+02	1.58000e+03	0.023925	580.0
1582	5.80133e+02	1.58200e+03	0.023928	581.0
1584	5.81120e+02	1.58400e+03	0.0239361	582.0
1586	5.82129e+02	1.58600e+03	0.0239365	583.0
1588	5.83129e+02	1.58800e+03	0.0239382	584.0
1590	5.84129e+02	1.59000e+03	0.0239556	585.0
1592	5.85121e+02	1.59200e+03	0.0239818	586.0
1594	5.86143e+02	1.59400e+03	0.023996	587.0
1596	5.87166e+02	1.59600e+03	0.0240004	588.0
1598	5.88186e+02	1.59800e+03	0.0240101	589.0
1600	5.89186e+02	1.60000e+03	0.024016	590.0
1602	5.90148e+02	1.60200e+03	0.0240102	591.0
1604	5.91137e+02	1.60400e+03	0.0239988	592.0
1606	5.92127e+02	1.60600e+03	0.0239923	593.0
1608	5.93162e+02	1.60800e+03	0.0239838	594.0
1610	5.94173e+02	1.61000e+03	0.0239662	595.0
1612	5.95183e+02	1.61200e+03	0.0239474	596.0
1614	5.96253e+02	1.61400e+03	0.0239427	597.0
1616	5.97388e+02	1.61600e+03	0.0239547	598.0
1618	5.98522e+02	1.61800e+03	0.0239636	599.0
1620	6.01836e+02	1.62000e+03	0.0239791	600.0
1622	6.02311e+02	1.62200e+03	0.0240002	601.0
1624	6.03156e+02	1.62400e+03	0.0240154	602.0
1626	6.04038e+02	1.62600e+03	0.0239982	603.0
1628	6.04952e+02	1.62800e+03	0.0239466	604.0
1630	6.05848e+02	1.63000e+03	0.0239017	605.0
1632	6.06783e+02	1.63200e+03	0.0238652	606.0
1634	6.07728e+02	1.63400e+03	0.0238242	607.0
1636	6.08686e+02	1.63600e+03	0.0237828	608.0
1638	6.09651e+02	1.63800e+03	0.0237518	609.0
1640	6.10622e+02	1.64000e+03	0.0237392	610.0
1642	6.11585e+02	1.64200e+03	0.0237349	611.0
1644	6.12555e+02	1.64400e+03	0.0237456	612.0
1646	6.13533e+02	1.64600e+03	0.0237728	613.0
1648	6.14497e+02	1.64800e+03	0.0238206	614.0
1650	6.15470e+02	1.65000e+03	0.0238632	615.0
1652	6.16428e+02	1.65200e+03	0.0238898	616.0
1654	6.17388e+02	1.65400e+03	0.0239081	617.0
1656	6.18347e+02	1.65600e+03	0.0239211	618.0
1658	6.19309e+02	1.65800e+03	0.0239439	619.0
1660	6.20274e+02	1.66000e+03	0.0239689	620.0
1662	6.21212e+02	1.66200e+03	0.0239818	621.0
1664	6.22168e+02	1.66400e+03	0.0239788	622.0
1666	6.23139e+02	1.66600e+03	0.0239685	623.0
1668	6.24110e+02	1.66800e+03	0.0239361	624.0
1670	6.25090e+02	1.67000e+03	0.0238981	625.0
1672	6.26064e+02	1.67200e+03	0.0238715	626.0
1674	6.27033e+02	1.67400e+03	0.0238711	627.0
1676	6.27985e+02	1.67600e+03	0.0238866	628.0
1678	6.28964e+02	1.67800e+03	0.0238685	629.0
1680	6.29932e+02	1.68000e+03	0.0238159	630.0
1682	6.30898e+02	1.68200e+03	0.0237793	631.0
1684	6.31857e+02	1.68400e+03	0.0237666	632.0
1686	6.32816e+02	1.68600e+03	0.0237753	633.0
1688	6.33742e+02	1.68800e+03	0.0238221	634.0
1690	6.34698e+02	1.69000e+03	0.0238805	635.0
1692	6.35652e+02	1.69200e+03	0.023939	636.0
1694	6.36607e+02	1.69400e+03	0.0239685	637.0
1696	6.37584e+02	1.69600e+03	0.0239648	638.0
1698	6.38559e+02	1.69800e+03	0.0239669	639.0
1700	6.39529e+02	1.70000e+03	0.0239705	640.0
1702	6.40504e+02	1.70200e+03	0.0239663	641.0
1704	6.41486e+02	1.70400e+03	0.0239576	642.0
1706	6.42451e+02	1.70600e+03	0.0239483	643.0
1708	6.43434e+02	1.70800e+03	0.0239332	644.0
1710	6.44405e+02	1.71000e+03	0.0239086	645.0
1712	6.45370e+02	1.71200e+03	0.0238861	646.0
1714	6.46334e+02	1.71400e+03	0.0238897	647.0
1716	6.47309e+02	1.71600e+03	0.0239251	648.0
1718	6.48266e+02	1.71800e+03	0.0239553	649.0
1720	6.49237e+02	1.72000e+03	0.0239737	650.0
1722	6.50202e+02	1.72200e+03	0.0239824	651.0
1724	6.51190e+02	1.72400e+03	0.0239685	652.0
1726	6.52159e+02	1.72600e+03	0.0239306	653.0
1728	6.53130e+02	1.72800e+03	0.023854	654.0
1730	6.54098e+02	1.73000e+03	0.0237829	655.0
1732	6.55074e+02	1.73200e+03	0.0237268	656.0
1734	6.56044e+02	1.73400e+03	0.0236867	657.0
1736	6.57010e+02	1.73600e+03	0.0236636	658.0
1738	6.57982e+02	1.73800e+03	0.0236433	659.0
1740	6.58965e+02	1.74000e+03	0.0236351	660.0
1742	6.59937e+02	1.74200e+03	0.0236416	661.0
1744	6.60917e+02	1.74400e+03	0.0236571	662.0
1746	6.61881e+02	1.74600e+03	0.0236667	663.0
1748	6.62866e+02	1.74800e+03	0.023669	664.0
1750	6.63849e+02	1.75000e+03	0.0236701	665.0
1752	6.64824e+02	1.75200e+03	0.0236675	666.0
1754	6.65805e+02	1.75400e+03	0.0236759	667.0
1756	6.66781e+02	1.75600e+03	0.0237109	668.0
1758	6.67753e+02	1.75800e+03	0.0237599	669.0
1760	6.68740e+02	1.76000e+03	0.0238083	670.0
1762	6.69719e+02	1.76200e+03	0.023831	671.0
1764	6.70701e+02	1.76400e+03	0.0238234	672.0
1766	6.71673e+02	1.76600e+03	0.0238199	673.0
1768	6.72648e+02	1.76800e+03	0.0238193	674.0
1770	6.73621e+02	1.77000e+03	0.0238214	675.0
1772	6.74605e+02	1.77200e+03	0.0238285	676.0
1774	6.75589e+02	1.77400e+03	0.0238333	677.0
1776	6.76541e+02	1.77600e+03	0.0238124	678.0
1778	6.77520e+02	1.77800e+03	0.0237564	679.0
1780	6.78501e+02	1.78000e+03	0.0236692	680.0
1782	6.79487e+02	1.78200e+03	0.0236106	681.0
1784	6.80457e+02	1.78400e+03	0.023584	682.0
1786	6.81432e+02	1.78600e+03	0.0235613	683.0
1788	6.82411e+02	1.78800e+03	0.0235527	684.0
1790	6.83391e+02	1.79000e+03	0.0235556	685.0
1792	6.84374e+02	1.79200e+03	0.0235634	686.0
1794	6.85364e+02	1.79400e+03	0.0235554	687.0
1796	6.85739e+02	1.79600e+03	0.0235514	688.0
1798	6.86377e+02	1.79800e+03	0.0235824	689.0
1800	6.87091e+02	1.80000e+03	0.023648	690.0
1802	6.87763e+02	1.80200e+03	0.0236891	691.0
1804	6.88384e+02	1.80400e+03	0.0236958	692.0
1806	6.88969e+02	1.80600e+03	0.0236992	693.0
1808	6.89511e+02	1.80800e+03	0.0236896	694.0
1810	6.90016e+02	1.81000e+03	0.0236683	695.0
1812	6.90521e+02	1.81200e+03	0.0236293	696.0
1814	6.90963e+02	1.81400e+03	0.0235895	697.0
1816	6.91367e+02	1.81600e+03	0.0235446	698.0
1818	6.91763e+02	1.81800e+03	0.0234899	699.0
1820	6.92141e+02	1.82000e+03	0.0234216	700.0
1822	6.92498e+02	1.82200e+03	0.0233594	700.0
1824	6.92834e+02	1.82400e+03	0.0233249	700.0
1826	6.93157e+02	1.82600e+03	0.0233148	700.0
1828	6.93451e+02	1.82800e+03	0.0233315	700.0
1830	6.93731e+02	1.83000e+03	0.0233373	700.0
1832	6.94006e+02	1.83200e+03	0.0233297	700.0
1834	6.94253e+02	1.83400e+03	0.0233019	700.0
1836	6.94493e+02	1.83600e+03	0.0232448	700.0
1838	6.94723e+02	1.83800e+03	0.0231972	700.0
1840	6.94935e+02	1.84000e+03	0.0231842	700.0
1842	6.95132e+02	1.84200e+03	0.0232184	700.0
1844	6.95325e+02	1.84400e+03	0.0233144	700.0
1846	6.95514e+02	1.84600e+03	0.0234106	700.0
1848	6.95681e+02	1.84800e+03	0.0235017	700.0
1850	6.95854e+02	1.85000e+03	0.0235708	700.0
1852	6.96003e+02	1.85200e+03	0.0235851	700.0
1854	6.96155e+02	1.85400e+03	0.0235673	700.0
1856	6.96280e+02	1.85600e+03	0.0235212	700.0
1858	6.96409e+02	1.85800e+03	0.0234952	700.0
1860	6.96529e+02	1.86000e+03	0.0234866	700.0
1862	6.96647e+02	1.86200e+03	0.0234643	700.0
1864	6.96753e+02	1.86400e+03	0.0234304	700.0
1866	6.96862e+02	1.86600e+03	0.0233983	700.0
1868	6.96962e+02	1.86800e+03	0.0233598	700.0
1870	6.97057e+02	1.87000e+03	0.0233048	700.0
1872	6.97157e+02	1.87200e+03	0.0232402	700.0
1874	6.97236e+02	1.87400e+03	0.0231906	700.0
1876	6.97317e+02	1.87600e+03	0.0231659	700.0
1878	6.97392e+02	1.87800e+03	0.0231513	700.0
1880	6.97478e+02	1.88000e+03	0.0231589	700.0
1882	6.97550e+02	1.88200e+03	0.0232018	700.0
1884	6.97634e+02	1.88400e+03	0.0232935	700.0
1886	6.97687e+02	1.88600e+03	0.0233844	700.0
1888	6.97765e+02	1.88800e+03	0.0234576	700.0
1890	6.97832e+02	1.89000e+03	0.0234949	700.0
1892	6.97885e+02	1.89200e+03	0.0234891	700.0
1894	6.97926e+02	1.89400e+03	0.0234653	700.0
1896	6.97979e+02	1.89600e+03	0.023416	700.0
1898	6.98036e+02	1.89800e+03	0.0233644	700.0
1900	6.98074e+02	1.90000e+03	0.0233115	700.0
1902	6.98112e+02	1.90200e+03	0.0232617	700.0
1904	6.98171e+02	1.90400e+03	0.0232255	700.0
1906	6.98209e+02	1.90600e+03	0.0232064	700.0
1908	6.98250e+02	1.90800e+03	0.0232127	700.0
1910	6.98282e+02	1.91000e+03	0.023228	700.0
1912	6.98322e+02	1.91200e+03	0.023249	700.0
1914	6.98349e+02	1.91400e+03	0.0232667	700.0
1916	6.98383e+02	1.91600e+03	0.0232901	700.0
1918	6.98402e+02	1.91800e+03	0.0233253	700.0
1920	6.98446e+02	1.92000e+03	0.0233713	700.0
1922	6.98474e+02	1.92200e+03	0.0234094	700.0
1924	6.98497e+02	1.92400e+03	0.02344	700.0
1926	6.98522e+02	1.92600e+03	0.023474	700.0
1928	6.98562e+02	1.92800e+03	0.0235091	700.0
1930	6.98573e+02	1.93000e+03	0.0235267	700.0
1932	6.98593e+02	1.93200e+03	0.0235189	700.0
1934	6.98618e+02	1.93400e+03	0.0235074	700.0
1936	6.98646e+02	1.93600e+03	0.0234897	700.0
1938	6.98651e+02	1.93800e+03	0.0234858	700.0
1940	6.98681e+02	1.94000e+03	0.0234903	700.0
1942	6.98698e+02	1.94200e+03	0.0234829	700.0
1944	6.98702e+02	1.94400e+03	0.0234653	700.0
1946	6.98720e+02	1.94600e+03	0.0234577	700.0
1948	6.98748e+02	1.94800e+03	0.0234548	700.0
1950	6.98743e+02	1.95000e+03	0.0234534	700.0
1952	6.98773e+02	1.95200e+03	0.0234444	700.0
1954	6.98785e+02	1.95400e+03	0.0234272	700.0
1956	6.98797e+02	1.95600e+03	0.0234	700.0
1958	6.98810e+02	1.95800e+03	0.0233791	700.0
1960	6.98820e+02	1.96000e+03	0.0233809	700.0
1962	6.98828e+02	1.96200e+03	0.0234184	700.0
1964	6.98844e+02	1.96400e+03	0.0234935	700.0
1966	6.98846e+02	1.96600e+03	0.0235573	700.0
1968	6.98865e+02	1.96800e+03	0.0235983	700.0
1970	6.98880e+02	1.97000e+03	0.0236237	700.0
1972	6.98879e+02	1.97200e+03	0.0236333	700.0
1974	6.98891e+02	1.97400e+03	0.0236318	700.0
1976	6.98900e+02	1.97600e+03	0.0236072	700.0
1978	6.98917e+02	1.97800e+03	0.0235733	700.0
1980	6.98911e+02	1.98000e+03	0.0235294	700.0
1982	6.98923e+02	1.98200e+03	0.0234853	700.0
1984	6.98927e+02	1.98400e+03	0.023449	700.0
1986	6.98932e+02	1.98600e+03	0.0234222	700.0
1988	6.98932e+02	1.98800e+03	0.0234108	700.0
1990	6.98956e+02	1.99000e+03	0.023407	700.0
1992	6.98953e+02	1.99200e+03	0.0234098	700.0
1994	6.98970e+02	1.99400e+03	0.0234061	700.0
1996	6.98976e+02	1.99600e+03	0.0234028	700.0
1998	6.98974e+02	1.99800e+03	0.0234011	700.0
2000	6.98971e+02	2.00000e+03	0.0234036	700.0
2002	6.98983e+02	2.00200e+03	0.023407	700.0
2004	6.98997e+02	2.00400e+03	0.023409	700.0
2006	6.98993e+02	2.00600e+03	0.0234018	700.0
2008	6.98990e+02	2.00800e+03	0.023372	700.0
2010	6.99000e+02	2.01000e+03	0.0233365	700.0
2012	6.99004e+02	2.01200e+03	0.0233087	700.0
2014	6.99003e+02	2.01400e+03	0.0233075	700.0
2016	6.99009e+02	2.01600e+03	0.0233446	700.0
2018	6.99003e+02	2.01800e+03	0.0233924	700.0
2020	6.99015e+02	2.02000e+03	0.0234611	700.0
2022	6.99011e+02	2.02200e+03	0.0235242	700.0
2024	6.99017e+02	2.02400e+03	0.023569	700.0
2026	6.99027e+02	2.02600e+03	0.0235852	700.0
2028	6.99021e+02	2.02800e+03	0.0235729	700.0
2030	6.99021e+02	2.03000e+03	0.0235745	700.0
2032	6.99027e+02	2.03200e+03	0.0235929	700.0
2034	6.99033e+02	2.03400e+03	0.0235988	700.0
2036	6.99027e+02	2.03600e+03	0.0235795	700.0
2038	6.99030e+02	2.03800e+03	0.0235468	700.0
2040	6.99024e+02	2.04000e+03	0.0234967	700.0
2042	6.99036e+02	2.04200e+03	0.0234548	700.0
2044	6.99038e+02	2.04400e+03	0.0234278	700.0
2046	6.99034e+02	2.04600e+03	0.0234073	700.0
2048	6.99040e+02	2.04800e+03	0.0233992	700.0
2050	6.99041e+02	2.05000e+03	0.0233947	700.0
2052	6.99045e+02	2.05200e+03	0.0233962	700.0
2054	6.99045e+02	2.05400e+03	0.0234146	700.0
2056	6.99050e+02	2.05600e+03	0.0234507	700.0
2058	6.99047e+02	2.05800e+03	0.0234739	700.0
2060	6.99044e+02	2.06000e+03	0.0234749	700.0
2062	6.99054e+02	2.06200e+03	0.0234682	700.0
2064	6.99045e+02	2.06400e+03	0.0234506	700.0
2066	6.99048e+02	2.06600e+03	0.0234385	700.0
2068	6.99041e+02	2.06800e+03	0.0234358	700.0
2070	6.99053e+02	2.07000e+03	0.0234501	700.0
2072	6.99042e+02	2.07200e+03	0.0234914	700.0
2074	6.99054e+02	2.07400e+03	0.0235356	700.0
2076	6.99057e+02	2.07600e+03	0.0235784	700.0
2078	6.99053e+02	2.07800e+03	0.0235988	700.0
2080	6.99059e+02	2.08000e+03	0.0235809	700.0
2082	6.99056e+02	2.08200e+03	0.0235461	700.0
2084	6.99056e+02	2.08400e+03	0.0234907	700.0
2086	6.99046e+02	2.08600e+03	0.0234397	700.0
2088	6.99044e+02	2.08800e+03	0.0233985	700.0
2090	6.99051e+02	2.09000e+03	0.0233675	700.0
2092	6.99047e+02	2.09200e+03	0.0233513	700.0
2094	6.99054e+02	2.09400e+03	0.0233386	700.0
2096	6.99054e+02	2.09600e+03	0.0233281	700.0
2098	6.99049e+02	2.09800e+03	0.0233141	700.0
2100	6.99051e+02	2.10000e+03	0.0232954	700.0
2102	6.99054e+02	2.10200e+03	0.0232767	700.0
2104	6.99048e+02	2.10400e+03	0.0232598	700.0
2106	6.99048e+02	2.10600e+03	0.0232477	700.0
2108	6.99044e+02	2.10800e+03	0.0232454	700.0
2110	6.99045e+02	2.11000e+03	0.0232499	700.0
2112	6.99038e+02	2.11200e+03	0.0232629	700.0
2114	6.99048e+02	2.11400e+03	0.0232721	700.0
2116	6.99036e+02	2.11600e+03	0.0232702	700.0
2118	6.99034e+02	2.11800e+03	0.0232562	700.0
2120	6.99033e+02	2.12000e+03	0.0232345	700.0
2122	6.99034e+02	2.12200e+03	0.0232272	700.0
2124	6.99037e+02	2.12400e+03	0.0232382	700.0
2126	6.99033e+02	2.12600e+03	0.0232421	700.0
2128	6.99040e+02	2.12800e+03	0.0232346	700.0
2130	6.99031e+02	2.13000e+03	0.0232258	700.0
2132	6.99038e+02	2.13200e+03	0.0232127	700.0
2134	6.99038e+02	2.13400e+03	0.023196	700.0
2136	6.99041e+02	2.13600e+03	0.0231779	700.0
2138	6.99025e+02	2.13800e+03	0.0231618	700.0
2140	6.99033e+02	2.14000e+03	0.0231492	700.0
2142	6.99030e+02	2.14200e+03	0.0231392	700.0
2144	6.99037e+02	2.14400e+03	0.0231306	700.0
2146	6.99025e+02	2.14600e+03	0.0231184	700.0
2148	6.99025e+02	2.14800e+03	0.0231019	700.0
2150	6.99019e+02	2.15000e+03	0.0230882	700.0
2152	6.99016e+02	2.15200e+03	0.023082	700.0
2154	6.99019e+02	2.15400e+03	0.0230842	700.0
2156	6.99026e+02	2.15600e+03	0.0230978	700.0
2158	6.99015e+02	2.15800e+03	0.023116	700.0
2160	6.99011e+02	2.16000e+03	0.0231448	700.0
2162	6.99017e+02	2.16200e+03	0.0231896	700.0
2164	6.99018e+02	2.16400e+03	0.0232482	700.0
2166	6.99020e+02	2.16600e+03	0.0232941	700.0
2168	6.99004e+02	2.16800e+03	0.0233096	700.0
2170	6.99008e+02	2.17000e+03	0.0233023	700.0
2172	6.99009e+02	2.17200e+03	0.0232795	700.0
2174	6.99010e+02	2.17400e+03	0.0232644	700.0
2176	6.99001e+02	2.17600e+03	0.0232577	700.0
2178	6.99005e+02	2.17800e+03	0.0232378	700.0
2180	6.99002e+02	2.18000e+03	0.023193	700.0
2182	6.99004e+02	2.18200e+03	0.0231447	700.0
2184	6.99003e+02	2.18400e+03	0.0230961	700.0
2186	6.99005e+02	2.18600e+03	0.0230629	700.0
2188	6.99010e+02	2.18800e+03	0.0230639	700.0
2190	6.99001e+02	2.19000e+03	0.0230779	700.0
2192	6.99000e+02	2.19200e+03	0.0231102	700.0
2194	6.98998e+02	2.19400e+03	0.0231401	700.0
2196	6.98993e+02	2.19600e+03	0.0231633	700.0
2198	6.98999e+02	2.19800e+03	0.023178	700.0
2200	6.98993e+02	2.20000e+03	0.0231785	700.0
2202	6.99007e+02	2.20200e+03	0.0231722	700.0
2204	6.98994e+02	2.20400e+03	0.0231633	700.0
2206	6.98998e+02	2.20600e+03	0.0231719	700.0
2208	6.98995e+02	2.20800e+03	0.0231974	700.0
2210	6.98989e+02	2.21000e+03	0.0232232	700.0
2212	6.98997e+02	2.21200e+03	0.0232463	700.0
2214	6.98995e+02	2.21400e+03	0.0232591	700.0
2216	6.98991e+02	2.21600e+03	0.0232526	700.0
2218	6.98989e+02	2.21800e+03	0.0232345	700.0
2220	6.98996e+02	2.22000e+03	0.0232036	700.0
2222	6.98983e+02	2.22200e+03	0.0231773	700.0
2224	6.98994e+02	2.22400e+03	0.0231586	700.0
2226	6.98987e+02	2.22600e+03	0.0231449	700.0
2228	6.98985e+02	2.22800e+03	0.0231375	700.0
2230	6.98973e+02	2.23000e+03	0.0231277	700.0
2232	6.98979e+02	2.23200e+03	0.0231107	700.0
2234	6.98990e+02	2.23400e+03	0.0230843	700.0
2236	6.98984e+02	2.23600e+03	0.0230429	700.0
2238	6.98979e+02	2.23800e+03	0.0230001	700.0
2240	6.98972e+02	2.24000e+03	0.0229631	700.0
2242	6.98970e+02	2.24200e+03	0.0229292	700.0
2244	6.98972e+02	2.24400e+03	0.022903	700.0
2246	6.98974e+02	2.24600e+03	0.0228792	700.0
2248	6.98978e+02	2.24800e+03	0.0228603	700.0
2250	6.98971e+02	2.25000e+03	0.0228393	700.0
2252	6.98973e+02	2.25200e+03	0.0228182	700.0
2254	6.98955e+02	2.25400e+03	0.0228031	700.0
2256	6.98960e+02	2.25600e+03	0.0227929	700.0
2258	6.98955e+02	2.25800e+03	0.0227827	700.0
2260	6.98963e+02	2.26000e+03	0.0227723	700.0
2262	6.98957e+02	2.26200e+03	0.0227642	700.0
2264	6.98963e+02	2.26400e+03	0.0227758	700.0
2266	6.98949e+02	2.26600e+03	0.0228085	700.0
2268	6.98942e+02	2.26800e+03	0.0228584	700.0
2270	6.98955e+02	2.27000e+03	0.0228959	700.0
2272	6.98952e+02	2.27200e+03	0.0229252	700.0
2274	6.98962e+02	2.27400e+03	0.0229584	700.0
2276	6.98947e+02	2.27600e+03	0.0229897	700.0
2278	6.98941e+02	2.27800e+03	0.0230076	700.0
2280	6.98938e+02	2.28000e+03	0.0230048	700.0
2282	6.98949e+02	2.28200e+03	0.0229948	700.0
2284	6.98939e+02	2.28400e+03	0.0229768	700.0
2286	6.98951e+02	2.28600e+03	0.0229709	700.0
2288	6.98938e+02	2.28800e+03	0.0229905	700.0
2290	6.98946e+02	2.29000e+03	0.0230181	700.0
2292	6.98931e+02	2.29200e+03	0.0230482	700.0
2294	6.98944e+02	2.29400e+03	0.0230618	700.0
2296	6.98947e+02	2.29600e+03	0.0230542	700.0
2298	6.98929e+02	2.29800e+03	0.0230468	700.0
2300	6.98934e+02	2.30000e+03	0.0230402	700.0
2302	6.98935e+02	2.30200e+03	0.0230353	700.0
2304	6.98935e+02	2.30400e+03	0.023033	700.0
2306	6.98937e+02	2.30600e+03	0.0230315	700.0
2308	6.98935e+02	2.30800e+03	0.0230326	700.0
2310	6.98934e+02	2.31000e+03	0.0230425	700.0
2312	6.98923e+02	2.31200e+03	0.0230708	700.0
2314	6.98926e+02	2.31400e+03	0.0230969	700.0
2316	6.98927e+02	2.31600e+03	0.0231143	700.0
2318	6.98930e+02	2.31800e+03	0.0231053	700.0
2320	6.98924e+02	2.32000e+03	0.0230573	700.0
2322	6.98919e+02	2.32200e+03	0.0230178	700.0
2324	6.98925e+02	2.32400e+03	0.0229885	700.0
2326	6.98920e+02	2.32600e+03	0.0229663	700.0
2328	6.98918e+02	2.32800e+03	0.022956	700.0
2330	6.98922e+02	2.33000e+03	0.0229471	700.0
2332	6.98928e+02	2.33200e+03	0.0229403	700.0
2334	6.98913e+02	2.33400e+03	0.0229347	700.0
2336	6.98924e+02	2.33600e+03	0.0229284	700.0
2338	6.98920e+02	2.33800e+03	0.022918	700.0
2340	6.98919e+02	2.34000e+03	0.0229011	700.0
2342	6.98905e+02	2.34200e+03	0.0228797	700.0
2344	6.98915e+02	2.34400e+03	0.0228456	700.0
2346	6.98912e+02	2.34600e+03	0.0228171	700.0
2348	6.98911e+02	2.34800e+03	0.0228162	700.0
2350	6.98909e+02	2.35000e+03	0.0228567	700.0
2352	6.98911e+02	2.35200e+03	0.0229445	700.0
2354	6.98905e+02	2.35400e+03	0.0230122	700.0
2356	6.98893e+02	2.35600e+03	0.0230456	700.0
2358	6.98896e+02	2.35800e+03	0.0230535	700.0
2360	6.98902e+02	2.36000e+03	0.0230273	700.0
2362	6.98900e+02	2.36200e+03	0.0229986	700.0
2364	6.98900e+02	2.36400e+03	0.0229663	700.0
2366	6.98890e+02	2.36600e+03	0.0229355	700.0
2368	6.98906e+02	2.36800e+03	0.0229105	700.0
2370	6.98900e+02	2.37000e+03	0.0228966	700.0
2372	6.98903e+02	2.37200e+03	0.0229028	700.0
2374	6.98888e+02	2.37400e+03	0.0229207	700.0
2376	6.98900e+02	2.37600e+03	0.0229493	700.0
2378	6.98894e+02	2.37800e+03	0.0229537	700.0
2380	6.98900e+02	2.38000e+03	0.0229365	700.0
2382	6.98887e+02	2.38200e+03	0.0229274	700.0
2384	6.98893e+02	2.38400e+03	0.0229186	700.0
2386	6.98891e+02	2.38600e+03	0.0229033	700.0
2388	6.98891e+02	2.38800e+03	0.0228823	700.0
2390	6.98888e+02	2.39000e+03	0.0228641	700.0
2392	6.98889e+02	2.39200e+03	0.0228504	700.0
2394	6.98886e+02	2.39400e+03	0.0228404	700.0
2396	6.98898e+02	2.39600e+03	0.0228354	700.0
2398	6.98884e+02	2.39800e+03	0.022829	700.0
2400	6.98878e+02	2.40000e+03	0.0228186	700.0
2402	6.98890e+02	2.40200e+03	0.0228023	700.0
2404	6.98881e+02	2.40400e+03	0.0227758	700.0
2406	6.98882e+02	2.40600e+03	0.0227513	700.0
2408	6.98870e+02	2.40800e+03	0.022734	700.0
2410	6.98876e+02	2.41000e+03	0.0227211	700.0
2412	6.98874e+02	2.41200e+03	0.0227227	700.0
2414	6.98888e+02	2.41400e+03	0.022744	700.0
2416	6.98883e+02	2.41600e+03	0.0228029	700.0
2418	6.98873e+02	2.41800e+03	0.022873	700.0
2420	6.98879e+02	2.42000e+03	0.0229487	700.0
2422	6.98872e+02	2.42200e+03	0.0229915	700.0
2424	6.98877e+02	2.42400e+03	0.0229906	700.0
2426	6.98879e+02	2.42600e+03	0.022975	700.0
2428	6.98874e+02	2.42800e+03	0.022942	700.0
2430	6.98875e+02	2.43000e+03	0.022915	700.0
2432	6.98877e+02	2.43200e+03	0.0229097	700.0
2434	6.98870e+02	2.43400e+03	0.0229319	700.0
2436	6.98868e+02	2.43600e+03	0.0229681	700.0
2438	6.98868e+02	2.43800e+03	0.0229713	700.0
2440	6.98868e+02	2.44000e+03	0.0229297	700.0
2442	6.98863e+02	2.44200e+03	0.0228855	700.0
2444	6.98872e+02	2.44400e+03	0.0228423	700.0
2446	6.98872e+02	2.44600e+03	0.0228219	700.0
2448	6.98864e+02	2.44800e+03	0.0228455	700.0
2450	6.98875e+02	2.45000e+03	0.0228997	700.0
2452	6.98869e+02	2.45200e+03	0.0229793	700.0
2454	6.98877e+02	2.45400e+03	0.0230415	700.0
2456	6.98868e+02	2.45600e+03	0.0230748	700.0
2458	6.98862e+02	2.45800e+03	0.0230939	700.0
2460	6.98861e+02	2.46000e+03	0.0230885	700.0
2462	6.98872e+02	2.46200e+03	0.0230683	700.0
2464	6.98874e+02	2.46400e+03	0.0230366	700.0
2466	6.98870e+02	2.46600e+03	0.0230066	700.0
2468	6.98860e+02	2.46800e+03	0.0229764	700.0
2470	6.98862e+02	2.47000e+03	0.0229419	700.0
2472	6.98868e+02	2.47200e+03	0.0229091	700.0
2474	6.98867e+02	2.47400e+03	0.0228974	700.0
2476	6.98868e+02	2.47600e+03	0.0229063	700.0
2478	6.98868e+02	2.47800e+03	0.0229149	700.0
2480	6.98868e+02	2.48000e+03	0.0229226	700.0
2482	6.98862e+02	2.48200e+03	0.0229277	700.0
2484	6.98860e+02	2.48400e+03	0.022929	700.0
2486	6.98856e+02	2.48600e+03	0.0229314	700.0
2488	6.98861e+02	2.48800e+03	0.0229376	700.0
2490	6.98869e+02	2.49000e+03	0.0229532	700.0
2492	6.98876e+02	2.49200e+03	0.0229858	700.0
2494	6.98867e+02	2.49400e+03	0.0230147	700.0
2496	6.98868e+02	2.49600e+03	0.0230343	700.0
2498	6.98860e+02	2.49800e+03	0.0230365	700.0
2500	6.98850e+02	2.50000e+03	0.0230237	700.0
2502	6.98858e+02	2.50200e+03	0.0230105	700.0
2504	6.98857e+02	2.50400e+03	0.0229872	700.0
2506	6.98856e+02	2.50600e+03	0.0229396	700.0
2508	6.98853e+02	2.50800e+03	0.0228678	700.0
2510	6.98852e+02	2.51000e+03	0.0228027	700.0
2512	6.98854e+02	2.51200e+03	0.0227564	700.0
2514	6.98863e+02	2.51400e+03	0.0227356	700.0
2516	6.98859e+02	2.51600e+03	0.0227661	700.0
2518	6.98849e+02	2.51800e+03	0.0228206	700.0
2520	6.98846e+02	2.52000e+03	0.0229017	700.0
2522	6.98856e+02	2.52200e+03	0.0229687	700.0
2524	6.98844e+02	2.52400e+03	0.0230125	700.0
2526	6.98851e+02	2.52600e+03	0.0230496	700.0
2528	6.98848e+02	2.52800e+03	0.0230657	700.0
2530	6.98840e+02	2.53000e+03	0.0230663	700.0
2532	6.98854e+02	2.53200e+03	0.0230434	700.0
2534	6.98845e+02	2.53400e+03	0.0230106	700.0
2536	6.98844e+02	2.53600e+03	0.0229494	700.0
2538	6.98834e+02	2.53800e+03	0.0228681	700.0
2540	6.98848e+02	2.54000e+03	0.0227765	700.0
2542	6.98846e+02	2.54200e+03	0.0227086	700.0
2544	6.98848e+02	2.54400e+03	0.0226789	700.0
2546	6.98841e+02	2.54600e+03	0.0226696	700.0
2548	6.98833e+02	2.54800e+03	0.0227027	700.0
2550	6.98846e+02	2.55000e+03	0.0227567	700.0
2552	6.98844e+02	2.55200e+03	0.0228209	700.0
2554	6.98842e+02	2.55400e+03	0.0228589	700.0
2556	6.98846e+02	2.55600e+03	0.0228606	700.0
2558	6.98842e+02	2.55800e+03	0.0228586	700.0
2560	6.98839e+02	2.56000e+03	0.0228588	700.0
2562	6.98840e+02	2.56200e+03	0.0228572	700.0
2564	6.98827e+02	2.56400e+03	0.0228485	700.0
2566	6.98834e+02	2.56600e+03	0.0228389	700.0
2568	6.98830e+02	2.56800e+03	0.0228208	700.0
2570	6.98835e+02	2.57000e+03	0.0228015	700.0
2572	6.98823e+02	2.57200e+03	0.0227898	700.0
2574	6.98832e+02	2.57400e+03	0.0227969	700.0
2576	6.98836e+02	2.57600e+03	0.022832	700.0
2578	6.98829e+02	2.57800e+03	0.0228646	700.0
2580	6.98831e+02	2.58000e+03	0.0228905	700.0
2582	6.98837e+02	2.58200e+03	0.0228993	700.0
2584	6.98833e+02	2.58400e+03	0.0228812	700.0
2586	6.98833e+02	2.58600e+03	0.0228544	700.0
2588	6.98826e+02	2.58800e+03	0.0228213	700.0
2590	6.98840e+02	2.59000e+03	0.022799	700.0
2592	6.98831e+02	2.59200e+03	0.0227938	700.0
2594	6.98829e+02	2.59400e+03	0.0227957	700.0
2596	6.98839e+02	2.59600e+03	0.0228039	700.0
2598	6.98828e+02	2.59800e+03	0.0228079	700.0
2600	6.98831e+02	2.60000e+03	0.0228115	700.0
2602	6.98827e+02	2.60200e+03	0.0228111	700.0
2604	6.98824e+02	2.60400e+03	0.0228086	700.0
2606	6.98831e+02	2.60600e+03	0.022807	700.0
2608	6.98824e+02	2.60800e+03	0.0228072	700.0
2610	6.98831e+02	2.61000e+03	0.0228104	700.0
2612	6.98829e+02	2.61200e+03	0.0228168	700.0
2614	6.98835e+02	2.61400e+03	0.0228219	700.0
2616	6.98823e+02	2.61600e+03	0.0228294	700.0
2618	6.98832e+02	2.61800e+03	0.0228501	700.0
2620	6.98828e+02	2.62000e+03	0.0228789	700.0
2622	6.98823e+02	2.62200e+03	0.0228998	700.0
2624	6.98824e+02	2.62400e+03	0.0229065	700.0
2626	6.98825e+02	2.62600e+03	0.0229047	700.0
2628	6.98829e+02	2.62800e+03	0.0228945	700.0
2630	6.98823e+02	2.63000e+03	0.0228919	700.0
2632	6.98828e+02	2.63200e+03	0.0229026	700.0
2634	6.98819e+02	2.63400e+03	0.0229188	700.0
2636	6.98822e+02	2.63600e+03	0.0229378	700.0
2638	6.98813e+02	2.63800e+03	0.0229405	700.0
2640	6.98823e+02	2.64000e+03	0.0229223	700.0
2642	6.98826e+02	2.64200e+03	0.0229007	700.0
2644	6.98815e+02	2.64400e+03	0.0228688	700.0
2646	6.98805e+02	2.64600e+03	0.0228287	700.0
2648	6.98830e+02	2.64800e+03	0.0227894	700.0
2650	6.98815e+02	2.65000e+03	0.0227544	700.0
2652	6.98822e+02	2.65200e+03	0.0227301	700.0
2654	6.98817e+02	2.65400e+03	0.0227154	700.0
2656	6.98816e+02	2.65600e+03	0.0227183	700.0
2658	6.98818e+02	2.65800e+03	0.0227337	700.0
2660	6.98816e+02	2.66000e+03	0.0227627	700.0
2662	6.98818e+02	2.66200e+03	0.0227871	700.0
2664	6.98814e+02	2.66400e+03	0.0228024	700.0
2666	6.98810e+02	2.66600e+03	0.0228067	700.0
2668	6.98814e+02	2.66800e+03	0.0227926	700.0
2670	6.98815e+02	2.67000e+03	0.0227715	700.0
2672	6.98810e+02	2.67200e+03	0.0227529	700.0
2674	6.98819e+02	2.67400e+03	0.0227633	700.0
2676	6.98806e+02	2.67600e+03	0.0228115	700.0
2678	6.98815e+02	2.67800e+03	0.0228621	700.0
2680	6.98808e+02	2.68000e+03	0.0229187	700.0
2682	6.98813e+02	2.68200e+03	0.0229715	700.0
2684	6.98808e+02	2.68400e+03	0.0230108	700.0
2686	6.98804e+02	2.68600e+03	0.0230232	700.0
2688	6.98806e+02	2.68800e+03	0.0230052	700.0
2690	6.98806e+02	2.69000e+03	0.0229816	700.0
2692	6.98802e+02	2.69200e+03	0.022957	700.0
2694	6.98814e+02	2.69400e+03	0.0229477	700.0
2696	6.98799e+02	2.69600e+03	0.0229503	700.0
2698	6.98798e+02	2.69800e+03	0.022956	700.0
2700	6.98802e+02	2.70000e+03	0.0229726	700.0
2702	6.98806e+02	2.70200e+03	0.0229923	700.0
2704	6.98795e+02	2.70400e+03	0.0230126	700.0
2706	6.98806e+02	2.70600e+03	0.0230158	700.0
2708	6.98797e+02	2.70800e+03	0.0230016	700.0
2710	6.98803e+02	2.71000e+03	0.0229856	700.0
2712	6.98800e+02	2.71200e+03	0.0229669	700.0
2714	6.98798e+02	2.71400e+03	0.0229472	700.0
2716	6.98802e+02	2.71600e+03	0.0229308	700.0
2718	6.98802e+02	2.71800e+03	0.0229173	700.0
2720	6.98802e+02	2.72000e+03	0.0229078	700.0