File: Experiments/TUBS/tga_nonisotherm/tga_dynamic_n2_dyn5_piece_2mg_r1.txt
index	ts	t	weight	tr
[#]	[°C]	[s]	[mg]	[°C]
1083	1.31341e+02	1.08300e+03	1.98520e+00	1.30250e+02
1091	1.32010e+02	1.09100e+03	1.98515e+00	1.30917e+02
1099	1.32687e+02	1.09900e+03	1.98502e+00	1.31583e+02
1107	1.33367e+02	1.10700e+03	1.98499e+00	1.32250e+02
1115	1.34040e+02	1.11500e+03	1.98492e+00	1.32917e+02
1123	1.34710e+02	1.12300e+03	1.98498e+00	1.33583e+02
1131	1.35389e+02	1.13100e+03	1.98494e+00	1.34250e+02
1139	1.36060e+02	1.13900e+03	1.98492e+00	1.34917e+02
1147	1.36736e+02	1.14700e+03	1.98489e+00	1.35583e+02
1155	1.37405e+02	1.15500e+03	1.98485e+00	1.36250e+02
1163	1.38087e+02	1.16300e+03	1.98482e+00	1.36917e+02
1171	1.38754e+02	1.17100e+03	1.98483e+00	1.37583e+02
1179	1.39436e+02	1.17900e+03	1.98494e+00	1.38250e+02
1187	1.40105e+02	1.18700e+03	1.98482e+00	1.38917e+02
1195	1.40782e+02	1.19500e+03	1.98464e+00	1.39583e+02
1203	1.41455e+02	1.20300e+03	1.98468e+00	1.40250e+02
1211	1.42138e+02	1.21100e+03	1.98476e+00	1.40917e+02
1219	1.42819e+02	1.21900e+03	1.98474e+00	1.41583e+02
1227	1.43477e+02	1.22700e+03	1.98460e+00	1.42250e+02
1235	1.44158e+02	1.23500e+03	1.98442e+00	1.42917e+02
1243	1.44831e+02	1.24300e+03	1.98452e+00	1.43583e+02
1251	1.45512e+02	1.25100e+03	1.98457e+00	1.44250e+02
1259	1.46177e+02	1.25900e+03	1.98454e+00	1.44917e+02
1267	1.46859e+02	1.26700e+03	1.98445e+00	1.45583e+02
1275	1.47515e+02	1.27500e+03	1.98427e+00	1.46250e+02
1283	1.48210e+02	1.28300e+03	1.98426e+00	1.46917e+02
1291	1.48866e+02	1.29100e+03	1.98415e+00	1.47583e+02
1299	1.49557e+02	1.29900e+03	1.98417e+00	1.48250e+02
1307	1.50230e+02	1.30700e+03	1.98421e+00	1.48917e+02
1315	1.50895e+02	1.31500e+03	1.98414e+00	1.49583e+02
1323	1.51573e+02	1.32300e+03	1.98412e+00	1.50250e+02
1331	1.52244e+02	1.33100e+03	1.98412e+00	1.50917e+02
1339	1.52927e+02	1.33900e+03	1.98403e+00	1.51583e+02
1347	1.53588e+02	1.34700e+03	1.98398e+00	1.52250e+02
1355	1.54265e+02	1.35500e+03	1.98396e+00	1.52917e+02
1363	1.54951e+02	1.36300e+03	1.98396e+00	1.53583e+02
1371	1.55619e+02	1.37100e+03	1.98398e+00	1.54250e+02
1379	1.56295e+02	1.37900e+03	1.98385e+00	1.54917e+02
1387	1.56967e+02	1.38700e+03	1.98380e+00	1.55583e+02
1395	1.57638e+02	1.39500e+03	1.98376e+00	1.56250e+02
1403	1.58316e+02	1.40300e+03	1.98376e+00	1.56917e+02
1411	1.58994e+02	1.41100e+03	1.98384e+00	1.57583e+02
1419	1.59663e+02	1.41900e+03	1.98383e+00	1.58250e+02
1427	1.60332e+02	1.42700e+03	1.98378e+00	1.58917e+02
1435	1.61011e+02	1.43500e+03	1.98383e+00	1.59583e+02
1443	1.61672e+02	1.44300e+03	1.98373e+00	1.60250e+02
1451	1.62354e+02	1.45100e+03	1.98362e+00	1.60917e+02
1459	1.63030e+02	1.45900e+03	1.98339e+00	1.61583e+02
1467	1.63696e+02	1.46700e+03	1.98338e+00	1.62250e+02
1475	1.64366e+02	1.47500e+03	1.98336e+00	1.62917e+02
1483	1.65045e+02	1.48300e+03	1.98318e+00	1.63583e+02
1491	1.65701e+02	1.49100e+03	1.98323e+00	1.64250e+02
1499	1.66385e+02	1.49900e+03	1.98311e+00	1.64917e+02
1507	1.67055e+02	1.50700e+03	1.98286e+00	1.65583e+02
1515	1.67733e+02	1.51500e+03	1.98270e+00	1.66250e+02
1523	1.68397e+02	1.52300e+03	1.98256e+00	1.66917e+02
1531	1.69067e+02	1.53100e+03	1.98238e+00	1.67583e+02
1539	1.69744e+02	1.53900e+03	1.98220e+00	1.68250e+02
1547	1.70416e+02	1.54700e+03	1.98193e+00	1.68917e+02
1555	1.71092e+02	1.55500e+03	1.98170e+00	1.69583e+02
1563	1.71772e+02	1.56300e+03	1.98153e+00	1.70250e+02
1571	1.72428e+02	1.57100e+03	1.98133e+00	1.70917e+02
1579	1.73104e+02	1.57900e+03	1.98104e+00	1.71583e+02
1587	1.73783e+02	1.58700e+03	1.98061e+00	1.72250e+02
1595	1.74453e+02	1.59500e+03	1.98031e+00	1.72917e+02
1603	1.75119e+02	1.60300e+03	1.98006e+00	1.73583e+02
1611	1.75804e+02	1.61100e+03	1.97976e+00	1.74250e+02
1619	1.76476e+02	1.61900e+03	1.97934e+00	1.74917e+02
1627	1.77131e+02	1.62700e+03	1.97894e+00	1.75583e+02
1635	1.77803e+02	1.63500e+03	1.97857e+00	1.76250e+02
1643	1.78475e+02	1.64300e+03	1.97823e+00	1.76917e+02
1651	1.79150e+02	1.65100e+03	1.97797e+00	1.77583e+02
1659	1.79836e+02	1.65900e+03	1.97761e+00	1.78250e+02
1667	1.80493e+02	1.66700e+03	1.97716e+00	1.78917e+02
1675	1.81156e+02	1.67500e+03	1.97659e+00	1.79583e+02
1683	1.81816e+02	1.68300e+03	1.97608e+00	1.80250e+02
1691	1.82497e+02	1.69100e+03	1.97568e+00	1.80917e+02
1699	1.83157e+02	1.69900e+03	1.97525e+00	1.81583e+02
1707	1.83834e+02	1.70700e+03	1.97481e+00	1.82250e+02
1715	1.84502e+02	1.71500e+03	1.97425e+00	1.82917e+02
1723	1.85162e+02	1.72300e+03	1.97373e+00	1.83583e+02
1731	1.85822e+02	1.73100e+03	1.97306e+00	1.84250e+02
1739	1.86486e+02	1.73900e+03	1.97253e+00	1.84917e+02
1747	1.87134e+02	1.74700e+03	1.97209e+00	1.85583e+02
1755	1.87803e+02	1.75500e+03	1.97161e+00	1.86250e+02
1763	1.88468e+02	1.76300e+03	1.97115e+00	1.86917e+02
1771	1.89139e+02	1.77100e+03	1.97060e+00	1.87583e+02
1779	1.89804e+02	1.77900e+03	1.97003e+00	1.88250e+02
1787	1.90480e+02	1.78700e+03	1.96946e+00	1.88917e+02
1795	1.91158e+02	1.79500e+03	1.96890e+00	1.89583e+02
1803	1.91820e+02	1.80300e+03	1.96854e+00	1.90250e+02
1811	1.92496e+02	1.81100e+03	1.96791e+00	1.90917e+02
1819	1.93175e+02	1.81900e+03	1.96735e+00	1.91583e+02
1827	1.93836e+02	1.82700e+03	1.96694e+00	1.92250e+02
1835	1.94508e+02	1.83500e+03	1.96632e+00	1.92917e+02
1843	1.95168e+02	1.84300e+03	1.96582e+00	1.93583e+02
1851	1.95833e+02	1.85100e+03	1.96534e+00	1.94250e+02
1859	1.96520e+02	1.85900e+03	1.96476e+00	1.94917e+02
1867	1.97180e+02	1.86700e+03	1.96422e+00	1.95583e+02
1875	1.97850e+02	1.87500e+03	1.96361e+00	1.96250e+02
1883	1.98523e+02	1.88300e+03	1.96302e+00	1.96917e+02
1891	1.99203e+02	1.89100e+03	1.96248e+00	1.97583e+02
1899	1.99886e+02	1.89900e+03	1.96191e+00	1.98250e+02
1907	2.00576e+02	1.90700e+03	1.96130e+00	1.98917e+02
1915	2.01237e+02	1.91500e+03	1.96079e+00	1.99583e+02
1923	2.01917e+02	1.92300e+03	1.96037e+00	2.00250e+02
1931	2.02586e+02	1.93100e+03	1.95988e+00	2.00917e+02
1939	2.03267e+02	1.93900e+03	1.95924e+00	2.01583e+02
1947	2.03938e+02	1.94700e+03	1.95876e+00	2.02250e+02
1955	2.04623e+02	1.95500e+03	1.95825e+00	2.02917e+02
1963	2.05288e+02	1.96300e+03	1.95761e+00	2.03583e+02
1971	2.05958e+02	1.97100e+03	1.95702e+00	2.04250e+02
1979	2.06645e+02	1.97900e+03	1.95642e+00	2.04917e+02
1987	2.07306e+02	1.98700e+03	1.95581e+00	2.05583e+02
1995	2.07984e+02	1.99500e+03	1.95529e+00	2.06250e+02
2003	2.08636e+02	2.00300e+03	1.95481e+00	2.06917e+02
2011	2.09301e+02	2.01100e+03	1.95429e+00	2.07583e+02
2019	2.09973e+02	2.01900e+03	1.95372e+00	2.08250e+02
2027	2.10648e+02	2.02700e+03	1.95320e+00	2.08917e+02
2035	2.11319e+02	2.03500e+03	1.95271e+00	2.09583e+02
2043	2.11979e+02	2.04300e+03	1.95213e+00	2.10250e+02
2051	2.12648e+02	2.05100e+03	1.95157e+00	2.10917e+02
2059	2.13307e+02	2.05900e+03	1.95101e+00	2.11583e+02
2067	2.13993e+02	2.06700e+03	1.95043e+00	2.12250e+02
2075	2.14660e+02	2.07500e+03	1.94991e+00	2.12917e+02
2083	2.15332e+02	2.08300e+03	1.94945e+00	2.13583e+02
2091	2.15994e+02	2.09100e+03	1.94887e+00	2.14250e+02
2099	2.16672e+02	2.09900e+03	1.94818e+00	2.14917e+02
2107	2.17348e+02	2.10700e+03	1.94762e+00	2.15583e+02
2115	2.18006e+02	2.11500e+03	1.94716e+00	2.16250e+02
2123	2.18669e+02	2.12300e+03	1.94650e+00	2.16917e+02
2131	2.19343e+02	2.13100e+03	1.94592e+00	2.17583e+02
2139	2.20018e+02	2.13900e+03	1.94517e+00	2.18250e+02
2147	2.20688e+02	2.14700e+03	1.94467e+00	2.18917e+02
2155	2.21355e+02	2.15500e+03	1.94420e+00	2.19583e+02
2163	2.22032e+02	2.16300e+03	1.94353e+00	2.20250e+02
2171	2.22697e+02	2.17100e+03	1.94287e+00	2.20917e+02
2179	2.23364e+02	2.17900e+03	1.94233e+00	2.21583e+02
2187	2.24041e+02	2.18700e+03	1.94170e+00	2.22250e+02
2195	2.24700e+02	2.19500e+03	1.94119e+00	2.22917e+02
2203	2.25359e+02	2.20300e+03	1.94070e+00	2.23583e+02
2211	2.26045e+02	2.21100e+03	1.94007e+00	2.24250e+02
2219	2.26722e+02	2.21900e+03	1.93951e+00	2.24917e+02
2227	2.27392e+02	2.22700e+03	1.93895e+00	2.25583e+02
2235	2.28047e+02	2.23500e+03	1.93827e+00	2.26250e+02
2243	2.28725e+02	2.24300e+03	1.93758e+00	2.26917e+02
2251	2.29374e+02	2.25100e+03	1.93701e+00	2.27583e+02
2259	2.30061e+02	2.25900e+03	1.93653e+00	2.28250e+02
2267	2.30714e+02	2.26700e+03	1.93604e+00	2.28917e+02
2275	2.31388e+02	2.27500e+03	1.93540e+00	2.29583e+02
2283	2.32043e+02	2.28300e+03	1.93476e+00	2.30250e+02
2291	2.32729e+02	2.29100e+03	1.93422e+00	2.30917e+02
2299	2.33368e+02	2.29900e+03	1.93360e+00	2.31583e+02
2307	2.34017e+02	2.30700e+03	1.93291e+00	2.32250e+02
2315	2.34663e+02	2.31500e+03	1.93230e+00	2.32917e+02
2323	2.35330e+02	2.32300e+03	1.93176e+00	2.33583e+02
2331	2.35978e+02	2.33100e+03	1.93126e+00	2.34250e+02
2339	2.36647e+02	2.33900e+03	1.93059e+00	2.34917e+02
2347	2.37299e+02	2.34700e+03	1.92996e+00	2.35583e+02
2355	2.37977e+02	2.35500e+03	1.92941e+00	2.36250e+02
2363	2.38632e+02	2.36300e+03	1.92895e+00	2.36917e+02
2371	2.39295e+02	2.37100e+03	1.92834e+00	2.37583e+02
2379	2.39949e+02	2.37900e+03	1.92780e+00	2.38250e+02
2387	2.40604e+02	2.38700e+03	1.92723e+00	2.38917e+02
2395	2.41274e+02	2.39500e+03	1.92658e+00	2.39583e+02
2403	2.41946e+02	2.40300e+03	1.92601e+00	2.40250e+02
2411	2.42613e+02	2.41100e+03	1.92537e+00	2.40917e+02
2419	2.43283e+02	2.41900e+03	1.92485e+00	2.41583e+02
2427	2.43949e+02	2.42700e+03	1.92427e+00	2.42250e+02
2435	2.44602e+02	2.43500e+03	1.92360e+00	2.42917e+02
2443	2.45273e+02	2.44300e+03	1.92309e+00	2.43583e+02
2451	2.45930e+02	2.45100e+03	1.92259e+00	2.44250e+02
2459	2.46587e+02	2.45900e+03	1.92199e+00	2.44917e+02
2467	2.47245e+02	2.46700e+03	1.92133e+00	2.45583e+02
2475	2.47921e+02	2.47500e+03	1.92053e+00	2.46250e+02
2483	2.48587e+02	2.48300e+03	1.92000e+00	2.46917e+02
2491	2.49237e+02	2.49100e+03	1.91953e+00	2.47583e+02
2499	2.49894e+02	2.49900e+03	1.91901e+00	2.48250e+02
2507	2.50571e+02	2.50700e+03	1.91829e+00	2.48917e+02
2515	2.51233e+02	2.51500e+03	1.91770e+00	2.49583e+02
2523	2.51892e+02	2.52300e+03	1.91711e+00	2.50250e+02
2531	2.52548e+02	2.53100e+03	1.91656e+00	2.50917e+02
2539	2.53218e+02	2.53900e+03	1.91602e+00	2.51583e+02
2547	2.53872e+02	2.54700e+03	1.91534e+00	2.52250e+02
2555	2.54543e+02	2.55500e+03	1.91476e+00	2.52917e+02
2563	2.55204e+02	2.56300e+03	1.91416e+00	2.53583e+02
2571	2.55871e+02	2.57100e+03	1.91346e+00	2.54250e+02
2579	2.56530e+02	2.57900e+03	1.91284e+00	2.54917e+02
2587	2.57199e+02	2.58700e+03	1.91223e+00	2.55583e+02
2595	2.57853e+02	2.59500e+03	1.91165e+00	2.56250e+02
2603	2.58528e+02	2.60300e+03	1.91103e+00	2.56917e+02
2611	2.59187e+02	2.61100e+03	1.91034e+00	2.57583e+02
2619	2.59846e+02	2.61900e+03	1.90978e+00	2.58250e+02
2627	2.60523e+02	2.62700e+03	1.90911e+00	2.58917e+02
2635	2.61199e+02	2.63500e+03	1.90849e+00	2.59583e+02
2643	2.61871e+02	2.64300e+03	1.90798e+00	2.60250e+02
2651	2.62535e+02	2.65100e+03	1.90732e+00	2.60917e+02
2659	2.63198e+02	2.65900e+03	1.90658e+00	2.61583e+02
2667	2.63853e+02	2.66700e+03	1.90580e+00	2.62250e+02
2675	2.64525e+02	2.67500e+03	1.90524e+00	2.62917e+02
2683	2.65183e+02	2.68300e+03	1.90451e+00	2.63583e+02
2691	2.65849e+02	2.69100e+03	1.90377e+00	2.64250e+02
2699	2.66521e+02	2.69900e+03	1.90316e+00	2.64917e+02
2707	2.67180e+02	2.70700e+03	1.90250e+00	2.65583e+02
2715	2.67836e+02	2.71500e+03	1.90171e+00	2.66250e+02
2723	2.68503e+02	2.72300e+03	1.90095e+00	2.66917e+02
2731	2.69180e+02	2.73100e+03	1.90012e+00	2.67583e+02
2739	2.69832e+02	2.73900e+03	1.89930e+00	2.68250e+02
2747	2.70515e+02	2.74700e+03	1.89862e+00	2.68917e+02
2755	2.71191e+02	2.75500e+03	1.89802e+00	2.69583e+02
2763	2.71867e+02	2.76300e+03	1.89716e+00	2.70250e+02
2771	2.72529e+02	2.77100e+03	1.89632e+00	2.70917e+02
2779	2.73190e+02	2.77900e+03	1.89546e+00	2.71583e+02
2787	2.73869e+02	2.78700e+03	1.89469e+00	2.72250e+02
2795	2.74536e+02	2.79500e+03	1.89383e+00	2.72917e+02
2803	2.75219e+02	2.80300e+03	1.89299e+00	2.73583e+02
2811	2.75927e+02	2.81100e+03	1.89202e+00	2.74250e+02
2819	2.76593e+02	2.81900e+03	1.89111e+00	2.74917e+02
2827	2.77274e+02	2.82700e+03	1.89014e+00	2.75583e+02
2835	2.77944e+02	2.83500e+03	1.88919e+00	2.76250e+02
2843	2.78620e+02	2.84300e+03	1.88818e+00	2.76917e+02
2851	2.79307e+02	2.85100e+03	1.88716e+00	2.77583e+02
2859	2.79996e+02	2.85900e+03	1.88602e+00	2.78250e+02
2867	2.80753e+02	2.86700e+03	1.88485e+00	2.78917e+02
2875	2.81452e+02	2.87500e+03	1.88369e+00	2.79583e+02
2883	2.82114e+02	2.88300e+03	1.88248e+00	2.80250e+02
2891	2.82817e+02	2.89100e+03	1.88135e+00	2.80917e+02
2899	2.83488e+02	2.89900e+03	1.88010e+00	2.81583e+02
2907	2.84168e+02	2.90700e+03	1.87890e+00	2.82250e+02
2915	2.84892e+02	2.91500e+03	1.87766e+00	2.82917e+02
2923	2.85617e+02	2.92300e+03	1.87638e+00	2.83583e+02
2931	2.86299e+02	2.93100e+03	1.87503e+00	2.84250e+02
2939	2.87012e+02	2.93900e+03	1.87366e+00	2.84917e+02
2947	2.87683e+02	2.94700e+03	1.87222e+00	2.85583e+02
2955	2.88349e+02	2.95500e+03	1.87082e+00	2.86250e+02
2963	2.89030e+02	2.96300e+03	1.86941e+00	2.86917e+02
2971	2.89689e+02	2.97100e+03	1.86797e+00	2.87583e+02
2979	2.90360e+02	2.97900e+03	1.86645e+00	2.88250e+02
2987	2.91025e+02	2.98700e+03	1.86490e+00	2.88917e+02
2995	2.91672e+02	2.99500e+03	1.86343e+00	2.89583e+02
3003	2.92331e+02	3.00300e+03	1.86177e+00	2.90250e+02
3011	2.92983e+02	3.01100e+03	1.86019e+00	2.90917e+02
3019	2.93627e+02	3.01900e+03	1.85850e+00	2.91583e+02
3027	2.94276e+02	3.02700e+03	1.85684e+00	2.92250e+02
3035	2.94936e+02	3.03500e+03	1.85521e+00	2.92917e+02
3043	2.95589e+02	3.04300e+03	1.85350e+00	2.93583e+02
3051	2.96244e+02	3.05100e+03	1.85168e+00	2.94250e+02
3059	2.96895e+02	3.05900e+03	1.85012e+00	2.94917e+02
3067	2.97553e+02	3.06700e+03	1.84849e+00	2.95583e+02
3075	2.98232e+02	3.07500e+03	1.84680e+00	2.96250e+02
3083	2.98891e+02	3.08300e+03	1.84492e+00	2.96917e+02
3091	2.99550e+02	3.09100e+03	1.84318e+00	2.97583e+02
3099	3.00213e+02	3.09900e+03	1.84144e+00	2.98250e+02
3107	3.00871e+02	3.10700e+03	1.83957e+00	2.98917e+02
3115	3.01524e+02	3.11500e+03	1.83783e+00	2.99583e+02
3123	3.02172e+02	3.12300e+03	1.83599e+00	3.00250e+02
3131	3.02847e+02	3.13100e+03	1.83410e+00	3.00917e+02
3139	3.03510e+02	3.13900e+03	1.83240e+00	3.01583e+02
3147	3.04173e+02	3.14700e+03	1.83060e+00	3.02250e+02
3155	3.04836e+02	3.15500e+03	1.82869e+00	3.02917e+02
3163	3.05517e+02	3.16300e+03	1.82685e+00	3.03583e+02
3171	3.06169e+02	3.17100e+03	1.82495e+00	3.04250e+02
3179	3.06843e+02	3.17900e+03	1.82299e+00	3.04917e+02
3187	3.07519e+02	3.18700e+03	1.82097e+00	3.05583e+02
3195	3.08186e+02	3.19500e+03	1.81898e+00	3.06250e+02
3203	3.08863e+02	3.20300e+03	1.81702e+00	3.06917e+02
3211	3.09522e+02	3.21100e+03	1.81490e+00	3.07583e+02
3219	3.10186e+02	3.21900e+03	1.81271e+00	3.08250e+02
3227	3.10844e+02	3.22700e+03	1.81051e+00	3.08917e+02
3235	3.11517e+02	3.23500e+03	1.80829e+00	3.09583e+02
3243	3.12171e+02	3.24300e+03	1.80603e+00	3.10250e+02
3251	3.12840e+02	3.25100e+03	1.80374e+00	3.10917e+02
3259	3.13490e+02	3.25900e+03	1.80139e+00	3.11583e+02
3267	3.14152e+02	3.26700e+03	1.79900e+00	3.12250e+02
3275	3.14819e+02	3.27500e+03	1.79651e+00	3.12917e+02
3283	3.15495e+02	3.28300e+03	1.79395e+00	3.13583e+02
3291	3.16159e+02	3.29100e+03	1.79134e+00	3.14250e+02
3299	3.16833e+02	3.29900e+03	1.78857e+00	3.14917e+02
3307	3.17506e+02	3.30700e+03	1.78564e+00	3.15583e+02
3315	3.18170e+02	3.31500e+03	1.78250e+00	3.16250e+02
3323	3.18838e+02	3.32300e+03	1.77947e+00	3.16917e+02
3331	3.19500e+02	3.33100e+03	1.77614e+00	3.17583e+02
3339	3.20180e+02	3.33900e+03	1.77270e+00	3.18250e+02
3347	3.20836e+02	3.34700e+03	1.76922e+00	3.18917e+02
3355	3.21502e+02	3.35500e+03	1.76565e+00	3.19583e+02
3363	3.22165e+02	3.36300e+03	1.76193e+00	3.20250e+02
3371	3.22822e+02	3.37100e+03	1.75794e+00	3.20917e+02
3379	3.23499e+02	3.37900e+03	1.75375e+00	3.21583e+02
3387	3.24171e+02	3.38700e+03	1.74947e+00	3.22250e+02
3395	3.24842e+02	3.39500e+03	1.74511e+00	3.22917e+02
3403	3.25512e+02	3.40300e+03	1.74046e+00	3.23583e+02
3411	3.26199e+02	3.41100e+03	1.73551e+00	3.24250e+02
3419	3.26880e+02	3.41900e+03	1.73043e+00	3.24917e+02
3427	3.27548e+02	3.42700e+03	1.72500e+00	3.25583e+02
3435	3.28221e+02	3.43500e+03	1.71929e+00	3.26250e+02
3443	3.28889e+02	3.44300e+03	1.71342e+00	3.26917e+02
3451	3.29569e+02	3.45100e+03	1.70722e+00	3.27583e+02
3459	3.30258e+02	3.45900e+03	1.70080e+00	3.28250e+02
3467	3.30976e+02	3.46700e+03	1.69402e+00	3.28917e+02
3475	3.31657e+02	3.47500e+03	1.68662e+00	3.29583e+02
3483	3.32378e+02	3.48300e+03	1.67857e+00	3.30250e+02
3491	3.33099e+02	3.49100e+03	1.67059e+00	3.30917e+02
3499	3.33798e+02	3.49900e+03	1.66234e+00	3.31583e+02
3507	3.34465e+02	3.50700e+03	1.65390e+00	3.32250e+02
3515	3.35146e+02	3.51500e+03	1.64486e+00	3.32917e+02
3523	3.35825e+02	3.52300e+03	1.63549e+00	3.33583e+02
3531	3.36515e+02	3.53100e+03	1.62577e+00	3.34250e+02
3539	3.37177e+02	3.53900e+03	1.61532e+00	3.34917e+02
3547	3.37835e+02	3.54700e+03	1.60454e+00	3.35583e+02
3555	3.38515e+02	3.55500e+03	1.59331e+00	3.36250e+02
3563	3.39175e+02	3.56300e+03	1.58092e+00	3.36917e+02
3571	3.39836e+02	3.57100e+03	1.56809e+00	3.37583e+02
3579	3.40499e+02	3.57900e+03	1.55516e+00	3.38250e+02
3587	3.41148e+02	3.58700e+03	1.54190e+00	3.38917e+02
3595	3.41822e+02	3.59500e+03	1.52806e+00	3.39583e+02
3603	3.42488e+02	3.60300e+03	1.51347e+00	3.40250e+02
3611	3.43148e+02	3.61100e+03	1.49850e+00	3.40917e+02
3619	3.43825e+02	3.61900e+03	1.48293e+00	3.41583e+02
3627	3.44501e+02	3.62700e+03	1.46677e+00	3.42250e+02
3635	3.45166e+02	3.63500e+03	1.45020e+00	3.42917e+02
3643	3.45841e+02	3.64300e+03	1.43302e+00	3.43583e+02
3651	3.46524e+02	3.65100e+03	1.41524e+00	3.44250e+02
3659	3.47190e+02	3.65900e+03	1.39699e+00	3.44917e+02
3667	3.47858e+02	3.66700e+03	1.37814e+00	3.45583e+02
3675	3.48520e+02	3.67500e+03	1.35873e+00	3.46250e+02
3683	3.49193e+02	3.68300e+03	1.33883e+00	3.46917e+02
3691	3.49858e+02	3.69100e+03	1.31835e+00	3.47583e+02
3699	3.50500e+02	3.69900e+03	1.29727e+00	3.48250e+02
3707	3.51137e+02	3.70700e+03	1.27567e+00	3.48917e+02
3715	3.51797e+02	3.71500e+03	1.25356e+00	3.49583e+02
3723	3.52456e+02	3.72300e+03	1.23114e+00	3.50250e+02
3731	3.53126e+02	3.73100e+03	1.20824e+00	3.50917e+02
3739	3.53775e+02	3.73900e+03	1.18482e+00	3.51583e+02
3747	3.54444e+02	3.74700e+03	1.16119e+00	3.52250e+02
3755	3.55103e+02	3.75500e+03	1.13717e+00	3.52917e+02
3763	3.55756e+02	3.76300e+03	1.11269e+00	3.53583e+02
3771	3.56419e+02	3.77100e+03	1.08799e+00	3.54250e+02
3779	3.57080e+02	3.77900e+03	1.06277e+00	3.54917e+02
3787	3.57732e+02	3.78700e+03	1.03709e+00	3.55583e+02
3795	3.58396e+02	3.79500e+03	1.01098e+00	3.56250e+02
3803	3.59058e+02	3.80300e+03	9.84757e-01	3.56917e+02
3811	3.59714e+02	3.81100e+03	9.58411e-01	3.57583e+02
3819	3.60364e+02	3.81900e+03	9.31899e-01	3.58250e+02
3827	3.61008e+02	3.82700e+03	9.06805e-01	3.58917e+02
3835	3.61651e+02	3.83500e+03	8.82234e-01	3.59583e+02
3843	3.62324e+02	3.84300e+03	8.51942e-01	3.60250e+02
3851	3.62968e+02	3.85100e+03	8.24642e-01	3.60917e+02
3859	3.63629e+02	3.85900e+03	7.99300e-01	3.61583e+02
3867	3.64285e+02	3.86700e+03	7.72442e-01	3.62250e+02
3875	3.64951e+02	3.87500e+03	7.46664e-01	3.62917e+02
3883	3.65607e+02	3.88300e+03	7.19481e-01	3.63583e+02
3891	3.66268e+02	3.89100e+03	6.92801e-01	3.64250e+02
3899	3.66918e+02	3.89900e+03	6.67106e-01	3.64917e+02
3907	3.67588e+02	3.90700e+03	6.40849e-01	3.65583e+02
3915	3.68236e+02	3.91500e+03	6.13197e-01	3.66250e+02
3923	3.68896e+02	3.92300e+03	5.86412e-01	3.66917e+02
3931	3.69558e+02	3.93100e+03	5.60465e-01	3.67583e+02
3939	3.70224e+02	3.93900e+03	5.34786e-01	3.68250e+02
3947	3.70880e+02	3.94700e+03	5.09802e-01	3.68917e+02
3955	3.71568e+02	3.95500e+03	4.85401e-01	3.69583e+02
3963	3.72227e+02	3.96300e+03	4.61992e-01	3.70250e+02
3971	3.72894e+02	3.97100e+03	4.39095e-01	3.70917e+02
3979	3.73561e+02	3.97900e+03	4.16750e-01	3.71583e+02
3987	3.74235e+02	3.98700e+03	3.95164e-01	3.72250e+02
3995	3.74897e+02	3.99500e+03	3.74417e-01	3.72917e+02
4003	3.75566e+02	4.00300e+03	3.54538e-01	3.73583e+02
4011	3.76226e+02	4.01100e+03	3.35332e-01	3.74250e+02
4019	3.76905e+02	4.01900e+03	3.16842e-01	3.74917e+02
4027	3.77579e+02	4.02700e+03	2.99050e-01	3.75583e+02
4035	3.78243e+02	4.03500e+03	2.82148e-01	3.76250e+02
4043	3.78908e+02	4.04300e+03	2.65936e-01	3.76917e+02
4051	3.79572e+02	4.05100e+03	2.50478e-01	3.77583e+02
4059	3.80246e+02	4.05900e+03	2.35615e-01	3.78250e+02
4067	3.80903e+02	4.06700e+03	2.21468e-01	3.78917e+02
4075	3.81579e+02	4.07500e+03	2.08260e-01	3.79583e+02
4083	3.82257e+02	4.08300e+03	1.95892e-01	3.80250e+02
4091	3.82914e+02	4.09100e+03	1.84066e-01	3.80917e+02
4099	3.83589e+02	4.09900e+03	1.72906e-01	3.81583e+02
4107	3.84251e+02	4.10700e+03	1.62354e-01	3.82250e+02
4115	3.84923e+02	4.11500e+03	1.52324e-01	3.82917e+02
4123	3.85573e+02	4.12300e+03	1.42840e-01	3.83583e+02
4131	3.86234e+02	4.13100e+03	1.33920e-01	3.84250e+02
4139	3.86903e+02	4.13900e+03	1.25666e-01	3.84917e+02
4147	3.87564e+02	4.14700e+03	1.17933e-01	3.85583e+02
4155	3.88234e+02	4.15500e+03	1.10666e-01	3.86250e+02
4163	3.88902e+02	4.16300e+03	1.03917e-01	3.86917e+02
4171	3.89560e+02	4.17100e+03	9.76645e-02	3.87583e+02
4179	3.90233e+02	4.17900e+03	9.17511e-02	3.88250e+02
4187	3.90894e+02	4.18700e+03	8.62051e-02	3.88917e+02
4195	3.91549e+02	4.19500e+03	8.12210e-02	3.89583e+02
4203	3.92202e+02	4.20300e+03	7.66269e-02	3.90250e+02
4211	3.92888e+02	4.21100e+03	7.22170e-02	3.90917e+02
4219	3.93542e+02	4.21900e+03	6.80261e-02	3.91583e+02
4227	3.94210e+02	4.22700e+03	6.39900e-02	3.92250e+02
4235	3.94870e+02	4.23500e+03	6.07096e-02	3.92917e+02
4243	3.95537e+02	4.24300e+03	5.75312e-02	3.93583e+02
4251	3.96209e+02	4.25100e+03	5.45768e-02	3.94250e+02
4259	3.96878e+02	4.25900e+03	5.18250e-02	3.94917e+02
4267	3.97530e+02	4.26700e+03	4.91947e-02	3.95583e+02
4275	3.98210e+02	4.27500e+03	4.67725e-02	3.96250e+02
4283	3.98870e+02	4.28300e+03	4.44398e-02	3.96917e+02
4291	3.99540e+02	4.29100e+03	4.22613e-02	3.97583e+02
4299	4.00210e+02	4.29900e+03	4.04231e-02	3.98250e+02
4307	4.00875e+02	4.30700e+03	3.86282e-02	3.98917e+02
4315	4.01539e+02	4.31500e+03	3.68615e-02	3.99583e+02
4323	4.02203e+02	4.32300e+03	3.51584e-02	4.00250e+02
4331	4.02876e+02	4.33100e+03	3.36305e-02	4.00917e+02
4339	4.03551e+02	4.33900e+03	3.21486e-02	4.01583e+02
4347	4.04209e+02	4.34700e+03	3.07514e-02	4.02250e+02
4355	4.04878e+02	4.35500e+03	2.95338e-02	4.02917e+02
4363	4.05549e+02	4.36300e+03	2.82630e-02	4.03583e+02
4371	4.06221e+02	4.37100e+03	2.72111e-02	4.04250e+02
4379	4.06890e+02	4.37900e+03	2.62050e-02	4.04917e+02
4387	4.07553e+02	4.38700e+03	2.51786e-02	4.05583e+02
4395	4.08212e+02	4.39500e+03	2.42060e-02	4.06250e+02
4403	4.08874e+02	4.40300e+03	2.32413e-02	4.06917e+02
4411	4.09541e+02	4.41100e+03	2.25127e-02	4.07583e+02
4419	4.10213e+02	4.41900e+03	2.15851e-02	4.08250e+02
4427	4.10871e+02	4.42700e+03	2.07803e-02	4.08917e+02
4435	4.11539e+02	4.43500e+03	2.01208e-02	4.09583e+02
4443	4.12193e+02	4.44300e+03	1.94158e-02	4.10250e+02
4451	4.12854e+02	4.45100e+03	1.87200e-02	4.10917e+02
4459	4.13526e+02	4.45900e+03	1.79679e-02	4.11583e+02
4467	4.14188e+02	4.46700e+03	1.74425e-02	4.12250e+02
4475	4.14857e+02	4.47500e+03	1.68723e-02	4.12917e+02
4483	4.15515e+02	4.48300e+03	1.62506e-02	4.13583e+02
4491	4.16177e+02	4.49100e+03	1.56638e-02	4.14250e+02
4499	4.16828e+02	4.49900e+03	1.53144e-02	4.14917e+02
4507	4.17503e+02	4.50700e+03	1.49134e-02	4.15583e+02
4515	4.18179e+02	4.51500e+03	1.45307e-02	4.16250e+02
4523	4.18842e+02	4.52300e+03	1.40087e-02	4.16917e+02
4531	4.19503e+02	4.53100e+03	1.33946e-02	4.17583e+02
4539	4.20169e+02	4.53900e+03	1.29183e-02	4.18250e+02
4547	4.20847e+02	4.54700e+03	1.25728e-02	4.18917e+02
4555	4.21497e+02	4.55500e+03	1.22540e-02	4.19583e+02
4563	4.22160e+02	4.56300e+03	1.19529e-02	4.20250e+02
4571	4.22825e+02	4.57100e+03	1.16126e-02	4.20917e+02
4579	4.23490e+02	4.57900e+03	1.14512e-02	4.21583e+02
4587	4.24156e+02	4.58700e+03	1.13992e-02	4.22250e+02
4595	4.24817e+02	4.59500e+03	1.13875e-02	4.22917e+02
4603	4.25475e+02	4.60300e+03	1.12352e-02	4.23583e+02
4611	4.26139e+02	4.61100e+03	1.10805e-02	4.24250e+02
4619	4.26797e+02	4.61900e+03	1.09999e-02	4.24917e+02
4627	4.27468e+02	4.62700e+03	1.10286e-02	4.25583e+02
4635	4.28131e+02	4.63500e+03	1.08690e-02	4.26250e+02
4643	4.28798e+02	4.64300e+03	1.07944e-02	4.26917e+02
4651	4.29456e+02	4.65100e+03	1.03543e-02	4.27583e+02
4659	4.30115e+02	4.65900e+03	1.03556e-02	4.28250e+02
4667	4.30772e+02	4.66700e+03	1.12862e-02	4.28917e+02
4675	4.31441e+02	4.67500e+03	1.10408e-02	4.29583e+02
4683	4.32118e+02	4.68300e+03	1.07796e-02	4.30250e+02
4691	4.32762e+02	4.69100e+03	1.08305e-02	4.30917e+02
4699	4.33415e+02	4.69900e+03	1.05286e-02	4.31583e+02
4707	4.34072e+02	4.70700e+03	1.04670e-02	4.32250e+02
4715	4.34678e+02	4.71500e+03	1.05159e-02	4.32917e+02
4723	4.35263e+02	4.72300e+03	9.90161e-03	4.33583e+02
4731	4.35901e+02	4.73100e+03	1.04558e-02	4.34250e+02
4739	4.36546e+02	4.73900e+03	1.08500e-02	4.34917e+02
4747	4.37197e+02	4.74700e+03	1.03688e-02	4.35583e+02
4755	4.37856e+02	4.75500e+03	1.02706e-02	4.36250e+02
4763	4.38507e+02	4.76300e+03	1.03806e-02	4.36917e+02
4771	4.39171e+02	4.77100e+03	1.03448e-02	4.37583e+02
4779	4.39823e+02	4.77900e+03	1.03977e-02	4.38250e+02
4787	4.40486e+02	4.78700e+03	1.02929e-02	4.38917e+02
4795	4.41142e+02	4.79500e+03	1.01482e-02	4.39583e+02
4803	4.41796e+02	4.80300e+03	1.01745e-02	4.40250e+02
4811	4.42454e+02	4.81100e+03	1.01176e-02	4.40917e+02
4819	4.43105e+02	4.81900e+03	9.66642e-03	4.41583e+02
4827	4.43766e+02	4.82700e+03	9.61580e-03	4.42250e+02
4835	4.44436e+02	4.83500e+03	1.00322e-02	4.42917e+02
4843	4.45080e+02	4.84300e+03	1.03603e-02	4.43583e+02
4851	4.45730e+02	4.85100e+03	1.04920e-02	4.44250e+02
4859	4.46403e+02	4.85900e+03	1.02446e-02	4.44917e+02
4867	4.47054e+02	4.86700e+03	1.01732e-02	4.45583e+02
4875	4.47727e+02	4.87500e+03	1.01434e-02	4.46250e+02
4883	4.48378e+02	4.88300e+03	1.01193e-02	4.46917e+02
4891	4.49031e+02	4.89100e+03	1.00753e-02	4.47583e+02
4899	4.49688e+02	4.89900e+03	1.00664e-02	4.48250e+02
4907	4.50355e+02	4.90700e+03	9.97664e-03	4.48917e+02
4915	4.51010e+02	4.91500e+03	9.98039e-03	4.49583e+02
4923	4.51669e+02	4.92300e+03	1.00420e-02	4.50250e+02
4931	4.52324e+02	4.93100e+03	9.93768e-03	4.50917e+02
4939	4.52999e+02	4.93900e+03	9.90142e-03	4.51583e+02
4947	4.53652e+02	4.94700e+03	9.86867e-03	4.52250e+02
4955	4.54309e+02	4.95500e+03	9.77282e-03	4.52917e+02
4963	4.54960e+02	4.96300e+03	9.80875e-03	4.53583e+02
4971	4.55617e+02	4.97100e+03	9.86596e-03	4.54250e+02
4979	4.56282e+02	4.97900e+03	9.95851e-03	4.54917e+02
4987	4.56942e+02	4.98700e+03	9.85374e-03	4.55583e+02
4995	4.57605e+02	4.99500e+03	9.77637e-03	4.56250e+02
5003	4.58262e+02	5.00300e+03	9.81499e-03	4.56917e+02
5011	4.58923e+02	5.01100e+03	9.82150e-03	4.57583e+02
5019	4.59593e+02	5.01900e+03	9.77935e-03	4.58250e+02
5027	4.60251e+02	5.02700e+03	9.84589e-03	4.58917e+02
5035	4.60908e+02	5.03500e+03	9.85467e-03	4.59583e+02
5043	4.61566e+02	5.04300e+03	9.84436e-03	4.60250e+02
5051	4.62222e+02	5.05100e+03	9.86635e-03	4.60917e+02
5059	4.62896e+02	5.05900e+03	9.78269e-03	4.61583e+02
5067	4.63559e+02	5.06700e+03	9.80157e-03	4.62250e+02
5075	4.64198e+02	5.07500e+03	9.84469e-03	4.62917e+02
5083	4.64865e+02	5.08300e+03	9.80662e-03	4.63583e+02
5091	4.65536e+02	5.09100e+03	9.78692e-03	4.64250e+02
5099	4.66184e+02	5.09900e+03	9.78569e-03	4.64917e+02
5107	4.66848e+02	5.10700e+03	9.88754e-03	4.65583e+02
5115	4.67503e+02	5.11500e+03	9.77317e-03	4.66250e+02
5123	4.68157e+02	5.12300e+03	9.74084e-03	4.66917e+02
5131	4.68823e+02	5.13100e+03	9.82898e-03	4.67583e+02
5139	4.69489e+02	5.13900e+03	9.84379e-03	4.68250e+02
5147	4.70163e+02	5.14700e+03	9.71767e-03	4.68917e+02
5155	4.70811e+02	5.15500e+03	9.68170e-03	4.69583e+02
5163	4.71480e+02	5.16300e+03	9.63764e-03	4.70250e+02
5171	4.72138e+02	5.17100e+03	9.59262e-03	4.70917e+02
5179	4.72789e+02	5.17900e+03	9.74008e-03	4.71583e+02
5187	4.73459e+02	5.18700e+03	9.63333e-03	4.72250e+02
5195	4.74115e+02	5.19500e+03	9.69340e-03	4.72917e+02
5203	4.74778e+02	5.20300e+03	9.77970e-03	4.73583e+02
5211	4.75440e+02	5.21100e+03	9.76704e-03	4.74250e+02
5219	4.76103e+02	5.21900e+03	9.78552e-03	4.74917e+02
5227	4.76750e+02	5.22700e+03	9.67674e-03	4.75583e+02
5235	4.77415e+02	5.23500e+03	9.71806e-03	4.76250e+02
5243	4.78087e+02	5.24300e+03	9.77401e-03	4.76917e+02
5251	4.78750e+02	5.25100e+03	9.81362e-03	4.77583e+02
5259	4.79414e+02	5.25900e+03	9.65356e-03	4.78250e+02
5267	4.80071e+02	5.26700e+03	9.64263e-03	4.78917e+02
5275	4.80721e+02	5.27500e+03	9.65682e-03	4.79583e+02
5283	4.81387e+02	5.28300e+03	9.64792e-03	4.80250e+02
5291	4.82048e+02	5.29100e+03	9.54228e-03	4.80917e+02
5299	4.82707e+02	5.29900e+03	9.59924e-03	4.81583e+02
5307	4.83369e+02	5.30700e+03	9.69503e-03	4.82250e+02
5315	4.84021e+02	5.31500e+03	9.76147e-03	4.82917e+02
5323	4.84695e+02	5.32300e+03	9.77461e-03	4.83583e+02
5331	4.85343e+02	5.33100e+03	9.78999e-03	4.84250e+02
5339	4.85998e+02	5.33900e+03	9.71823e-03	4.84917e+02
5347	4.86679e+02	5.34700e+03	9.61862e-03	4.85583e+02
5355	4.87331e+02	5.35500e+03	9.66384e-03	4.86250e+02
5363	4.88001e+02	5.36300e+03	9.59303e-03	4.86917e+02
5371	4.88657e+02	5.37100e+03	9.47461e-03	4.87583e+02
5379	4.89313e+02	5.37900e+03	9.31758e-03	4.88250e+02
5387	4.89977e+02	5.38700e+03	9.34427e-03	4.88917e+02
5395	4.90635e+02	5.39500e+03	9.40923e-03	4.89583e+02
5403	4.91293e+02	5.40300e+03	9.40282e-03	4.90250e+02
5411	4.91956e+02	5.41100e+03	9.40925e-03	4.90917e+02
5419	4.92616e+02	5.41900e+03	9.26294e-03	4.91583e+02
5427	4.93280e+02	5.42700e+03	9.31256e-03	4.92250e+02
5435	4.93927e+02	5.43500e+03	9.29071e-03	4.92917e+02
5443	4.94596e+02	5.44300e+03	9.29969e-03	4.93583e+02
5451	4.95266e+02	5.45100e+03	9.35470e-03	4.94250e+02
5459	4.95914e+02	5.45900e+03	9.27577e-03	4.94917e+02
5467	4.96578e+02	5.46700e+03	9.19624e-03	4.95583e+02
5475	4.97240e+02	5.47500e+03	9.29770e-03	4.96250e+02
5483	4.97893e+02	5.48300e+03	9.30515e-03	4.96917e+02
5491	4.98560e+02	5.49100e+03	9.34967e-03	4.97583e+02
5499	4.99214e+02	5.49900e+03	9.35219e-03	4.98250e+02
5507	4.99875e+02	5.50700e+03	9.37397e-03	4.98917e+02
5515	5.00528e+02	5.51500e+03	9.33020e-03	4.99583e+02
5523	5.01193e+02	5.52300e+03	9.30552e-03	5.00250e+02
5531	5.01851e+02	5.53100e+03	9.25959e-03	5.00917e+02
5539	5.02516e+02	5.53900e+03	9.22924e-03	5.01583e+02
5547	5.03180e+02	5.54700e+03	9.27908e-03	5.02250e+02
5555	5.03835e+02	5.55500e+03	9.32398e-03	5.02917e+02
5563	5.04502e+02	5.56300e+03	9.31877e-03	5.03583e+02
5571	5.05157e+02	5.57100e+03	9.30539e-03	5.04250e+02
5579	5.05817e+02	5.57900e+03	9.28448e-03	5.04917e+02
5587	5.06489e+02	5.58700e+03	9.27765e-03	5.05583e+02
5595	5.07157e+02	5.59500e+03	9.23067e-03	5.06250e+02
5603	5.07825e+02	5.60300e+03	9.13912e-03	5.06917e+02
5611	5.08489e+02	5.61100e+03	9.17103e-03	5.07583e+02
5619	5.09148e+02	5.61900e+03	9.22621e-03	5.08250e+02
5627	5.09814e+02	5.62700e+03	9.30399e-03	5.08917e+02
5635	5.10463e+02	5.63500e+03	9.37006e-03	5.09583e+02
5643	5.11125e+02	5.64300e+03	9.22060e-03	5.10250e+02
5651	5.11784e+02	5.65100e+03	9.23718e-03	5.10917e+02
5659	5.12446e+02	5.65900e+03	9.29016e-03	5.11583e+02
5667	5.13115e+02	5.66700e+03	9.24840e-03	5.12250e+02
5675	5.13771e+02	5.67500e+03	9.30606e-03	5.12917e+02
5683	5.14436e+02	5.68300e+03	9.35519e-03	5.13583e+02
5691	5.15096e+02	5.69100e+03	9.38401e-03	5.14250e+02
5699	5.15754e+02	5.69900e+03	9.32339e-03	5.14917e+02
5707	5.16433e+02	5.70700e+03	9.28957e-03	5.15583e+02
5715	5.17097e+02	5.71500e+03	9.38092e-03	5.16250e+02
5723	5.17749e+02	5.72300e+03	9.38584e-03	5.16917e+02
5731	5.18411e+02	5.73100e+03	9.41595e-03	5.17583e+02
5739	5.19079e+02	5.73900e+03	9.40239e-03	5.18250e+02
5747	5.19737e+02	5.74700e+03	9.25319e-03	5.18917e+02
5755	5.20397e+02	5.75500e+03	9.21331e-03	5.19583e+02
5763	5.21067e+02	5.76300e+03	9.24537e-03	5.20250e+02
5771	5.21730e+02	5.77100e+03	9.29849e-03	5.20917e+02
5779	5.22395e+02	5.77900e+03	9.28028e-03	5.21583e+02
5787	5.23061e+02	5.78700e+03	9.23433e-03	5.22250e+02
5795	5.23723e+02	5.79500e+03	9.16741e-03	5.22917e+02
5803	5.24385e+02	5.80300e+03	9.21533e-03	5.23583e+02
5811	5.25049e+02	5.81100e+03	9.21341e-03	5.24250e+02
5819	5.25729e+02	5.81900e+03	9.11813e-03	5.24917e+02
5827	5.26388e+02	5.82700e+03	9.25028e-03	5.25583e+02
5835	5.27058e+02	5.83500e+03	9.16938e-03	5.26250e+02
5843	5.27722e+02	5.84300e+03	9.09679e-03	5.26917e+02
5851	5.28381e+02	5.85100e+03	9.12892e-03	5.27583e+02
5859	5.29046e+02	5.85900e+03	9.20017e-03	5.28250e+02
5867	5.29710e+02	5.86700e+03	9.17226e-03	5.28917e+02
5875	5.30383e+02	5.87500e+03	9.13352e-03	5.29583e+02
5883	5.31052e+02	5.88300e+03	9.16269e-03	5.30250e+02
5891	5.31707e+02	5.89100e+03	9.22620e-03	5.30917e+02
5899	5.32394e+02	5.89900e+03	9.29843e-03	5.31583e+02
5907	5.33046e+02	5.90700e+03	9.29814e-03	5.32250e+02
5915	5.33710e+02	5.91500e+03	9.32628e-03	5.32917e+02
5923	5.34371e+02	5.92300e+03	9.18647e-03	5.33583e+02
5931	5.35047e+02	5.93100e+03	9.26014e-03	5.34250e+02
5939	5.35713e+02	5.93900e+03	9.27758e-03	5.34917e+02
5947	5.36385e+02	5.94700e+03	9.26814e-03	5.35583e+02
5955	5.37058e+02	5.95500e+03	9.25383e-03	5.36250e+02
5963	5.37730e+02	5.96300e+03	9.30049e-03	5.36917e+02
5971	5.38399e+02	5.97100e+03	9.30573e-03	5.37583e+02
5979	5.39069e+02	5.97900e+03	9.20405e-03	5.38250e+02
5987	5.39729e+02	5.98700e+03	9.16010e-03	5.38917e+02
5995	5.40407e+02	5.99500e+03	9.17948e-03	5.39583e+02
6003	5.41075e+02	6.00300e+03	9.17757e-03	5.40250e+02
6011	5.41754e+02	6.01100e+03	9.22963e-03	5.40917e+02
6019	5.42422e+02	6.01900e+03	9.18261e-03	5.41583e+02
6027	5.43094e+02	6.02700e+03	9.09390e-03	5.42250e+02
6035	5.43760e+02	6.03500e+03	9.10210e-03	5.42917e+02
6043	5.44439e+02	6.04300e+03	9.10438e-03	5.43583e+02
6051	5.45110e+02	6.05100e+03	9.00316e-03	5.44250e+02
6059	5.45803e+02	6.05900e+03	8.90860e-03	5.44917e+02
6067	5.46474e+02	6.06700e+03	8.93270e-03	5.45583e+02
6075	5.47141e+02	6.07500e+03	8.95556e-03	5.46250e+02
6083	5.47821e+02	6.08300e+03	9.04454e-03	5.46917e+02
6091	5.48468e+02	6.09100e+03	9.02005e-03	5.47583e+02
6099	5.49151e+02	6.09900e+03	8.96118e-03	5.48250e+02
6107	5.49806e+02	6.10700e+03	8.98536e-03	5.48917e+02
6115	5.50485e+02	6.11500e+03	8.97028e-03	5.49583e+02
6123	5.51146e+02	6.12300e+03	8.98038e-03	5.50250e+02
6131	5.51824e+02	6.13100e+03	9.02911e-03	5.50917e+02
6139	5.52479e+02	6.13900e+03	8.89081e-03	5.51583e+02
6147	5.53149e+02	6.14700e+03	8.88561e-03	5.52250e+02
6155	5.53813e+02	6.15500e+03	8.90339e-03	5.52917e+02
6163	5.54462e+02	6.16300e+03	8.95595e-03	5.53583e+02
6171	5.55123e+02	6.17100e+03	8.94173e-03	5.54250e+02
6179	5.55786e+02	6.17900e+03	9.00275e-03	5.54917e+02
6187	5.56442e+02	6.18700e+03	9.00834e-03	5.55583e+02
6195	5.57109e+02	6.19500e+03	8.92888e-03	5.56250e+02
6203	5.57781e+02	6.20300e+03	8.88718e-03	5.56917e+02
6211	5.58425e+02	6.21100e+03	8.95236e-03	5.57583e+02
6219	5.59087e+02	6.21900e+03	8.92354e-03	5.58250e+02
6227	5.59750e+02	6.22700e+03	8.90985e-03	5.58917e+02
6235	5.60403e+02	6.23500e+03	8.87317e-03	5.59583e+02
6243	5.61078e+02	6.24300e+03	8.82215e-03	5.60250e+02
6251	5.61737e+02	6.25100e+03	8.79963e-03	5.60917e+02
6259	5.62387e+02	6.25900e+03	8.82368e-03	5.61583e+02
6267	5.63048e+02	6.26700e+03	8.78952e-03	5.62250e+02
6275	5.63700e+02	6.27500e+03	8.88114e-03	5.62917e+02
6283	5.64368e+02	6.28300e+03	8.89824e-03	5.63583e+02
6291	5.65028e+02	6.29100e+03	8.84708e-03	5.64250e+02
6299	5.65691e+02	6.29900e+03	8.75178e-03	5.64917e+02
6307	5.66350e+02	6.30700e+03	8.72855e-03	5.65583e+02
6315	5.67006e+02	6.31500e+03	8.72057e-03	5.66250e+02
6323	5.67674e+02	6.32300e+03	8.85115e-03	5.66917e+02
6331	5.68333e+02	6.33100e+03	8.79482e-03	5.67583e+02
6339	5.69009e+02	6.33900e+03	8.80666e-03	5.68250e+02
6347	5.69664e+02	6.34700e+03	8.93367e-03	5.68917e+02
6355	5.70335e+02	6.35500e+03	8.99591e-03	5.69583e+02
6363	5.71002e+02	6.36300e+03	8.88025e-03	5.70250e+02
6371	5.71659e+02	6.37100e+03	8.79874e-03	5.70917e+02
6379	5.72318e+02	6.37900e+03	8.91046e-03	5.71583e+02
6387	5.72977e+02	6.38700e+03	9.03719e-03	5.72250e+02
6395	5.73637e+02	6.39500e+03	9.03044e-03	5.72917e+02
6403	5.74309e+02	6.40300e+03	8.88929e-03	5.73583e+02
6411	5.74963e+02	6.41100e+03	8.92514e-03	5.74250e+02
6419	5.75626e+02	6.41900e+03	8.93501e-03	5.74917e+02
6427	5.76292e+02	6.42700e+03	8.93669e-03	5.75583e+02
6435	5.76944e+02	6.43500e+03	8.83417e-03	5.76250e+02
6443	5.77611e+02	6.44300e+03	8.71406e-03	5.76917e+02
6451	5.78270e+02	6.45100e+03	8.84930e-03	5.77583e+02
6459	5.78940e+02	6.45900e+03	8.95293e-03	5.78250e+02
6467	5.79615e+02	6.46700e+03	8.88243e-03	5.78917e+02
6475	5.80269e+02	6.47500e+03	8.84783e-03	5.79583e+02
6483	5.80927e+02	6.48300e+03	8.82991e-03	5.80250e+02
6491	5.81586e+02	6.49100e+03	8.91012e-03	5.80917e+02
6499	5.82249e+02	6.49900e+03	8.84505e-03	5.81583e+02
6507	5.82927e+02	6.50700e+03	8.81908e-03	5.82250e+02
6515	5.83595e+02	6.51500e+03	8.86388e-03	5.82917e+02
6523	5.84256e+02	6.52300e+03	8.87206e-03	5.83583e+02
6531	5.84917e+02	6.53100e+03	8.88682e-03	5.84250e+02
6539	5.85590e+02	6.53900e+03	8.86731e-03	5.84917e+02
6547	5.86271e+02	6.54700e+03	8.94187e-03	5.85583e+02
6555	5.86930e+02	6.55500e+03	8.97375e-03	5.86250e+02
6563	5.87590e+02	6.56300e+03	8.94246e-03	5.86917e+02
6571	5.88256e+02	6.57100e+03	8.80397e-03	5.87583e+02
6579	5.88923e+02	6.57900e+03	8.76823e-03	5.88250e+02
6587	5.89588e+02	6.58700e+03	8.75784e-03	5.88917e+02
6595	5.90265e+02	6.59500e+03	8.79272e-03	5.89583e+02
6603	5.90928e+02	6.60300e+03	8.78016e-03	5.90250e+02
6611	5.91593e+02	6.61100e+03	8.79804e-03	5.90917e+02
6619	5.92261e+02	6.61900e+03	8.79799e-03	5.91583e+02
6627	5.92924e+02	6.62700e+03	8.81914e-03	5.92250e+02
6635	5.93571e+02	6.63500e+03	8.81510e-03	5.92917e+02
6643	5.94244e+02	6.64300e+03	8.87869e-03	5.93583e+02
6651	5.94907e+02	6.65100e+03	8.92294e-03	5.94250e+02
6659	5.95579e+02	6.65900e+03	8.96116e-03	5.94917e+02
6667	5.96235e+02	6.66700e+03	8.85090e-03	5.95583e+02
6675	5.96903e+02	6.67500e+03	8.83775e-03	5.96250e+02
6683	5.97562e+02	6.68300e+03	8.88667e-03	5.96917e+02
6691	5.98222e+02	6.69100e+03	8.80146e-03	5.97583e+02
6699	5.98874e+02	6.69900e+03	8.80684e-03	5.98250e+02
6707	5.99539e+02	6.70700e+03	8.82266e-03	5.98917e+02
6715	6.00197e+02	6.71500e+03	8.89080e-03	5.99583e+02
6723	6.00855e+02	6.72300e+03	8.95261e-03	6.00250e+02
6731	6.01519e+02	6.73100e+03	8.94683e-03	6.00917e+02
6739	6.02181e+02	6.73900e+03	8.86411e-03	6.01583e+02
6747	6.02850e+02	6.74700e+03	8.84872e-03	6.02250e+02
6755	6.03511e+02	6.75500e+03	8.82227e-03	6.02917e+02
6763	6.04167e+02	6.76300e+03	8.81908e-03	6.03583e+02
6771	6.04828e+02	6.77100e+03	8.68347e-03	6.04250e+02
6779	6.05497e+02	6.77900e+03	8.74555e-03	6.04917e+02
6787	6.06150e+02	6.78700e+03	8.72051e-03	6.05583e+02
6795	6.06827e+02	6.79500e+03	8.67984e-03	6.06250e+02
6803	6.07492e+02	6.80300e+03	8.62614e-03	6.06917e+02
6811	6.08143e+02	6.81100e+03	8.66103e-03	6.07583e+02
6819	6.08816e+02	6.81900e+03	8.73352e-03	6.08250e+02
6827	6.09481e+02	6.82700e+03	8.76221e-03	6.08917e+02
6835	6.10140e+02	6.83500e+03	8.77318e-03	6.09583e+02
6843	6.10811e+02	6.84300e+03	8.79456e-03	6.10250e+02
6851	6.11473e+02	6.85100e+03	8.82173e-03	6.10917e+02
6859	6.12122e+02	6.85900e+03	8.91234e-03	6.11583e+02
6867	6.12796e+02	6.86700e+03	8.87916e-03	6.12250e+02
6875	6.13449e+02	6.87500e+03	8.73283e-03	6.12917e+02
6883	6.14124e+02	6.88300e+03	8.71301e-03	6.13583e+02
6891	6.14794e+02	6.89100e+03	8.76693e-03	6.14250e+02
6899	6.15465e+02	6.89900e+03	8.76089e-03	6.14917e+02
6907	6.16127e+02	6.90700e+03	8.79096e-03	6.15583e+02
6915	6.16794e+02	6.91500e+03	8.60554e-03	6.16250e+02
6923	6.17465e+02	6.92300e+03	8.58719e-03	6.16917e+02
6931	6.18135e+02	6.93100e+03	8.65843e-03	6.17583e+02
6939	6.18811e+02	6.93900e+03	8.74743e-03	6.18250e+02
6947	6.19472e+02	6.94700e+03	8.78923e-03	6.18917e+02
6955	6.20144e+02	6.95500e+03	8.69441e-03	6.19583e+02
6963	6.20803e+02	6.96300e+03	8.53877e-03	6.20250e+02
6971	6.21460e+02	6.97100e+03	8.54760e-03	6.20917e+02
6979	6.22127e+02	6.97900e+03	8.62645e-03	6.21583e+02
6987	6.22787e+02	6.98700e+03	8.64711e-03	6.22250e+02
6995	6.23478e+02	6.99500e+03	8.59457e-03	6.22917e+02
7003	6.24157e+02	7.00300e+03	8.62047e-03	6.23583e+02
7011	6.24809e+02	7.01100e+03	8.51419e-03	6.24250e+02
7019	6.25474e+02	7.01900e+03	8.48935e-03	6.24917e+02
7027	6.26142e+02	7.02700e+03	8.43341e-03	6.25583e+02
7035	6.26814e+02	7.03500e+03	8.49826e-03	6.26250e+02
7043	6.27476e+02	7.04300e+03	8.51086e-03	6.26917e+02
7051	6.28145e+02	7.05100e+03	8.60144e-03	6.27583e+02
7059	6.28821e+02	7.05900e+03	8.71520e-03	6.28250e+02
7067	6.29490e+02	7.06700e+03	8.80014e-03	6.28917e+02
7075	6.30139e+02	7.07500e+03	8.78682e-03	6.29583e+02
7083	6.30820e+02	7.08300e+03	8.85234e-03	6.30250e+02
7091	6.31490e+02	7.09100e+03	8.73264e-03	6.30917e+02
7099	6.32148e+02	7.09900e+03	8.63424e-03	6.31583e+02
7107	6.32821e+02	7.10700e+03	8.64884e-03	6.32250e+02
7115	6.33491e+02	7.11500e+03	8.73382e-03	6.32917e+02
7123	6.34166e+02	7.12300e+03	8.70498e-03	6.33583e+02
7131	6.34833e+02	7.13100e+03	8.66823e-03	6.34250e+02
7139	6.35498e+02	7.13900e+03	8.67014e-03	6.34917e+02
7147	6.36188e+02	7.14700e+03	8.72505e-03	6.35583e+02
7155	6.36867e+02	7.15500e+03	8.55991e-03	6.36250e+02
7163	6.37534e+02	7.16300e+03	8.40772e-03	6.36917e+02
7171	6.38199e+02	7.17100e+03	8.51886e-03	6.37583e+02
7179	6.38872e+02	7.17900e+03	8.64183e-03	6.38250e+02
7187	6.39521e+02	7.18700e+03	8.58997e-03	6.38917e+02
7195	6.40190e+02	7.19500e+03	8.43854e-03	6.39583e+02
7203	6.40851e+02	7.20300e+03	8.35137e-03	6.40250e+02
7211	6.41515e+02	7.21100e+03	8.37443e-03	6.40917e+02
7219	6.42191e+02	7.21900e+03	8.33582e-03	6.41583e+02
7227	6.42851e+02	7.22700e+03	8.35359e-03	6.42250e+02
7235	6.43521e+02	7.23500e+03	8.42427e-03	6.42917e+02
7243	6.44173e+02	7.24300e+03	8.35371e-03	6.43583e+02
7251	6.44854e+02	7.25100e+03	8.33386e-03	6.44250e+02
7259	6.45524e+02	7.25900e+03	8.31948e-03	6.44917e+02
7267	6.46198e+02	7.26700e+03	8.39396e-03	6.45583e+02
7275	6.46869e+02	7.27500e+03	8.50606e-03	6.46250e+02
7283	6.47541e+02	7.28300e+03	8.53251e-03	6.46917e+02
7291	6.48226e+02	7.29100e+03	8.36288e-03	6.47583e+02
7299	6.48899e+02	7.29900e+03	8.25224e-03	6.48250e+02
7307	6.49556e+02	7.30700e+03	8.42296e-03	6.48917e+02
7315	6.50232e+02	7.31500e+03	8.40478e-03	6.49583e+02
7323	6.50899e+02	7.32300e+03	8.44051e-03	6.50250e+02
7331	6.51572e+02	7.33100e+03	8.52938e-03	6.50917e+02
7339	6.52243e+02	7.33900e+03	8.44957e-03	6.51583e+02
7347	6.52908e+02	7.34700e+03	8.47144e-03	6.52250e+02
7355	6.53566e+02	7.35500e+03	8.53707e-03	6.52917e+02
7363	6.54239e+02	7.36300e+03	8.51781e-03	6.53583e+02
7371	6.54909e+02	7.37100e+03	8.55238e-03	6.54250e+02
7379	6.55577e+02	7.37900e+03	8.49790e-03	6.54917e+02
7387	6.56244e+02	7.38700e+03	8.34411e-03	6.55583e+02
7395	6.56912e+02	7.39500e+03	8.45305e-03	6.56250e+02
7403	6.57579e+02	7.40300e+03	8.47646e-03	6.56917e+02
7411	6.58241e+02	7.41100e+03	8.52194e-03	6.57583e+02
7419	6.58909e+02	7.41900e+03	8.46673e-03	6.58250e+02
7427	6.59578e+02	7.42700e+03	8.46664e-03	6.58917e+02
7435	6.60245e+02	7.43500e+03	8.55038e-03	6.59583e+02
7443	6.60921e+02	7.44300e+03	8.47260e-03	6.60250e+02
7451	6.61583e+02	7.45100e+03	8.42631e-03	6.60917e+02
7459	6.62249e+02	7.45900e+03	8.39547e-03	6.61583e+02
7467	6.62916e+02	7.46700e+03	8.50205e-03	6.62250e+02
7475	6.63589e+02	7.47500e+03	8.55721e-03	6.62917e+02
7483	6.64255e+02	7.48300e+03	8.54291e-03	6.63583e+02
7491	6.64921e+02	7.49100e+03	8.52778e-03	6.64250e+02
7499	6.65590e+02	7.49900e+03	8.55254e-03	6.64917e+02
7507	6.66254e+02	7.50700e+03	8.58671e-03	6.65583e+02
7515	6.66926e+02	7.51500e+03	8.54048e-03	6.66250e+02
7523	6.67586e+02	7.52300e+03	8.60035e-03	6.66917e+02
7531	6.68267e+02	7.53100e+03	8.68586e-03	6.67583e+02
7539	6.68937e+02	7.53900e+03	8.77684e-03	6.68250e+02
7547	6.69624e+02	7.54700e+03	8.79572e-03	6.68917e+02
7555	6.70276e+02	7.55500e+03	8.72616e-03	6.69583e+02
7563	6.70949e+02	7.56300e+03	8.70796e-03	6.70250e+02
7571	6.71619e+02	7.57100e+03	8.74358e-03	6.70917e+02
7579	6.72290e+02	7.57900e+03	8.72451e-03	6.71583e+02
7587	6.72947e+02	7.58700e+03	8.66299e-03	6.72250e+02
7595	6.73615e+02	7.59500e+03	8.65717e-03	6.72917e+02
7603	6.74291e+02	7.60300e+03	8.61712e-03	6.73583e+02
7611	6.74955e+02	7.61100e+03	8.65655e-03	6.74250e+02
7619	6.75622e+02	7.61900e+03	8.63390e-03	6.74917e+02
7627	6.76284e+02	7.62700e+03	8.60705e-03	6.75583e+02
7635	6.76941e+02	7.63500e+03	8.58346e-03	6.76250e+02
7643	6.77610e+02	7.64300e+03	8.54754e-03	6.76917e+02
7651	6.78279e+02	7.65100e+03	8.63921e-03	6.77583e+02
7659	6.78938e+02	7.65900e+03	8.73594e-03	6.78250e+02
7667	6.79606e+02	7.66700e+03	8.82217e-03	6.78917e+02
7675	6.80277e+02	7.67500e+03	8.78796e-03	6.79583e+02
7683	6.80942e+02	7.68300e+03	8.72909e-03	6.80250e+02
7691	6.81604e+02	7.69100e+03	8.70839e-03	6.80917e+02
7699	6.82272e+02	7.69900e+03	8.76224e-03	6.81583e+02
7707	6.82929e+02	7.70700e+03	8.72770e-03	6.82250e+02
7715	6.83605e+02	7.71500e+03	8.63569e-03	6.82917e+02
7723	6.84271e+02	7.72300e+03	8.56443e-03	6.83583e+02
7731	6.84932e+02	7.73100e+03	8.63096e-03	6.84250e+02
7739	6.85605e+02	7.73900e+03	8.68768e-03	6.84917e+02
7747	6.86258e+02	7.74700e+03	8.72482e-03	6.85583e+02
7755	6.86937e+02	7.75500e+03	8.80370e-03	6.86250e+02
7763	6.87602e+02	7.76300e+03	8.82500e-03	6.86917e+02
7771	6.88271e+02	7.77100e+03	8.83111e-03	6.87583e+02
7779	6.88931e+02	7.77900e+03	8.69896e-03	6.88250e+02
7787	6.89598e+02	7.78700e+03	8.73442e-03	6.88917e+02
7795	6.90273e+02	7.79500e+03	8.91957e-03	6.89583e+02
7803	6.90939e+02	7.80300e+03	8.85306e-03	6.90250e+02
7811	6.91613e+02	7.81100e+03	8.78772e-03	6.90917e+02
7819	6.92279e+02	7.81900e+03	8.86098e-03	6.91583e+02
7827	6.92948e+02	7.82700e+03	8.92522e-03	6.92250e+02
7835	6.93606e+02	7.83500e+03	8.87710e-03	6.92917e+02
7843	6.94278e+02	7.84300e+03	8.90418e-03	6.93583e+02
7851	6.94941e+02	7.85100e+03	8.83118e-03	6.94250e+02
7859	6.95605e+02	7.85900e+03	8.79252e-03	6.94917e+02
7867	6.96271e+02	7.86700e+03	8.68949e-03	6.95583e+02
7875	6.96942e+02	7.87500e+03	8.63327e-03	6.96250e+02
7883	6.97601e+02	7.88300e+03	8.72837e-03	6.96917e+02
7891	6.98269e+02	7.89100e+03	8.79964e-03	6.97583e+02
7899	6.98794e+02	7.89900e+03	8.93087e-03	6.98250e+02
7907	6.99253e+02	7.90700e+03	8.85655e-03	6.98917e+02
7915	6.99607e+02	7.91500e+03	8.74648e-03	6.99583e+02
7920	6.99775e+02	7.92000e+03	8.75089e-03	7.00000e+02