File: Experiments/TUBS/tga_nonisotherm/tga_dynamic_n2_dyn10_powder_2mg_r3.txt
index	ts	t	weight	tr
[#]	[°C]	[s]	[mg]	[°C]
843	1.30876e+02	8.43000e+02	2.01657e+00	1.30500e+02
847	1.31554e+02	8.47000e+02	2.01656e+00	1.31167e+02
851	1.32224e+02	8.51000e+02	2.01653e+00	1.31833e+02
855	1.32895e+02	8.55000e+02	2.01654e+00	1.32500e+02
859	1.33571e+02	8.59000e+02	2.01661e+00	1.33167e+02
863	1.34240e+02	8.63000e+02	2.01664e+00	1.33833e+02
867	1.34920e+02	8.67000e+02	2.01645e+00	1.34500e+02
871	1.35593e+02	8.71000e+02	2.01609e+00	1.35167e+02
875	1.36260e+02	8.75000e+02	2.01578e+00	1.35833e+02
879	1.36933e+02	8.79000e+02	2.01562e+00	1.36500e+02
883	1.37603e+02	8.83000e+02	2.01563e+00	1.37167e+02
887	1.38272e+02	8.87000e+02	2.01561e+00	1.37833e+02
891	1.38962e+02	8.91000e+02	2.01544e+00	1.38500e+02
895	1.39630e+02	8.95000e+02	2.01535e+00	1.39167e+02
899	1.40310e+02	8.99000e+02	2.01532e+00	1.39833e+02
903	1.40981e+02	9.03000e+02	2.01516e+00	1.40500e+02
907	1.41658e+02	9.07000e+02	2.01489e+00	1.41167e+02
911	1.42332e+02	9.11000e+02	2.01469e+00	1.41833e+02
915	1.43007e+02	9.15000e+02	2.01455e+00	1.42500e+02
919	1.43683e+02	9.19000e+02	2.01428e+00	1.43167e+02
923	1.44346e+02	9.23000e+02	2.01382e+00	1.43833e+02
927	1.45044e+02	9.27000e+02	2.01358e+00	1.44500e+02
931	1.45715e+02	9.31000e+02	2.01382e+00	1.45167e+02
935	1.46372e+02	9.35000e+02	2.01394e+00	1.45833e+02
939	1.47068e+02	9.39000e+02	2.01353e+00	1.46500e+02
943	1.47729e+02	9.43000e+02	2.01299e+00	1.47167e+02
947	1.48401e+02	9.47000e+02	2.01268e+00	1.47833e+02
951	1.49082e+02	9.51000e+02	2.01250e+00	1.48500e+02
955	1.49763e+02	9.55000e+02	2.01235e+00	1.49167e+02
959	1.50427e+02	9.59000e+02	2.01212e+00	1.49833e+02
963	1.51119e+02	9.63000e+02	2.01171e+00	1.50500e+02
967	1.51796e+02	9.67000e+02	2.01128e+00	1.51167e+02
971	1.52446e+02	9.71000e+02	2.01100e+00	1.51833e+02
975	1.53137e+02	9.75000e+02	2.01083e+00	1.52500e+02
979	1.53818e+02	9.79000e+02	2.01060e+00	1.53167e+02
983	1.54490e+02	9.83000e+02	2.01023e+00	1.53833e+02
987	1.55167e+02	9.87000e+02	2.00978e+00	1.54500e+02
991	1.55842e+02	9.91000e+02	2.00945e+00	1.55167e+02
995	1.56514e+02	9.95000e+02	2.00932e+00	1.55833e+02
999	1.57207e+02	9.99000e+02	2.00911e+00	1.56500e+02
1003	1.57874e+02	1.00300e+03	2.00864e+00	1.57167e+02
1007	1.58541e+02	1.00700e+03	2.00818e+00	1.57833e+02
1011	1.59210e+02	1.01100e+03	2.00785e+00	1.58500e+02
1015	1.59897e+02	1.01500e+03	2.00748e+00	1.59167e+02
1019	1.60563e+02	1.01900e+03	2.00707e+00	1.59833e+02
1023	1.61251e+02	1.02300e+03	2.00672e+00	1.60500e+02
1027	1.61919e+02	1.02700e+03	2.00636e+00	1.61167e+02
1031	1.62613e+02	1.03100e+03	2.00593e+00	1.61833e+02
1035	1.63282e+02	1.03500e+03	2.00541e+00	1.62500e+02
1039	1.63966e+02	1.03900e+03	2.00489e+00	1.63167e+02
1043	1.64625e+02	1.04300e+03	2.00441e+00	1.63833e+02
1047	1.65302e+02	1.04700e+03	2.00377e+00	1.64500e+02
1051	1.65982e+02	1.05100e+03	2.00297e+00	1.65167e+02
1055	1.66650e+02	1.05500e+03	2.00212e+00	1.65833e+02
1059	1.67322e+02	1.05900e+03	2.00130e+00	1.66500e+02
1063	1.68007e+02	1.06300e+03	2.00050e+00	1.67167e+02
1067	1.68679e+02	1.06700e+03	1.99966e+00	1.67833e+02
1071	1.69355e+02	1.07100e+03	1.99870e+00	1.68500e+02
1075	1.70022e+02	1.07500e+03	1.99769e+00	1.69167e+02
1079	1.70707e+02	1.07900e+03	1.99673e+00	1.69833e+02
1083	1.71381e+02	1.08300e+03	1.99573e+00	1.70500e+02
1087	1.72061e+02	1.08700e+03	1.99451e+00	1.71167e+02
1091	1.72734e+02	1.09100e+03	1.99305e+00	1.71833e+02
1095	1.73405e+02	1.09500e+03	1.99154e+00	1.72500e+02
1099	1.74079e+02	1.09900e+03	1.99005e+00	1.73167e+02
1103	1.74754e+02	1.10300e+03	1.98860e+00	1.73833e+02
1107	1.75435e+02	1.10700e+03	1.98727e+00	1.74500e+02
1111	1.76115e+02	1.11100e+03	1.98593e+00	1.75167e+02
1115	1.76785e+02	1.11500e+03	1.98430e+00	1.75833e+02
1119	1.77476e+02	1.11900e+03	1.98250e+00	1.76500e+02
1123	1.78145e+02	1.12300e+03	1.98082e+00	1.77167e+02
1127	1.78828e+02	1.12700e+03	1.97920e+00	1.77833e+02
1131	1.79491e+02	1.13100e+03	1.97759e+00	1.78500e+02
1135	1.80186e+02	1.13500e+03	1.97593e+00	1.79167e+02
1139	1.80849e+02	1.13900e+03	1.97410e+00	1.79833e+02
1143	1.81520e+02	1.14300e+03	1.97214e+00	1.80500e+02
1147	1.82206e+02	1.14700e+03	1.97023e+00	1.81167e+02
1151	1.82894e+02	1.15100e+03	1.96841e+00	1.81833e+02
1155	1.83557e+02	1.15500e+03	1.96656e+00	1.82500e+02
1159	1.84231e+02	1.15900e+03	1.96468e+00	1.83167e+02
1163	1.84927e+02	1.16300e+03	1.96280e+00	1.83833e+02
1167	1.85599e+02	1.16700e+03	1.96101e+00	1.84500e+02
1171	1.86263e+02	1.17100e+03	1.95938e+00	1.85167e+02
1175	1.86946e+02	1.17500e+03	1.95780e+00	1.85833e+02
1179	1.87612e+02	1.17900e+03	1.95613e+00	1.86500e+02
1183	1.88308e+02	1.18300e+03	1.95442e+00	1.87167e+02
1187	1.88974e+02	1.18700e+03	1.95290e+00	1.87833e+02
1191	1.89651e+02	1.19100e+03	1.95152e+00	1.88500e+02
1195	1.90316e+02	1.19500e+03	1.95012e+00	1.89167e+02
1199	1.90990e+02	1.19900e+03	1.94874e+00	1.89833e+02
1203	1.91675e+02	1.20300e+03	1.94751e+00	1.90500e+02
1207	1.92351e+02	1.20700e+03	1.94642e+00	1.91167e+02
1211	1.93026e+02	1.21100e+03	1.94531e+00	1.91833e+02
1215	1.93693e+02	1.21500e+03	1.94417e+00	1.92500e+02
1219	1.94371e+02	1.21900e+03	1.94310e+00	1.93167e+02
1223	1.95039e+02	1.22300e+03	1.94210e+00	1.93833e+02
1227	1.95706e+02	1.22700e+03	1.94119e+00	1.94500e+02
1231	1.96395e+02	1.23100e+03	1.94032e+00	1.95167e+02
1235	1.97062e+02	1.23500e+03	1.93947e+00	1.95833e+02
1239	1.97738e+02	1.23900e+03	1.93895e+00	1.96500e+02
1243	1.98416e+02	1.24300e+03	1.93865e+00	1.97167e+02
1247	1.99074e+02	1.24700e+03	1.93810e+00	1.97833e+02
1251	1.99760e+02	1.25100e+03	1.93745e+00	1.98500e+02
1255	2.00418e+02	1.25500e+03	1.93682e+00	1.99167e+02
1259	2.01094e+02	1.25900e+03	1.93618e+00	1.99833e+02
1263	2.01764e+02	1.26300e+03	1.93565e+00	2.00500e+02
1267	2.02439e+02	1.26700e+03	1.93528e+00	2.01167e+02
1271	2.03106e+02	1.27100e+03	1.93496e+00	2.01833e+02
1275	2.03786e+02	1.27500e+03	1.93469e+00	2.02500e+02
1279	2.04457e+02	1.27900e+03	1.93441e+00	2.03167e+02
1283	2.05138e+02	1.28300e+03	1.93407e+00	2.03833e+02
1287	2.05803e+02	1.28700e+03	1.93367e+00	2.04500e+02
1291	2.06480e+02	1.29100e+03	1.93325e+00	2.05167e+02
1295	2.07142e+02	1.29500e+03	1.93291e+00	2.05833e+02
1299	2.07810e+02	1.29900e+03	1.93264e+00	2.06500e+02
1303	2.08476e+02	1.30300e+03	1.93246e+00	2.07167e+02
1307	2.09150e+02	1.30700e+03	1.93224e+00	2.07833e+02
1311	2.09818e+02	1.31100e+03	1.93180e+00	2.08500e+02
1315	2.10487e+02	1.31500e+03	1.93124e+00	2.09167e+02
1319	2.11153e+02	1.31900e+03	1.93102e+00	2.09833e+02
1323	2.11829e+02	1.32300e+03	1.93110e+00	2.10500e+02
1327	2.12506e+02	1.32700e+03	1.93086e+00	2.11167e+02
1331	2.13170e+02	1.33100e+03	1.93030e+00	2.11833e+02
1335	2.13845e+02	1.33500e+03	1.92984e+00	2.12500e+02
1339	2.14520e+02	1.33900e+03	1.92955e+00	2.13167e+02
1343	2.15190e+02	1.34300e+03	1.92933e+00	2.13833e+02
1347	2.15858e+02	1.34700e+03	1.92901e+00	2.14500e+02
1351	2.16522e+02	1.35100e+03	1.92869e+00	2.15167e+02
1355	2.17193e+02	1.35500e+03	1.92851e+00	2.15833e+02
1359	2.17870e+02	1.35900e+03	1.92819e+00	2.16500e+02
1363	2.18541e+02	1.36300e+03	1.92770e+00	2.17167e+02
1367	2.19207e+02	1.36700e+03	1.92738e+00	2.17833e+02
1371	2.19888e+02	1.37100e+03	1.92719e+00	2.18500e+02
1375	2.20559e+02	1.37500e+03	1.92696e+00	2.19167e+02
1379	2.21226e+02	1.37900e+03	1.92668e+00	2.19833e+02
1383	2.21895e+02	1.38300e+03	1.92639e+00	2.20500e+02
1387	2.22562e+02	1.38700e+03	1.92618e+00	2.21167e+02
1391	2.23240e+02	1.39100e+03	1.92600e+00	2.21833e+02
1395	2.23908e+02	1.39500e+03	1.92572e+00	2.22500e+02
1399	2.24578e+02	1.39900e+03	1.92538e+00	2.23167e+02
1403	2.25238e+02	1.40300e+03	1.92516e+00	2.23833e+02
1407	2.25910e+02	1.40700e+03	1.92501e+00	2.24500e+02
1411	2.26577e+02	1.41100e+03	1.92484e+00	2.25167e+02
1415	2.27245e+02	1.41500e+03	1.92460e+00	2.25833e+02
1419	2.27909e+02	1.41900e+03	1.92434e+00	2.26500e+02
1423	2.28584e+02	1.42300e+03	1.92418e+00	2.27167e+02
1427	2.29257e+02	1.42700e+03	1.92402e+00	2.27833e+02
1431	2.29940e+02	1.43100e+03	1.92382e+00	2.28500e+02
1435	2.30607e+02	1.43500e+03	1.92360e+00	2.29167e+02
1439	2.31277e+02	1.43900e+03	1.92339e+00	2.29833e+02
1443	2.31931e+02	1.44300e+03	1.92336e+00	2.30500e+02
1447	2.32606e+02	1.44700e+03	1.92337e+00	2.31167e+02
1451	2.33273e+02	1.45100e+03	1.92333e+00	2.31833e+02
1455	2.33947e+02	1.45500e+03	1.92317e+00	2.32500e+02
1459	2.34610e+02	1.45900e+03	1.92288e+00	2.33167e+02
1463	2.35283e+02	1.46300e+03	1.92272e+00	2.33833e+02
1467	2.35961e+02	1.46700e+03	1.92258e+00	2.34500e+02
1471	2.36631e+02	1.47100e+03	1.92239e+00	2.35167e+02
1475	2.37286e+02	1.47500e+03	1.92220e+00	2.35833e+02
1479	2.37972e+02	1.47900e+03	1.92202e+00	2.36500e+02
1483	2.38643e+02	1.48300e+03	1.92189e+00	2.37167e+02
1487	2.39312e+02	1.48700e+03	1.92171e+00	2.37833e+02
1491	2.39974e+02	1.49100e+03	1.92156e+00	2.38500e+02
1495	2.40659e+02	1.49500e+03	1.92154e+00	2.39167e+02
1499	2.41338e+02	1.49900e+03	1.92153e+00	2.39833e+02
1503	2.42007e+02	1.50300e+03	1.92137e+00	2.40500e+02
1507	2.42678e+02	1.50700e+03	1.92112e+00	2.41167e+02
1511	2.43353e+02	1.51100e+03	1.92097e+00	2.41833e+02
1515	2.44024e+02	1.51500e+03	1.92089e+00	2.42500e+02
1519	2.44707e+02	1.51900e+03	1.92071e+00	2.43167e+02
1523	2.45402e+02	1.52300e+03	1.92062e+00	2.43833e+02
1527	2.46079e+02	1.52700e+03	1.92071e+00	2.44500e+02
1531	2.46757e+02	1.53100e+03	1.92057e+00	2.45167e+02
1535	2.47430e+02	1.53500e+03	1.92026e+00	2.45833e+02
1539	2.48107e+02	1.53900e+03	1.92003e+00	2.46500e+02
1543	2.48786e+02	1.54300e+03	1.91975e+00	2.47167e+02
1547	2.49472e+02	1.54700e+03	1.91951e+00	2.47833e+02
1551	2.50163e+02	1.55100e+03	1.91945e+00	2.48500e+02
1555	2.50828e+02	1.55500e+03	1.91949e+00	2.49167e+02
1559	2.51503e+02	1.55900e+03	1.91946e+00	2.49833e+02
1563	2.52185e+02	1.56300e+03	1.91924e+00	2.50500e+02
1567	2.52885e+02	1.56700e+03	1.91901e+00	2.51167e+02
1571	2.53569e+02	1.57100e+03	1.91891e+00	2.51833e+02
1575	2.54251e+02	1.57500e+03	1.91873e+00	2.52500e+02
1579	2.54943e+02	1.57900e+03	1.91845e+00	2.53167e+02
1583	2.55622e+02	1.58300e+03	1.91821e+00	2.53833e+02
1587	2.56306e+02	1.58700e+03	1.91805e+00	2.54500e+02
1591	2.56972e+02	1.59100e+03	1.91785e+00	2.55167e+02
1595	2.57658e+02	1.59500e+03	1.91769e+00	2.55833e+02
1599	2.58343e+02	1.59900e+03	1.91766e+00	2.56500e+02
1603	2.59031e+02	1.60300e+03	1.91754e+00	2.57167e+02
1607	2.59709e+02	1.60700e+03	1.91732e+00	2.57833e+02
1611	2.60378e+02	1.61100e+03	1.91712e+00	2.58500e+02
1615	2.61074e+02	1.61500e+03	1.91684e+00	2.59167e+02
1619	2.61755e+02	1.61900e+03	1.91649e+00	2.59833e+02
1623	2.62423e+02	1.62300e+03	1.91622e+00	2.60500e+02
1627	2.63088e+02	1.62700e+03	1.91596e+00	2.61167e+02
1631	2.63757e+02	1.63100e+03	1.91569e+00	2.61833e+02
1635	2.64441e+02	1.63500e+03	1.91545e+00	2.62500e+02
1639	2.65125e+02	1.63900e+03	1.91519e+00	2.63167e+02
1643	2.65809e+02	1.64300e+03	1.91491e+00	2.63833e+02
1647	2.66491e+02	1.64700e+03	1.91459e+00	2.64500e+02
1651	2.67186e+02	1.65100e+03	1.91426e+00	2.65167e+02
1655	2.67876e+02	1.65500e+03	1.91391e+00	2.65833e+02
1659	2.68552e+02	1.65900e+03	1.91349e+00	2.66500e+02
1663	2.69241e+02	1.66300e+03	1.91303e+00	2.67167e+02
1667	2.69912e+02	1.66700e+03	1.91256e+00	2.67833e+02
1671	2.70589e+02	1.67100e+03	1.91212e+00	2.68500e+02
1675	2.71274e+02	1.67500e+03	1.91168e+00	2.69167e+02
1679	2.71958e+02	1.67900e+03	1.91120e+00	2.69833e+02
1683	2.72661e+02	1.68300e+03	1.91073e+00	2.70500e+02
1687	2.73373e+02	1.68700e+03	1.91026e+00	2.71167e+02
1691	2.74069e+02	1.69100e+03	1.90978e+00	2.71833e+02
1695	2.74762e+02	1.69500e+03	1.90934e+00	2.72500e+02
1699	2.75423e+02	1.69900e+03	1.90885e+00	2.73167e+02
1703	2.76125e+02	1.70300e+03	1.90816e+00	2.73833e+02
1707	2.76809e+02	1.70700e+03	1.90742e+00	2.74500e+02
1711	2.77487e+02	1.71100e+03	1.90668e+00	2.75167e+02
1715	2.78165e+02	1.71500e+03	1.90592e+00	2.75833e+02
1719	2.78833e+02	1.71900e+03	1.90519e+00	2.76500e+02
1723	2.79517e+02	1.72300e+03	1.90450e+00	2.77167e+02
1727	2.80185e+02	1.72700e+03	1.90382e+00	2.77833e+02
1731	2.80841e+02	1.73100e+03	1.90309e+00	2.78500e+02
1735	2.81520e+02	1.73500e+03	1.90227e+00	2.79167e+02
1739	2.82174e+02	1.73900e+03	1.90137e+00	2.79833e+02
1743	2.82873e+02	1.74300e+03	1.90046e+00	2.80500e+02
1747	2.83530e+02	1.74700e+03	1.89954e+00	2.81167e+02
1751	2.84204e+02	1.75100e+03	1.89855e+00	2.81833e+02
1755	2.84858e+02	1.75500e+03	1.89753e+00	2.82500e+02
1759	2.85507e+02	1.75900e+03	1.89647e+00	2.83167e+02
1763	2.86160e+02	1.76300e+03	1.89539e+00	2.83833e+02
1767	2.86813e+02	1.76700e+03	1.89430e+00	2.84500e+02
1771	2.87469e+02	1.77100e+03	1.89309e+00	2.85167e+02
1775	2.88136e+02	1.77500e+03	1.89181e+00	2.85833e+02
1779	2.88794e+02	1.77900e+03	1.89053e+00	2.86500e+02
1783	2.89461e+02	1.78300e+03	1.88916e+00	2.87167e+02
1787	2.90101e+02	1.78700e+03	1.88777e+00	2.87833e+02
1791	2.90759e+02	1.79100e+03	1.88639e+00	2.88500e+02
1795	2.91425e+02	1.79500e+03	1.88487e+00	2.89167e+02
1799	2.92085e+02	1.79900e+03	1.88325e+00	2.89833e+02
1803	2.92758e+02	1.80300e+03	1.88162e+00	2.90500e+02
1807	2.93450e+02	1.80700e+03	1.87991e+00	2.91167e+02
1811	2.94109e+02	1.81100e+03	1.87814e+00	2.91833e+02
1815	2.94797e+02	1.81500e+03	1.87641e+00	2.92500e+02
1819	2.95421e+02	1.81900e+03	1.87482e+00	2.93167e+02
1823	2.96092e+02	1.82300e+03	1.87322e+00	2.93833e+02
1827	2.96768e+02	1.82700e+03	1.87138e+00	2.94500e+02
1831	2.97414e+02	1.83100e+03	1.86940e+00	2.95167e+02
1835	2.98078e+02	1.83500e+03	1.86744e+00	2.95833e+02
1839	2.98731e+02	1.83900e+03	1.86540e+00	2.96500e+02
1843	2.99379e+02	1.84300e+03	1.86336e+00	2.97167e+02
1847	3.00034e+02	1.84700e+03	1.86149e+00	2.97833e+02
1851	3.00699e+02	1.85100e+03	1.85974e+00	2.98500e+02
1855	3.01350e+02	1.85500e+03	1.85793e+00	2.99167e+02
1859	3.02013e+02	1.85900e+03	1.85591e+00	2.99833e+02
1863	3.02671e+02	1.86300e+03	1.85381e+00	3.00500e+02
1867	3.03344e+02	1.86700e+03	1.85179e+00	3.01167e+02
1871	3.04007e+02	1.87100e+03	1.84974e+00	3.01833e+02
1875	3.04686e+02	1.87500e+03	1.84754e+00	3.02500e+02
1879	3.05364e+02	1.87900e+03	1.84539e+00	3.03167e+02
1883	3.06027e+02	1.88300e+03	1.84342e+00	3.03833e+02
1887	3.06686e+02	1.88700e+03	1.84145e+00	3.04500e+02
1891	3.07359e+02	1.89100e+03	1.83934e+00	3.05167e+02
1895	3.08033e+02	1.89500e+03	1.83718e+00	3.05833e+02
1899	3.08699e+02	1.89900e+03	1.83508e+00	3.06500e+02
1903	3.09378e+02	1.90300e+03	1.83301e+00	3.07167e+02
1907	3.10057e+02	1.90700e+03	1.83085e+00	3.07833e+02
1911	3.10754e+02	1.91100e+03	1.82849e+00	3.08500e+02
1915	3.11409e+02	1.91500e+03	1.82621e+00	3.09167e+02
1919	3.12086e+02	1.91900e+03	1.82416e+00	3.09833e+02
1923	3.12772e+02	1.92300e+03	1.82211e+00	3.10500e+02
1927	3.13453e+02	1.92700e+03	1.81995e+00	3.11167e+02
1931	3.14147e+02	1.93100e+03	1.81772e+00	3.11833e+02
1935	3.14872e+02	1.93500e+03	1.81550e+00	3.12500e+02
1939	3.15523e+02	1.93900e+03	1.81328e+00	3.13167e+02
1943	3.16203e+02	1.94300e+03	1.81080e+00	3.13833e+02
1947	3.16871e+02	1.94700e+03	1.80805e+00	3.14500e+02
1951	3.17563e+02	1.95100e+03	1.80541e+00	3.15167e+02
1955	3.18259e+02	1.95500e+03	1.80285e+00	3.15833e+02
1959	3.18953e+02	1.95900e+03	1.80010e+00	3.16500e+02
1963	3.19618e+02	1.96300e+03	1.79725e+00	3.17167e+02
1967	3.20335e+02	1.96700e+03	1.79437e+00	3.17833e+02
1971	3.21056e+02	1.97100e+03	1.79135e+00	3.18500e+02
1975	3.21816e+02	1.97500e+03	1.78823e+00	3.19167e+02
1979	3.22500e+02	1.97900e+03	1.78488e+00	3.19833e+02
1983	3.23245e+02	1.98300e+03	1.78118e+00	3.20500e+02
1987	3.24024e+02	1.98700e+03	1.77736e+00	3.21167e+02
1991	3.24723e+02	1.99100e+03	1.77376e+00	3.21833e+02
1995	3.25396e+02	1.99500e+03	1.77013e+00	3.22500e+02
1999	3.26081e+02	1.99900e+03	1.76614e+00	3.23167e+02
2003	3.26714e+02	2.00300e+03	1.76194e+00	3.23833e+02
2007	3.27388e+02	2.00700e+03	1.75760e+00	3.24500e+02
2011	3.28115e+02	2.01100e+03	1.75302e+00	3.25167e+02
2015	3.28850e+02	2.01500e+03	1.74815e+00	3.25833e+02
2019	3.29602e+02	2.01900e+03	1.74301e+00	3.26500e+02
2023	3.30293e+02	2.02300e+03	1.73763e+00	3.27167e+02
2027	3.30990e+02	2.02700e+03	1.73211e+00	3.27833e+02
2031	3.31656e+02	2.03100e+03	1.72645e+00	3.28500e+02
2035	3.32348e+02	2.03500e+03	1.72036e+00	3.29167e+02
2039	3.33082e+02	2.03900e+03	1.71395e+00	3.29833e+02
2043	3.33767e+02	2.04300e+03	1.70763e+00	3.30500e+02
2047	3.34446e+02	2.04700e+03	1.70121e+00	3.31167e+02
2051	3.35125e+02	2.05100e+03	1.69399e+00	3.31833e+02
2055	3.35788e+02	2.05500e+03	1.68600e+00	3.32500e+02
2059	3.36453e+02	2.05900e+03	1.67801e+00	3.33167e+02
2063	3.37151e+02	2.06300e+03	1.67039e+00	3.33833e+02
2067	3.37801e+02	2.06700e+03	1.66251e+00	3.34500e+02
2071	3.38480e+02	2.07100e+03	1.65377e+00	3.35167e+02
2075	3.39018e+02	2.07500e+03	1.64426e+00	3.35833e+02
2079	3.39623e+02	2.07900e+03	1.63440e+00	3.36500e+02
2083	3.40213e+02	2.08300e+03	1.62448e+00	3.37167e+02
2087	3.40837e+02	2.08700e+03	1.61428e+00	3.37833e+02
2091	3.41454e+02	2.09100e+03	1.60360e+00	3.38500e+02
2095	3.42121e+02	2.09500e+03	1.59241e+00	3.39167e+02
2099	3.42786e+02	2.09900e+03	1.58081e+00	3.39833e+02
2103	3.43455e+02	2.10300e+03	1.56884e+00	3.40500e+02
2107	3.44113e+02	2.10700e+03	1.55646e+00	3.41167e+02
2111	3.44788e+02	2.11100e+03	1.54386e+00	3.41833e+02
2115	3.45452e+02	2.11500e+03	1.53089e+00	3.42500e+02
2119	3.46091e+02	2.11900e+03	1.51729e+00	3.43167e+02
2123	3.46753e+02	2.12300e+03	1.50318e+00	3.43833e+02
2127	3.47406e+02	2.12700e+03	1.48862e+00	3.44500e+02
2131	3.48052e+02	2.13100e+03	1.47376e+00	3.45167e+02
2135	3.48728e+02	2.13500e+03	1.45881e+00	3.45833e+02
2139	3.49402e+02	2.13900e+03	1.44371e+00	3.46500e+02
2143	3.50079e+02	2.14300e+03	1.42798e+00	3.47167e+02
2147	3.50727e+02	2.14700e+03	1.41138e+00	3.47833e+02
2151	3.51382e+02	2.15100e+03	1.39434e+00	3.48500e+02
2155	3.52051e+02	2.15500e+03	1.37716e+00	3.49167e+02
2159	3.52744e+02	2.15900e+03	1.35969e+00	3.49833e+02
2163	3.53447e+02	2.16300e+03	1.34182e+00	3.50500e+02
2167	3.54137e+02	2.16700e+03	1.32373e+00	3.51167e+02
2171	3.54805e+02	2.17100e+03	1.30535e+00	3.51833e+02
2175	3.55481e+02	2.17500e+03	1.28656e+00	3.52500e+02
2179	3.56158e+02	2.17900e+03	1.26745e+00	3.53167e+02
2183	3.56868e+02	2.18300e+03	1.24797e+00	3.53833e+02
2187	3.57533e+02	2.18700e+03	1.22804e+00	3.54500e+02
2191	3.58191e+02	2.19100e+03	1.20788e+00	3.55167e+02
2195	3.58857e+02	2.19500e+03	1.18758e+00	3.55833e+02
2199	3.59552e+02	2.19900e+03	1.16699e+00	3.56500e+02
2203	3.60215e+02	2.20300e+03	1.14601e+00	3.57167e+02
2207	3.60899e+02	2.20700e+03	1.12465e+00	3.57833e+02
2211	3.61583e+02	2.21100e+03	1.10307e+00	3.58500e+02
2215	3.62269e+02	2.21500e+03	1.08150e+00	3.59167e+02
2219	3.62951e+02	2.21900e+03	1.05989e+00	3.59833e+02
2223	3.63633e+02	2.22300e+03	1.03811e+00	3.60500e+02
2227	3.64323e+02	2.22700e+03	1.01620e+00	3.61167e+02
2231	3.65002e+02	2.23100e+03	9.94196e-01	3.61833e+02
2235	3.65678e+02	2.23500e+03	9.72161e-01	3.62500e+02
2239	3.66395e+02	2.23900e+03	9.50110e-01	3.63167e+02
2243	3.67105e+02	2.24300e+03	9.28163e-01	3.63833e+02
2247	3.67818e+02	2.24700e+03	9.06164e-01	3.64500e+02
2251	3.68538e+02	2.25100e+03	8.83869e-01	3.65167e+02
2255	3.69229e+02	2.25500e+03	8.61585e-01	3.65833e+02
2259	3.70027e+02	2.25900e+03	8.39572e-01	3.66500e+02
2263	3.70728e+02	2.26300e+03	8.16958e-01	3.67167e+02
2267	3.71419e+02	2.26700e+03	7.93220e-01	3.67833e+02
2271	3.72069e+02	2.27100e+03	7.69374e-01	3.68500e+02
2275	3.72723e+02	2.27500e+03	7.46217e-01	3.69167e+02
2279	3.73423e+02	2.27900e+03	7.23759e-01	3.69833e+02
2283	3.74218e+02	2.28300e+03	7.01658e-01	3.70500e+02
2287	3.74970e+02	2.28700e+03	6.79468e-01	3.71167e+02
2291	3.75645e+02	2.29100e+03	6.57299e-01	3.71833e+02
2295	3.76293e+02	2.29500e+03	6.35583e-01	3.72500e+02
2299	3.76953e+02	2.29900e+03	6.14418e-01	3.73167e+02
2303	3.77675e+02	2.30300e+03	5.93635e-01	3.73833e+02
2307	3.78540e+02	2.30700e+03	5.73117e-01	3.74500e+02
2311	3.79180e+02	2.31100e+03	5.52649e-01	3.75167e+02
2315	3.79763e+02	2.31500e+03	5.31046e-01	3.75833e+02
2319	3.80366e+02	2.31900e+03	5.10237e-01	3.76500e+02
2323	3.81102e+02	2.32300e+03	4.92597e-01	3.77167e+02
2327	3.81755e+02	2.32700e+03	4.75965e-01	3.77833e+02
2331	3.82442e+02	2.33100e+03	4.58766e-01	3.78500e+02
2335	3.83204e+02	2.33500e+03	4.41431e-01	3.79167e+02
2339	3.83909e+02	2.33900e+03	4.24437e-01	3.79833e+02
2343	3.84603e+02	2.34300e+03	4.07888e-01	3.80500e+02
2347	3.85257e+02	2.34700e+03	3.91842e-01	3.81167e+02
2351	3.85959e+02	2.35100e+03	3.76354e-01	3.81833e+02
2355	3.86646e+02	2.35500e+03	3.61522e-01	3.82500e+02
2359	3.87215e+02	2.35900e+03	3.47218e-01	3.83167e+02
2363	3.87772e+02	2.36300e+03	3.33144e-01	3.83833e+02
2367	3.88371e+02	2.36700e+03	3.19319e-01	3.84500e+02
2371	3.89141e+02	2.37100e+03	3.06174e-01	3.85167e+02
2375	3.89958e+02	2.37500e+03	2.94006e-01	3.85833e+02
2379	3.90753e+02	2.37900e+03	2.82313e-01	3.86500e+02
2383	3.91435e+02	2.38300e+03	2.70728e-01	3.87167e+02
2387	3.92086e+02	2.38700e+03	2.59698e-01	3.87833e+02
2391	3.92713e+02	2.39100e+03	2.49297e-01	3.88500e+02
2395	3.93440e+02	2.39500e+03	2.39196e-01	3.89167e+02
2399	3.94101e+02	2.39900e+03	2.29430e-01	3.89833e+02
2403	3.94757e+02	2.40300e+03	2.20078e-01	3.90500e+02
2407	3.95413e+02	2.40700e+03	2.11236e-01	3.91167e+02
2411	3.96119e+02	2.41100e+03	2.02878e-01	3.91833e+02
2415	3.96870e+02	2.41500e+03	1.94852e-01	3.92500e+02
2419	3.97519e+02	2.41900e+03	1.87180e-01	3.93167e+02
2423	3.98129e+02	2.42300e+03	1.79916e-01	3.93833e+02
2427	3.98760e+02	2.42700e+03	1.73092e-01	3.94500e+02
2431	3.99413e+02	2.43100e+03	1.66649e-01	3.95167e+02
2435	4.00077e+02	2.43500e+03	1.60502e-01	3.95833e+02
2439	4.00725e+02	2.43900e+03	1.54706e-01	3.96500e+02
2443	4.01292e+02	2.44300e+03	1.49217e-01	3.97167e+02
2447	4.01870e+02	2.44700e+03	1.43900e-01	3.97833e+02
2451	4.02411e+02	2.45100e+03	1.38862e-01	3.98500e+02
2455	4.02980e+02	2.45500e+03	1.34291e-01	3.99167e+02
2459	4.03600e+02	2.45900e+03	1.30070e-01	3.99833e+02
2463	4.04240e+02	2.46300e+03	1.25954e-01	4.00500e+02
2467	4.04834e+02	2.46700e+03	1.21920e-01	4.01167e+02
2471	4.05455e+02	2.47100e+03	1.18227e-01	4.01833e+02
2475	4.06087e+02	2.47500e+03	1.15059e-01	4.02500e+02
2479	4.06713e+02	2.47900e+03	1.12192e-01	4.03167e+02
2483	4.07388e+02	2.48300e+03	1.09341e-01	4.03833e+02
2487	4.08039e+02	2.48700e+03	1.06548e-01	4.04500e+02
2491	4.08686e+02	2.49100e+03	1.04000e-01	4.05167e+02
2495	4.09355e+02	2.49500e+03	1.01713e-01	4.05833e+02
2499	4.10021e+02	2.49900e+03	9.95963e-02	4.06500e+02
2503	4.10690e+02	2.50300e+03	9.75678e-02	4.07167e+02
2507	4.11362e+02	2.50700e+03	9.56272e-02	4.07833e+02
2511	4.12017e+02	2.51100e+03	9.38209e-02	4.08500e+02
2515	4.12686e+02	2.51500e+03	9.24595e-02	4.09167e+02
2519	4.13358e+02	2.51900e+03	9.14464e-02	4.09833e+02
2523	4.14013e+02	2.52300e+03	8.99543e-02	4.10500e+02
2527	4.14673e+02	2.52700e+03	8.81837e-02	4.11167e+02
2531	4.15343e+02	2.53100e+03	8.67269e-02	4.11833e+02
2535	4.16013e+02	2.53500e+03	8.55294e-02	4.12500e+02
2539	4.16661e+02	2.53900e+03	8.45209e-02	4.13167e+02
2543	4.17311e+02	2.54300e+03	8.36381e-02	4.13833e+02
2547	4.17967e+02	2.54700e+03	8.27873e-02	4.14500e+02
2551	4.18587e+02	2.55100e+03	8.19499e-02	4.15167e+02
2555	4.19220e+02	2.55500e+03	8.12450e-02	4.15833e+02
2559	4.19849e+02	2.55900e+03	8.06291e-02	4.16500e+02
2563	4.20458e+02	2.56300e+03	7.99395e-02	4.17167e+02
2567	4.21057e+02	2.56700e+03	7.93155e-02	4.17833e+02
2571	4.21663e+02	2.57100e+03	7.88185e-02	4.18500e+02
2575	4.22278e+02	2.57500e+03	7.83268e-02	4.19167e+02
2579	4.22923e+02	2.57900e+03	7.78646e-02	4.19833e+02
2583	4.23578e+02	2.58300e+03	7.74925e-02	4.20500e+02
2587	4.24219e+02	2.58700e+03	7.71827e-02	4.21167e+02
2591	4.24884e+02	2.59100e+03	7.68804e-02	4.21833e+02
2595	4.25523e+02	2.59500e+03	7.65815e-02	4.22500e+02
2599	4.26164e+02	2.59900e+03	7.62294e-02	4.23167e+02
2603	4.26816e+02	2.60300e+03	7.58239e-02	4.23833e+02
2607	4.27465e+02	2.60700e+03	7.54401e-02	4.24500e+02
2611	4.28120e+02	2.61100e+03	7.51100e-02	4.25167e+02
2615	4.28771e+02	2.61500e+03	7.48712e-02	4.25833e+02
2619	4.29413e+02	2.61900e+03	7.47797e-02	4.26500e+02
2623	4.30081e+02	2.62300e+03	7.47539e-02	4.27167e+02
2627	4.30734e+02	2.62700e+03	7.46885e-02	4.27833e+02
2631	4.31394e+02	2.63100e+03	7.45521e-02	4.28500e+02
2635	4.32044e+02	2.63500e+03	7.43677e-02	4.29167e+02
2639	4.32712e+02	2.63900e+03	7.41500e-02	4.29833e+02
2643	4.33367e+02	2.64300e+03	7.39084e-02	4.30500e+02
2647	4.34032e+02	2.64700e+03	7.38060e-02	4.31167e+02
2651	4.34707e+02	2.65100e+03	7.38495e-02	4.31833e+02
2655	4.35394e+02	2.65500e+03	7.38420e-02	4.32500e+02
2659	4.36077e+02	2.65900e+03	7.37530e-02	4.33167e+02
2663	4.36747e+02	2.66300e+03	7.36711e-02	4.33833e+02
2667	4.37424e+02	2.66700e+03	7.36512e-02	4.34500e+02
2671	4.38104e+02	2.67100e+03	7.36632e-02	4.35167e+02
2675	4.38799e+02	2.67500e+03	7.36514e-02	4.35833e+02
2679	4.39484e+02	2.67900e+03	7.36054e-02	4.36500e+02
2683	4.40164e+02	2.68300e+03	7.34870e-02	4.37167e+02
2687	4.40843e+02	2.68700e+03	7.33631e-02	4.37833e+02
2691	4.41493e+02	2.69100e+03	7.33889e-02	4.38500e+02
2695	4.42136e+02	2.69500e+03	7.35130e-02	4.39167e+02
2699	4.42746e+02	2.69900e+03	7.35167e-02	4.39833e+02
2703	4.43360e+02	2.70300e+03	7.34024e-02	4.40500e+02
2707	4.43994e+02	2.70700e+03	7.32777e-02	4.41167e+02
2711	4.44641e+02	2.71100e+03	7.32098e-02	4.41833e+02
2715	4.45247e+02	2.71500e+03	7.31521e-02	4.42500e+02
2719	4.45883e+02	2.71900e+03	7.30408e-02	4.43167e+02
2723	4.46529e+02	2.72300e+03	7.29441e-02	4.43833e+02
2727	4.47205e+02	2.72700e+03	7.29168e-02	4.44500e+02
2731	4.47875e+02	2.73100e+03	7.30248e-02	4.45167e+02
2735	4.48575e+02	2.73500e+03	7.31942e-02	4.45833e+02
2739	4.49208e+02	2.73900e+03	7.32438e-02	4.46500e+02
2743	4.49855e+02	2.74300e+03	7.30892e-02	4.47167e+02
2747	4.50514e+02	2.74700e+03	7.15693e-02	4.47833e+02
2751	4.51094e+02	2.75100e+03	7.01335e-02	4.48500e+02
2755	4.51543e+02	2.75500e+03	6.99873e-02	4.49167e+02
2759	4.52011e+02	2.75900e+03	6.96512e-02	4.49833e+02
2763	4.52552e+02	2.76300e+03	7.04732e-02	4.50500e+02
2767	4.53164e+02	2.76700e+03	7.20835e-02	4.51167e+02
2771	4.53768e+02	2.77100e+03	7.27546e-02	4.51833e+02
2775	4.54386e+02	2.77500e+03	7.28392e-02	4.52500e+02
2779	4.55020e+02	2.77900e+03	7.27278e-02	4.53167e+02
2783	4.55659e+02	2.78300e+03	7.26040e-02	4.53833e+02
2787	4.56304e+02	2.78700e+03	7.25121e-02	4.54500e+02
2791	4.56944e+02	2.79100e+03	7.25545e-02	4.55167e+02
2795	4.57587e+02	2.79500e+03	7.27344e-02	4.55833e+02
2799	4.58233e+02	2.79900e+03	7.27841e-02	4.56500e+02
2803	4.58869e+02	2.80300e+03	7.27284e-02	4.57167e+02
2807	4.59516e+02	2.80700e+03	7.27437e-02	4.57833e+02
2811	4.60161e+02	2.81100e+03	7.27443e-02	4.58500e+02
2815	4.60798e+02	2.81500e+03	7.26593e-02	4.59167e+02
2819	4.61458e+02	2.81900e+03	7.25600e-02	4.59833e+02
2823	4.62107e+02	2.82300e+03	7.25859e-02	4.60500e+02
2827	4.62740e+02	2.82700e+03	7.28823e-02	4.61167e+02
2831	4.63375e+02	2.83100e+03	7.29884e-02	4.61833e+02
2835	4.64016e+02	2.83500e+03	7.25419e-02	4.62500e+02
2839	4.64662e+02	2.83900e+03	7.22198e-02	4.63167e+02
2843	4.65307e+02	2.84300e+03	7.23417e-02	4.63833e+02
2847	4.65958e+02	2.84700e+03	7.24951e-02	4.64500e+02
2851	4.66606e+02	2.85100e+03	7.24705e-02	4.65167e+02
2855	4.67250e+02	2.85500e+03	7.23703e-02	4.65833e+02
2859	4.67909e+02	2.85900e+03	7.24800e-02	4.66500e+02
2863	4.68558e+02	2.86300e+03	7.24636e-02	4.67167e+02
2867	4.69201e+02	2.86700e+03	7.22878e-02	4.67833e+02
2871	4.69863e+02	2.87100e+03	7.22991e-02	4.68500e+02
2875	4.70510e+02	2.87500e+03	7.23359e-02	4.69167e+02
2879	4.71163e+02	2.87900e+03	7.23395e-02	4.69833e+02
2883	4.71823e+02	2.88300e+03	7.22629e-02	4.70500e+02
2887	4.72470e+02	2.88700e+03	7.21363e-02	4.71167e+02
2891	4.73122e+02	2.89100e+03	7.20542e-02	4.71833e+02
2895	4.73769e+02	2.89500e+03	7.21534e-02	4.72500e+02
2899	4.74440e+02	2.89900e+03	7.21750e-02	4.73167e+02
2903	4.75076e+02	2.90300e+03	7.19613e-02	4.73833e+02
2907	4.75745e+02	2.90700e+03	7.19328e-02	4.74500e+02
2911	4.76404e+02	2.91100e+03	7.19947e-02	4.75167e+02
2915	4.77049e+02	2.91500e+03	7.20292e-02	4.75833e+02
2919	4.77705e+02	2.91900e+03	7.21810e-02	4.76500e+02
2923	4.78374e+02	2.92300e+03	7.22175e-02	4.77167e+02
2927	4.79016e+02	2.92700e+03	7.21441e-02	4.77833e+02
2931	4.79677e+02	2.93100e+03	7.21641e-02	4.78500e+02
2935	4.80327e+02	2.93500e+03	7.22102e-02	4.79167e+02
2939	4.80992e+02	2.93900e+03	7.22202e-02	4.79833e+02
2943	4.81637e+02	2.94300e+03	7.22368e-02	4.80500e+02
2947	4.82285e+02	2.94700e+03	7.22097e-02	4.81167e+02
2951	4.82944e+02	2.95100e+03	7.21033e-02	4.81833e+02
2955	4.83585e+02	2.95500e+03	7.20182e-02	4.82500e+02
2959	4.84259e+02	2.95900e+03	7.20180e-02	4.83167e+02
2963	4.84909e+02	2.96300e+03	7.20501e-02	4.83833e+02
2967	4.85548e+02	2.96700e+03	7.20452e-02	4.84500e+02
2971	4.86196e+02	2.97100e+03	7.19853e-02	4.85167e+02
2975	4.86868e+02	2.97500e+03	7.19442e-02	4.85833e+02
2979	4.87531e+02	2.97900e+03	7.18986e-02	4.86500e+02
2983	4.88182e+02	2.98300e+03	7.18147e-02	4.87167e+02
2987	4.88836e+02	2.98700e+03	7.18176e-02	4.87833e+02
2991	4.89491e+02	2.99100e+03	7.17494e-02	4.88500e+02
2995	4.90146e+02	2.99500e+03	7.16413e-02	4.89167e+02
2999	4.90810e+02	2.99900e+03	7.17039e-02	4.89833e+02
3003	4.91463e+02	3.00300e+03	7.19108e-02	4.90500e+02
3007	4.92119e+02	3.00700e+03	7.21008e-02	4.91167e+02
3011	4.92771e+02	3.01100e+03	7.21176e-02	4.91833e+02
3015	4.93436e+02	3.01500e+03	7.21274e-02	4.92500e+02
3019	4.94096e+02	3.01900e+03	7.21568e-02	4.93167e+02
3023	4.94750e+02	3.02300e+03	7.21215e-02	4.93833e+02
3027	4.95407e+02	3.02700e+03	7.21142e-02	4.94500e+02
3031	4.96071e+02	3.03100e+03	7.22051e-02	4.95167e+02
3035	4.96733e+02	3.03500e+03	7.21078e-02	4.95833e+02
3039	4.97388e+02	3.03900e+03	7.20111e-02	4.96500e+02
3043	4.98059e+02	3.04300e+03	7.20668e-02	4.97167e+02
3047	4.98731e+02	3.04700e+03	7.19948e-02	4.97833e+02
3051	4.99385e+02	3.05100e+03	7.18370e-02	4.98500e+02
3055	5.00062e+02	3.05500e+03	7.16679e-02	4.99167e+02
3059	5.00719e+02	3.05900e+03	7.16022e-02	4.99833e+02
3063	5.01387e+02	3.06300e+03	7.16845e-02	5.00500e+02
3067	5.02068e+02	3.06700e+03	7.17609e-02	5.01167e+02
3071	5.02722e+02	3.07100e+03	7.17645e-02	5.01833e+02
3075	5.03393e+02	3.07500e+03	7.17867e-02	5.02500e+02
3079	5.04073e+02	3.07900e+03	7.17589e-02	5.03167e+02
3083	5.04739e+02	3.08300e+03	7.17489e-02	5.03833e+02
3087	5.05401e+02	3.08700e+03	7.17979e-02	5.04500e+02
3091	5.06071e+02	3.09100e+03	7.18607e-02	5.05167e+02
3095	5.06745e+02	3.09500e+03	7.19556e-02	5.05833e+02
3099	5.07417e+02	3.09900e+03	7.19351e-02	5.06500e+02
3103	5.08076e+02	3.10300e+03	7.18338e-02	5.07167e+02
3107	5.08738e+02	3.10700e+03	7.18550e-02	5.07833e+02
3111	5.09411e+02	3.11100e+03	7.19594e-02	5.08500e+02
3115	5.10070e+02	3.11500e+03	7.20075e-02	5.09167e+02
3119	5.10742e+02	3.11900e+03	7.19088e-02	5.09833e+02
3123	5.11405e+02	3.12300e+03	7.18070e-02	5.10500e+02
3127	5.12080e+02	3.12700e+03	7.18309e-02	5.11167e+02
3131	5.12738e+02	3.13100e+03	7.18934e-02	5.11833e+02
3135	5.13405e+02	3.13500e+03	7.19059e-02	5.12500e+02
3139	5.14069e+02	3.13900e+03	7.18950e-02	5.13167e+02
3143	5.14738e+02	3.14300e+03	7.19182e-02	5.13833e+02
3147	5.15412e+02	3.14700e+03	7.19722e-02	5.14500e+02
3151	5.16078e+02	3.15100e+03	7.21529e-02	5.15167e+02
3155	5.16741e+02	3.15500e+03	7.22416e-02	5.15833e+02
3159	5.17396e+02	3.15900e+03	7.21160e-02	5.16500e+02
3163	5.18076e+02	3.16300e+03	7.20323e-02	5.17167e+02
3167	5.18745e+02	3.16700e+03	7.19872e-02	5.17833e+02
3171	5.19418e+02	3.17100e+03	7.19205e-02	5.18500e+02
3175	5.20100e+02	3.17500e+03	7.18758e-02	5.19167e+02
3179	5.20778e+02	3.17900e+03	7.18195e-02	5.19833e+02
3183	5.21451e+02	3.18300e+03	7.16967e-02	5.20500e+02
3187	5.22126e+02	3.18700e+03	7.16706e-02	5.21167e+02
3191	5.22784e+02	3.19100e+03	7.18250e-02	5.21833e+02
3195	5.23446e+02	3.19500e+03	7.18998e-02	5.22500e+02
3199	5.24131e+02	3.19900e+03	7.18573e-02	5.23167e+02
3203	5.24795e+02	3.20300e+03	7.18825e-02	5.23833e+02
3207	5.25454e+02	3.20700e+03	7.19747e-02	5.24500e+02
3211	5.26131e+02	3.21100e+03	7.20318e-02	5.25167e+02
3215	5.26809e+02	3.21500e+03	7.19744e-02	5.25833e+02
3219	5.27480e+02	3.21900e+03	7.18594e-02	5.26500e+02
3223	5.28175e+02	3.22300e+03	7.17911e-02	5.27167e+02
3227	5.28852e+02	3.22700e+03	7.17109e-02	5.27833e+02
3231	5.29533e+02	3.23100e+03	7.16377e-02	5.28500e+02
3235	5.30204e+02	3.23500e+03	7.16892e-02	5.29167e+02
3239	5.30880e+02	3.23900e+03	7.17439e-02	5.29833e+02
3243	5.31544e+02	3.24300e+03	7.17379e-02	5.30500e+02
3247	5.32219e+02	3.24700e+03	7.17680e-02	5.31167e+02
3251	5.32889e+02	3.25100e+03	7.18559e-02	5.31833e+02
3255	5.33553e+02	3.25500e+03	7.19201e-02	5.32500e+02
3259	5.34226e+02	3.25900e+03	7.19543e-02	5.33167e+02
3263	5.34898e+02	3.26300e+03	7.19826e-02	5.33833e+02
3267	5.35569e+02	3.26700e+03	7.19627e-02	5.34500e+02
3271	5.36244e+02	3.27100e+03	7.19012e-02	5.35167e+02
3275	5.36903e+02	3.27500e+03	7.18065e-02	5.35833e+02
3279	5.37566e+02	3.27900e+03	7.17252e-02	5.36500e+02
3283	5.38231e+02	3.28300e+03	7.16759e-02	5.37167e+02
3287	5.38882e+02	3.28700e+03	7.16691e-02	5.37833e+02
3291	5.39544e+02	3.29100e+03	7.17079e-02	5.38500e+02
3295	5.40178e+02	3.29500e+03	7.17244e-02	5.39167e+02
3299	5.40839e+02	3.29900e+03	7.17367e-02	5.39833e+02
3303	5.41503e+02	3.30300e+03	7.17617e-02	5.40500e+02
3307	5.42159e+02	3.30700e+03	7.17302e-02	5.41167e+02
3311	5.42813e+02	3.31100e+03	7.16431e-02	5.41833e+02
3315	5.43470e+02	3.31500e+03	7.15105e-02	5.42500e+02
3319	5.44124e+02	3.31900e+03	7.13719e-02	5.43167e+02
3323	5.44819e+02	3.32300e+03	7.14532e-02	5.43833e+02
3327	5.45500e+02	3.32700e+03	7.15740e-02	5.44500e+02
3331	5.46181e+02	3.33100e+03	7.15010e-02	5.45167e+02
3335	5.46878e+02	3.33500e+03	7.14794e-02	5.45833e+02
3339	5.47547e+02	3.33900e+03	7.16910e-02	5.46500e+02
3343	5.48215e+02	3.34300e+03	7.18705e-02	5.47167e+02
3347	5.48874e+02	3.34700e+03	7.18665e-02	5.47833e+02
3351	5.49536e+02	3.35100e+03	7.18402e-02	5.48500e+02
3355	5.50207e+02	3.35500e+03	7.18112e-02	5.49167e+02
3359	5.50873e+02	3.35900e+03	7.18089e-02	5.49833e+02
3363	5.51541e+02	3.36300e+03	7.18085e-02	5.50500e+02
3367	5.52205e+02	3.36700e+03	7.17587e-02	5.51167e+02
3371	5.52860e+02	3.37100e+03	7.16637e-02	5.51833e+02
3375	5.53537e+02	3.37500e+03	7.15696e-02	5.52500e+02
3379	5.54201e+02	3.37900e+03	7.15425e-02	5.53167e+02
3383	5.54871e+02	3.38300e+03	7.16678e-02	5.53833e+02
3387	5.55531e+02	3.38700e+03	7.18139e-02	5.54500e+02
3391	5.56193e+02	3.39100e+03	7.17535e-02	5.55167e+02
3395	5.56872e+02	3.39500e+03	7.15384e-02	5.55833e+02
3399	5.57542e+02	3.39900e+03	7.14439e-02	5.56500e+02
3403	5.58213e+02	3.40300e+03	7.14624e-02	5.57167e+02
3407	5.58878e+02	3.40700e+03	7.15192e-02	5.57833e+02
3411	5.59548e+02	3.41100e+03	7.15846e-02	5.58500e+02
3415	5.60223e+02	3.41500e+03	7.15787e-02	5.59167e+02
3419	5.60928e+02	3.41900e+03	7.18816e-02	5.59833e+02
3423	5.61532e+02	3.42300e+03	7.19758e-02	5.60500e+02
3427	5.62189e+02	3.42700e+03	7.14024e-02	5.61167e+02
3431	5.62848e+02	3.43100e+03	7.12113e-02	5.61833e+02
3435	5.63516e+02	3.43500e+03	7.13116e-02	5.62500e+02
3439	5.64159e+02	3.43900e+03	7.13175e-02	5.63167e+02
3443	5.64855e+02	3.44300e+03	7.16062e-02	5.63833e+02
3447	5.65472e+02	3.44700e+03	7.17625e-02	5.64500e+02
3451	5.66126e+02	3.45100e+03	7.13448e-02	5.65167e+02
3455	5.66770e+02	3.45500e+03	7.10680e-02	5.65833e+02
3459	5.67418e+02	3.45900e+03	7.12935e-02	5.66500e+02
3463	5.68081e+02	3.46300e+03	7.14452e-02	5.67167e+02
3467	5.68735e+02	3.46700e+03	7.14678e-02	5.67833e+02
3471	5.69384e+02	3.47100e+03	7.15608e-02	5.68500e+02
3475	5.70036e+02	3.47500e+03	7.16182e-02	5.69167e+02
3479	5.70671e+02	3.47900e+03	7.15676e-02	5.69833e+02
3483	5.71326e+02	3.48300e+03	7.14746e-02	5.70500e+02
3487	5.71974e+02	3.48700e+03	7.13662e-02	5.71167e+02
3491	5.72621e+02	3.49100e+03	7.12743e-02	5.71833e+02
3495	5.73276e+02	3.49500e+03	7.11469e-02	5.72500e+02
3499	5.73932e+02	3.49900e+03	7.10537e-02	5.73167e+02
3503	5.74573e+02	3.50300e+03	7.10402e-02	5.73833e+02
3507	5.75226e+02	3.50700e+03	7.09529e-02	5.74500e+02
3511	5.75874e+02	3.51100e+03	7.08899e-02	5.75167e+02
3515	5.76524e+02	3.51500e+03	7.09514e-02	5.75833e+02
3519	5.77158e+02	3.51900e+03	7.09963e-02	5.76500e+02
3523	5.77806e+02	3.52300e+03	7.10908e-02	5.77167e+02
3527	5.78458e+02	3.52700e+03	7.12284e-02	5.77833e+02
3531	5.79119e+02	3.53100e+03	7.12936e-02	5.78500e+02
3535	5.79762e+02	3.53500e+03	7.12579e-02	5.79167e+02
3539	5.80403e+02	3.53900e+03	7.11764e-02	5.79833e+02
3543	5.81063e+02	3.54300e+03	7.11633e-02	5.80500e+02
3547	5.81707e+02	3.54700e+03	7.11447e-02	5.81167e+02
3551	5.82354e+02	3.55100e+03	7.10398e-02	5.81833e+02
3555	5.83003e+02	3.55500e+03	7.09324e-02	5.82500e+02
3559	5.83666e+02	3.55900e+03	7.09212e-02	5.83167e+02
3563	5.84312e+02	3.56300e+03	7.10700e-02	5.83833e+02
3567	5.84965e+02	3.56700e+03	7.12301e-02	5.84500e+02
3571	5.85632e+02	3.57100e+03	7.12031e-02	5.85167e+02
3575	5.86281e+02	3.57500e+03	7.10380e-02	5.85833e+02
3579	5.86928e+02	3.57900e+03	7.09412e-02	5.86500e+02
3583	5.87596e+02	3.58300e+03	7.10093e-02	5.87167e+02
3587	5.88243e+02	3.58700e+03	7.11335e-02	5.87833e+02
3591	5.88910e+02	3.59100e+03	7.11077e-02	5.88500e+02
3595	5.89562e+02	3.59500e+03	7.09332e-02	5.89167e+02
3599	5.90221e+02	3.59900e+03	7.08279e-02	5.89833e+02
3603	5.90883e+02	3.60300e+03	7.08281e-02	5.90500e+02
3607	5.91552e+02	3.60700e+03	7.08589e-02	5.91167e+02
3611	5.92223e+02	3.61100e+03	7.09057e-02	5.91833e+02
3615	5.92881e+02	3.61500e+03	7.09989e-02	5.92500e+02
3619	5.93552e+02	3.61900e+03	7.10409e-02	5.93167e+02
3623	5.94208e+02	3.62300e+03	7.09685e-02	5.93833e+02
3627	5.94875e+02	3.62700e+03	7.08474e-02	5.94500e+02
3631	5.95543e+02	3.63100e+03	7.08437e-02	5.95167e+02
3635	5.96212e+02	3.63500e+03	7.09633e-02	5.95833e+02
3639	5.96885e+02	3.63900e+03	7.10071e-02	5.96500e+02
3643	5.97538e+02	3.64300e+03	7.09571e-02	5.97167e+02
3647	5.98213e+02	3.64700e+03	7.08891e-02	5.97833e+02
3651	5.98880e+02	3.65100e+03	7.08537e-02	5.98500e+02
3655	5.99562e+02	3.65500e+03	7.08731e-02	5.99167e+02
3659	6.00236e+02	3.65900e+03	7.09444e-02	5.99833e+02
3663	6.00907e+02	3.66300e+03	7.09846e-02	6.00500e+02
3667	6.01603e+02	3.66700e+03	7.09590e-02	6.01167e+02
3671	6.02297e+02	3.67100e+03	7.09986e-02	6.01833e+02
3675	6.03002e+02	3.67500e+03	7.11632e-02	6.02500e+02
3679	6.03673e+02	3.67900e+03	7.12226e-02	6.03167e+02
3683	6.04367e+02	3.68300e+03	7.10807e-02	6.03833e+02
3687	6.05049e+02	3.68700e+03	7.09804e-02	6.04500e+02
3691	6.05710e+02	3.69100e+03	7.09970e-02	6.05167e+02
3695	6.06371e+02	3.69500e+03	7.10454e-02	6.05833e+02
3699	6.07045e+02	3.69900e+03	7.10639e-02	6.06500e+02
3703	6.07705e+02	3.70300e+03	7.10761e-02	6.07167e+02
3707	6.08363e+02	3.70700e+03	7.11048e-02	6.07833e+02
3711	6.09020e+02	3.71100e+03	7.10765e-02	6.08500e+02
3715	6.09697e+02	3.71500e+03	7.10206e-02	6.09167e+02
3719	6.10362e+02	3.71900e+03	7.10844e-02	6.09833e+02
3723	6.11036e+02	3.72300e+03	7.12047e-02	6.10500e+02
3727	6.11699e+02	3.72700e+03	7.12233e-02	6.11167e+02
3731	6.12356e+02	3.73100e+03	7.12031e-02	6.11833e+02
3735	6.13012e+02	3.73500e+03	7.11649e-02	6.12500e+02
3739	6.13684e+02	3.73900e+03	7.10568e-02	6.13167e+02
3743	6.14333e+02	3.74300e+03	7.09957e-02	6.13833e+02
3747	6.15009e+02	3.74700e+03	7.10126e-02	6.14500e+02
3751	6.15690e+02	3.75100e+03	7.10810e-02	6.15167e+02
3755	6.16330e+02	3.75500e+03	7.11188e-02	6.15833e+02
3759	6.17006e+02	3.75900e+03	7.09870e-02	6.16500e+02
3763	6.17660e+02	3.76300e+03	7.08650e-02	6.17167e+02
3767	6.18323e+02	3.76700e+03	7.08709e-02	6.17833e+02
3771	6.18977e+02	3.77100e+03	7.08651e-02	6.18500e+02
3775	6.19629e+02	3.77500e+03	7.08337e-02	6.19167e+02
3779	6.20300e+02	3.77900e+03	7.08412e-02	6.19833e+02
3783	6.20974e+02	3.78300e+03	7.09239e-02	6.20500e+02
3787	6.21641e+02	3.78700e+03	7.10777e-02	6.21167e+02
3791	6.22300e+02	3.79100e+03	7.11144e-02	6.21833e+02
3795	6.22977e+02	3.79500e+03	7.10177e-02	6.22500e+02
3799	6.23635e+02	3.79900e+03	7.09585e-02	6.23167e+02
3803	6.24297e+02	3.80300e+03	7.09211e-02	6.23833e+02
3807	6.24963e+02	3.80700e+03	7.08733e-02	6.24500e+02
3811	6.25626e+02	3.81100e+03	7.08616e-02	6.25167e+02
3815	6.26283e+02	3.81500e+03	7.08899e-02	6.25833e+02
3819	6.26950e+02	3.81900e+03	7.09405e-02	6.26500e+02
3823	6.27619e+02	3.82300e+03	7.09752e-02	6.27167e+02
3827	6.28286e+02	3.82700e+03	7.10084e-02	6.27833e+02
3831	6.28939e+02	3.83100e+03	7.10679e-02	6.28500e+02
3835	6.29604e+02	3.83500e+03	7.12183e-02	6.29167e+02
3839	6.30258e+02	3.83900e+03	7.14797e-02	6.29833e+02
3843	6.30917e+02	3.84300e+03	7.13210e-02	6.30500e+02
3847	6.31581e+02	3.84700e+03	7.09383e-02	6.31167e+02
3851	6.32251e+02	3.85100e+03	7.08824e-02	6.31833e+02
3855	6.32907e+02	3.85500e+03	7.09480e-02	6.32500e+02
3859	6.33568e+02	3.85900e+03	7.10473e-02	6.33167e+02
3863	6.34233e+02	3.86300e+03	7.10517e-02	6.33833e+02
3867	6.34896e+02	3.86700e+03	7.09280e-02	6.34500e+02
3871	6.35552e+02	3.87100e+03	7.08015e-02	6.35167e+02
3875	6.36230e+02	3.87500e+03	7.07052e-02	6.35833e+02
3879	6.36884e+02	3.87900e+03	7.07118e-02	6.36500e+02
3883	6.37546e+02	3.88300e+03	7.07032e-02	6.37167e+02
3887	6.38206e+02	3.88700e+03	7.07322e-02	6.37833e+02
3891	6.38887e+02	3.89100e+03	7.08168e-02	6.38500e+02
3895	6.39542e+02	3.89500e+03	7.07327e-02	6.39167e+02
3899	6.40222e+02	3.89900e+03	7.06141e-02	6.39833e+02
3903	6.40888e+02	3.90300e+03	7.05904e-02	6.40500e+02
3907	6.41549e+02	3.90700e+03	7.06547e-02	6.41167e+02
3911	6.42225e+02	3.91100e+03	7.09312e-02	6.41833e+02
3915	6.42866e+02	3.91500e+03	7.14436e-02	6.42500e+02
3919	6.43541e+02	3.91900e+03	7.11878e-02	6.43167e+02
3923	6.44200e+02	3.92300e+03	7.03345e-02	6.43833e+02
3927	6.44852e+02	3.92700e+03	7.01933e-02	6.44500e+02
3931	6.45501e+02	3.93100e+03	7.04245e-02	6.45167e+02
3935	6.46157e+02	3.93500e+03	7.04728e-02	6.45833e+02
3939	6.46811e+02	3.93900e+03	7.04851e-02	6.46500e+02
3943	6.47473e+02	3.94300e+03	7.05834e-02	6.47167e+02
3947	6.48135e+02	3.94700e+03	7.07201e-02	6.47833e+02
3951	6.48797e+02	3.95100e+03	7.07904e-02	6.48500e+02
3955	6.49457e+02	3.95500e+03	7.07978e-02	6.49167e+02
3959	6.50104e+02	3.95900e+03	7.08476e-02	6.49833e+02
3963	6.50778e+02	3.96300e+03	7.08155e-02	6.50500e+02
3967	6.51445e+02	3.96700e+03	7.06955e-02	6.51167e+02
3971	6.52103e+02	3.97100e+03	7.06071e-02	6.51833e+02
3975	6.52754e+02	3.97500e+03	7.05843e-02	6.52500e+02
3979	6.53419e+02	3.97900e+03	7.06898e-02	6.53167e+02
3983	6.54090e+02	3.98300e+03	7.07415e-02	6.53833e+02
3987	6.54742e+02	3.98700e+03	7.06657e-02	6.54500e+02
3991	6.55415e+02	3.99100e+03	7.06350e-02	6.55167e+02
3995	6.56076e+02	3.99500e+03	7.06592e-02	6.55833e+02
3999	6.56732e+02	3.99900e+03	7.06342e-02	6.56500e+02
4003	6.57392e+02	4.00300e+03	7.05947e-02	6.57167e+02
4007	6.58064e+02	4.00700e+03	7.06458e-02	6.57833e+02
4011	6.58726e+02	4.01100e+03	7.06769e-02	6.58500e+02
4015	6.59378e+02	4.01500e+03	7.05697e-02	6.59167e+02
4019	6.60039e+02	4.01900e+03	7.04927e-02	6.59833e+02
4023	6.60693e+02	4.02300e+03	7.05525e-02	6.60500e+02
4027	6.61360e+02	4.02700e+03	7.06379e-02	6.61167e+02
4031	6.62013e+02	4.03100e+03	7.06749e-02	6.61833e+02
4035	6.62696e+02	4.03500e+03	7.06370e-02	6.62500e+02
4039	6.63344e+02	4.03900e+03	7.05635e-02	6.63167e+02
4043	6.64002e+02	4.04300e+03	7.05331e-02	6.63833e+02
4047	6.64663e+02	4.04700e+03	7.05202e-02	6.64500e+02
4051	6.65317e+02	4.05100e+03	7.04912e-02	6.65167e+02
4055	6.65984e+02	4.05500e+03	7.05113e-02	6.65833e+02
4059	6.66653e+02	4.05900e+03	7.05733e-02	6.66500e+02
4063	6.67311e+02	4.06300e+03	7.06519e-02	6.67167e+02
4067	6.67972e+02	4.06700e+03	7.07065e-02	6.67833e+02
4071	6.68648e+02	4.07100e+03	7.07153e-02	6.68500e+02
4075	6.69302e+02	4.07500e+03	7.06979e-02	6.69167e+02
4079	6.69965e+02	4.07900e+03	7.06010e-02	6.69833e+02
4083	6.70642e+02	4.08300e+03	7.04992e-02	6.70500e+02
4087	6.71303e+02	4.08700e+03	7.05822e-02	6.71167e+02
4091	6.71962e+02	4.09100e+03	7.07254e-02	6.71833e+02
4095	6.72639e+02	4.09500e+03	7.07192e-02	6.72500e+02
4099	6.73299e+02	4.09900e+03	7.06377e-02	6.73167e+02
4103	6.73972e+02	4.10300e+03	7.06126e-02	6.73833e+02
4107	6.74632e+02	4.10700e+03	7.06241e-02	6.74500e+02
4111	6.75300e+02	4.11100e+03	7.05580e-02	6.75167e+02
4115	6.75974e+02	4.11500e+03	7.03943e-02	6.75833e+02
4119	6.76646e+02	4.11900e+03	7.03386e-02	6.76500e+02
4123	6.77304e+02	4.12300e+03	7.04461e-02	6.77167e+02
4127	6.77978e+02	4.12700e+03	7.05192e-02	6.77833e+02
4131	6.78645e+02	4.13100e+03	7.04705e-02	6.78500e+02
4135	6.79322e+02	4.13500e+03	7.03618e-02	6.79167e+02
4139	6.79985e+02	4.13900e+03	7.03051e-02	6.79833e+02
4143	6.80643e+02	4.14300e+03	7.02451e-02	6.80500e+02
4147	6.81305e+02	4.14700e+03	7.01519e-02	6.81167e+02
4151	6.81975e+02	4.15100e+03	7.00734e-02	6.81833e+02
4155	6.82645e+02	4.15500e+03	7.01041e-02	6.82500e+02
4159	6.83310e+02	4.15900e+03	7.02376e-02	6.83167e+02
4163	6.83982e+02	4.16300e+03	7.03805e-02	6.83833e+02
4167	6.84647e+02	4.16700e+03	7.04796e-02	6.84500e+02
4171	6.85323e+02	4.17100e+03	7.04865e-02	6.85167e+02
4175	6.85981e+02	4.17500e+03	7.04588e-02	6.85833e+02
4179	6.86667e+02	4.17900e+03	7.03837e-02	6.86500e+02
4183	6.87327e+02	4.18300e+03	7.02777e-02	6.87167e+02
4187	6.87996e+02	4.18700e+03	7.01765e-02	6.87833e+02
4191	6.88673e+02	4.19100e+03	7.01729e-02	6.88500e+02
4195	6.89342e+02	4.19500e+03	7.03468e-02	6.89167e+02
4199	6.90009e+02	4.19900e+03	7.04972e-02	6.89833e+02
4203	6.90665e+02	4.20300e+03	7.05316e-02	6.90500e+02
4207	6.91339e+02	4.20700e+03	7.05310e-02	6.91167e+02
4211	6.92004e+02	4.21100e+03	7.04867e-02	6.91833e+02
4215	6.92678e+02	4.21500e+03	7.04234e-02	6.92500e+02
4219	6.93337e+02	4.21900e+03	7.04227e-02	6.93167e+02
4223	6.94008e+02	4.22300e+03	7.04301e-02	6.93833e+02
4227	6.94664e+02	4.22700e+03	7.04273e-02	6.94500e+02
4231	6.95346e+02	4.23100e+03	7.05394e-02	6.95167e+02
4235	6.95919e+02	4.23500e+03	7.06209e-02	6.95833e+02
4239	6.96361e+02	4.23900e+03	7.05930e-02	6.96500e+02
4243	6.96840e+02	4.24300e+03	7.06181e-02	6.97167e+02
4247	6.97245e+02	4.24700e+03	7.06791e-02	6.97833e+02
4251	6.97613e+02	4.25100e+03	7.06229e-02	6.98500e+02
4255	6.97935e+02	4.25500e+03	7.04718e-02	6.99167e+02
4259	6.98221e+02	4.25900e+03	7.04253e-02	6.99833e+02
4260	6.98286e+02	4.26000e+03	7.04422e-02	7.00000e+02