File: Experiments/TUBS/tga_nonisotherm/tga_dynamic_n2_dyn10_powder_1mg_r2.txt
index	ts	t	weight	tr
[#]	[°C]	[s]	[mg]	[°C]
843	1.31049e+02	8.43000e+02	1.04976e+00	1.30500e+02
847	1.31732e+02	8.47000e+02	1.04972e+00	1.31167e+02
851	1.32406e+02	8.51000e+02	1.04970e+00	1.31833e+02
855	1.33081e+02	8.55000e+02	1.04968e+00	1.32500e+02
859	1.33757e+02	8.59000e+02	1.04966e+00	1.33167e+02
863	1.34442e+02	8.63000e+02	1.04965e+00	1.33833e+02
867	1.35109e+02	8.67000e+02	1.04961e+00	1.34500e+02
871	1.35790e+02	8.71000e+02	1.04953e+00	1.35167e+02
875	1.36455e+02	8.75000e+02	1.04939e+00	1.35833e+02
879	1.37140e+02	8.79000e+02	1.04924e+00	1.36500e+02
883	1.37808e+02	8.83000e+02	1.04912e+00	1.37167e+02
887	1.38496e+02	8.87000e+02	1.04909e+00	1.37833e+02
891	1.39178e+02	8.91000e+02	1.04909e+00	1.38500e+02
895	1.39846e+02	8.95000e+02	1.04911e+00	1.39167e+02
899	1.40524e+02	8.99000e+02	1.04913e+00	1.39833e+02
903	1.41202e+02	9.03000e+02	1.04907e+00	1.40500e+02
907	1.41877e+02	9.07000e+02	1.04888e+00	1.41167e+02
911	1.42554e+02	9.11000e+02	1.04871e+00	1.41833e+02
915	1.43231e+02	9.15000e+02	1.04867e+00	1.42500e+02
919	1.43912e+02	9.19000e+02	1.04855e+00	1.43167e+02
923	1.44585e+02	9.23000e+02	1.04818e+00	1.43833e+02
927	1.45280e+02	9.27000e+02	1.04799e+00	1.44500e+02
931	1.45949e+02	9.31000e+02	1.04831e+00	1.45167e+02
935	1.46628e+02	9.35000e+02	1.04854e+00	1.45833e+02
939	1.47312e+02	9.39000e+02	1.04837e+00	1.46500e+02
943	1.47978e+02	9.43000e+02	1.04811e+00	1.47167e+02
947	1.48661e+02	9.47000e+02	1.04784e+00	1.47833e+02
951	1.49339e+02	9.51000e+02	1.04762e+00	1.48500e+02
955	1.50023e+02	9.55000e+02	1.04757e+00	1.49167e+02
959	1.50687e+02	9.59000e+02	1.04750e+00	1.49833e+02
963	1.51376e+02	9.63000e+02	1.04727e+00	1.50500e+02
967	1.52062e+02	9.67000e+02	1.04709e+00	1.51167e+02
971	1.52747e+02	9.71000e+02	1.04703e+00	1.51833e+02
975	1.53405e+02	9.75000e+02	1.04692e+00	1.52500e+02
979	1.54096e+02	9.79000e+02	1.04670e+00	1.53167e+02
983	1.54764e+02	9.83000e+02	1.04647e+00	1.53833e+02
987	1.55456e+02	9.87000e+02	1.04631e+00	1.54500e+02
991	1.56124e+02	9.91000e+02	1.04627e+00	1.55167e+02
995	1.56804e+02	9.95000e+02	1.04625e+00	1.55833e+02
999	1.57489e+02	9.99000e+02	1.04603e+00	1.56500e+02
1003	1.58151e+02	1.00300e+03	1.04575e+00	1.57167e+02
1007	1.58840e+02	1.00700e+03	1.04566e+00	1.57833e+02
1011	1.59521e+02	1.01100e+03	1.04554e+00	1.58500e+02
1015	1.60195e+02	1.01500e+03	1.04529e+00	1.59167e+02
1019	1.60880e+02	1.01900e+03	1.04507e+00	1.59833e+02
1023	1.61557e+02	1.02300e+03	1.04491e+00	1.60500e+02
1027	1.62232e+02	1.02700e+03	1.04484e+00	1.61167e+02
1031	1.62919e+02	1.03100e+03	1.04475e+00	1.61833e+02
1035	1.63597e+02	1.03500e+03	1.04445e+00	1.62500e+02
1039	1.64280e+02	1.03900e+03	1.04407e+00	1.63167e+02
1043	1.64960e+02	1.04300e+03	1.04384e+00	1.63833e+02
1047	1.65631e+02	1.04700e+03	1.04372e+00	1.64500e+02
1051	1.66308e+02	1.05100e+03	1.04357e+00	1.65167e+02
1055	1.66985e+02	1.05500e+03	1.04328e+00	1.65833e+02
1059	1.67668e+02	1.05900e+03	1.04288e+00	1.66500e+02
1063	1.68350e+02	1.06300e+03	1.04248e+00	1.67167e+02
1067	1.69037e+02	1.06700e+03	1.04214e+00	1.67833e+02
1071	1.69693e+02	1.07100e+03	1.04187e+00	1.68500e+02
1075	1.70373e+02	1.07500e+03	1.04160e+00	1.69167e+02
1079	1.71052e+02	1.07900e+03	1.04122e+00	1.69833e+02
1083	1.71729e+02	1.08300e+03	1.04079e+00	1.70500e+02
1087	1.72410e+02	1.08700e+03	1.04034e+00	1.71167e+02
1091	1.73097e+02	1.09100e+03	1.03981e+00	1.71833e+02
1095	1.73768e+02	1.09500e+03	1.03926e+00	1.72500e+02
1099	1.74440e+02	1.09900e+03	1.03872e+00	1.73167e+02
1103	1.75112e+02	1.10300e+03	1.03823e+00	1.73833e+02
1107	1.75789e+02	1.10700e+03	1.03771e+00	1.74500e+02
1111	1.76457e+02	1.11100e+03	1.03709e+00	1.75167e+02
1115	1.77139e+02	1.11500e+03	1.03644e+00	1.75833e+02
1119	1.77824e+02	1.11900e+03	1.03583e+00	1.76500e+02
1123	1.78507e+02	1.12300e+03	1.03521e+00	1.77167e+02
1127	1.79176e+02	1.12700e+03	1.03451e+00	1.77833e+02
1131	1.79850e+02	1.13100e+03	1.03372e+00	1.78500e+02
1135	1.80539e+02	1.13500e+03	1.03297e+00	1.79167e+02
1139	1.81203e+02	1.13900e+03	1.03219e+00	1.79833e+02
1143	1.81873e+02	1.14300e+03	1.03130e+00	1.80500e+02
1147	1.82569e+02	1.14700e+03	1.03042e+00	1.81167e+02
1151	1.83234e+02	1.15100e+03	1.02956e+00	1.81833e+02
1155	1.83907e+02	1.15500e+03	1.02866e+00	1.82500e+02
1159	1.84582e+02	1.15900e+03	1.02773e+00	1.83167e+02
1163	1.85263e+02	1.16300e+03	1.02680e+00	1.83833e+02
1167	1.85945e+02	1.16700e+03	1.02595e+00	1.84500e+02
1171	1.86622e+02	1.17100e+03	1.02523e+00	1.85167e+02
1175	1.87306e+02	1.17500e+03	1.02455e+00	1.85833e+02
1179	1.87980e+02	1.17900e+03	1.02386e+00	1.86500e+02
1183	1.88657e+02	1.18300e+03	1.02308e+00	1.87167e+02
1187	1.89319e+02	1.18700e+03	1.02227e+00	1.87833e+02
1191	1.89994e+02	1.19100e+03	1.02154e+00	1.88500e+02
1195	1.90674e+02	1.19500e+03	1.02090e+00	1.89167e+02
1199	1.91357e+02	1.19900e+03	1.02029e+00	1.89833e+02
1203	1.92020e+02	1.20300e+03	1.01972e+00	1.90500e+02
1207	1.92700e+02	1.20700e+03	1.01921e+00	1.91167e+02
1211	1.93369e+02	1.21100e+03	1.01866e+00	1.91833e+02
1215	1.94037e+02	1.21500e+03	1.01805e+00	1.92500e+02
1219	1.94713e+02	1.21900e+03	1.01748e+00	1.93167e+02
1223	1.95384e+02	1.22300e+03	1.01700e+00	1.93833e+02
1227	1.96057e+02	1.22700e+03	1.01648e+00	1.94500e+02
1231	1.96744e+02	1.23100e+03	1.01590e+00	1.95167e+02
1235	1.97416e+02	1.23500e+03	1.01539e+00	1.95833e+02
1239	1.98085e+02	1.23900e+03	1.01520e+00	1.96500e+02
1243	1.98747e+02	1.24300e+03	1.01521e+00	1.97167e+02
1247	1.99435e+02	1.24700e+03	1.01501e+00	1.97833e+02
1251	2.00105e+02	1.25100e+03	1.01464e+00	1.98500e+02
1255	2.00776e+02	1.25500e+03	1.01429e+00	1.99167e+02
1259	2.01452e+02	1.25900e+03	1.01396e+00	1.99833e+02
1263	2.02131e+02	1.26300e+03	1.01363e+00	2.00500e+02
1267	2.02790e+02	1.26700e+03	1.01335e+00	2.01167e+02
1271	2.03470e+02	1.27100e+03	1.01320e+00	2.01833e+02
1275	2.04151e+02	1.27500e+03	1.01315e+00	2.02500e+02
1279	2.04826e+02	1.27900e+03	1.01298e+00	2.03167e+02
1283	2.05496e+02	1.28300e+03	1.01282e+00	2.03833e+02
1287	2.06162e+02	1.28700e+03	1.01277e+00	2.04500e+02
1291	2.06846e+02	1.29100e+03	1.01264e+00	2.05167e+02
1295	2.07521e+02	1.29500e+03	1.01245e+00	2.05833e+02
1299	2.08201e+02	1.29900e+03	1.01231e+00	2.06500e+02
1303	2.08879e+02	1.30300e+03	1.01221e+00	2.07167e+02
1307	2.09541e+02	1.30700e+03	1.01206e+00	2.07833e+02
1311	2.10220e+02	1.31100e+03	1.01176e+00	2.08500e+02
1315	2.10883e+02	1.31500e+03	1.01140e+00	2.09167e+02
1319	2.11554e+02	1.31900e+03	1.01140e+00	2.09833e+02
1323	2.12225e+02	1.32300e+03	1.01164e+00	2.10500e+02
1327	2.12890e+02	1.32700e+03	1.01152e+00	2.11167e+02
1331	2.13563e+02	1.33100e+03	1.01112e+00	2.11833e+02
1335	2.14231e+02	1.33500e+03	1.01088e+00	2.12500e+02
1339	2.14893e+02	1.33900e+03	1.01075e+00	2.13167e+02
1343	2.15568e+02	1.34300e+03	1.01066e+00	2.13833e+02
1347	2.16225e+02	1.34700e+03	1.01055e+00	2.14500e+02
1351	2.16891e+02	1.35100e+03	1.01037e+00	2.15167e+02
1355	2.17558e+02	1.35500e+03	1.01024e+00	2.15833e+02
1359	2.18209e+02	1.35900e+03	1.01007e+00	2.16500e+02
1363	2.18885e+02	1.36300e+03	1.00978e+00	2.17167e+02
1367	2.19561e+02	1.36700e+03	1.00954e+00	2.17833e+02
1371	2.20212e+02	1.37100e+03	1.00939e+00	2.18500e+02
1375	2.20873e+02	1.37500e+03	1.00927e+00	2.19167e+02
1379	2.21525e+02	1.37900e+03	1.00911e+00	2.19833e+02
1383	2.22200e+02	1.38300e+03	1.00903e+00	2.20500e+02
1387	2.22856e+02	1.38700e+03	1.00903e+00	2.21167e+02
1391	2.23522e+02	1.39100e+03	1.00896e+00	2.21833e+02
1395	2.24181e+02	1.39500e+03	1.00872e+00	2.22500e+02
1399	2.24838e+02	1.39900e+03	1.00844e+00	2.23167e+02
1403	2.25505e+02	1.40300e+03	1.00826e+00	2.23833e+02
1407	2.26181e+02	1.40700e+03	1.00813e+00	2.24500e+02
1411	2.26849e+02	1.41100e+03	1.00799e+00	2.25167e+02
1415	2.27519e+02	1.41500e+03	1.00792e+00	2.25833e+02
1419	2.28166e+02	1.41900e+03	1.00788e+00	2.26500e+02
1423	2.28835e+02	1.42300e+03	1.00777e+00	2.27167e+02
1427	2.29507e+02	1.42700e+03	1.00762e+00	2.27833e+02
1431	2.30172e+02	1.43100e+03	1.00753e+00	2.28500e+02
1435	2.30840e+02	1.43500e+03	1.00744e+00	2.29167e+02
1439	2.31513e+02	1.43900e+03	1.00735e+00	2.29833e+02
1443	2.32174e+02	1.44300e+03	1.00732e+00	2.30500e+02
1447	2.32834e+02	1.44700e+03	1.00714e+00	2.31167e+02
1451	2.33499e+02	1.45100e+03	1.00697e+00	2.31833e+02
1455	2.34180e+02	1.45500e+03	1.00704e+00	2.32500e+02
1459	2.34832e+02	1.45900e+03	1.00703e+00	2.33167e+02
1463	2.35493e+02	1.46300e+03	1.00691e+00	2.33833e+02
1467	2.36156e+02	1.46700e+03	1.00679e+00	2.34500e+02
1471	2.36827e+02	1.47100e+03	1.00667e+00	2.35167e+02
1475	2.37490e+02	1.47500e+03	1.00657e+00	2.35833e+02
1479	2.38161e+02	1.47900e+03	1.00648e+00	2.36500e+02
1483	2.38816e+02	1.48300e+03	1.00633e+00	2.37167e+02
1487	2.39478e+02	1.48700e+03	1.00618e+00	2.37833e+02
1491	2.40140e+02	1.49100e+03	1.00611e+00	2.38500e+02
1495	2.40808e+02	1.49500e+03	1.00616e+00	2.39167e+02
1499	2.41462e+02	1.49900e+03	1.00619e+00	2.39833e+02
1503	2.42119e+02	1.50300e+03	1.00608e+00	2.40500e+02
1507	2.42794e+02	1.50700e+03	1.00592e+00	2.41167e+02
1511	2.43456e+02	1.51100e+03	1.00580e+00	2.41833e+02
1515	2.44127e+02	1.51500e+03	1.00573e+00	2.42500e+02
1519	2.44799e+02	1.51900e+03	1.00563e+00	2.43167e+02
1523	2.45463e+02	1.52300e+03	1.00564e+00	2.43833e+02
1527	2.46144e+02	1.52700e+03	1.00577e+00	2.44500e+02
1531	2.46799e+02	1.53100e+03	1.00567e+00	2.45167e+02
1535	2.47476e+02	1.53500e+03	1.00548e+00	2.45833e+02
1539	2.48149e+02	1.53900e+03	1.00541e+00	2.46500e+02
1543	2.48811e+02	1.54300e+03	1.00529e+00	2.47167e+02
1547	2.49482e+02	1.54700e+03	1.00517e+00	2.47833e+02
1551	2.50137e+02	1.55100e+03	1.00510e+00	2.48500e+02
1555	2.50819e+02	1.55500e+03	1.00504e+00	2.49167e+02
1559	2.51488e+02	1.55900e+03	1.00497e+00	2.49833e+02
1563	2.52156e+02	1.56300e+03	1.00486e+00	2.50500e+02
1567	2.52812e+02	1.56700e+03	1.00473e+00	2.51167e+02
1571	2.53488e+02	1.57100e+03	1.00466e+00	2.51833e+02
1575	2.54157e+02	1.57500e+03	1.00454e+00	2.52500e+02
1579	2.54827e+02	1.57900e+03	1.00435e+00	2.53167e+02
1583	2.55491e+02	1.58300e+03	1.00417e+00	2.53833e+02
1587	2.56167e+02	1.58700e+03	1.00398e+00	2.54500e+02
1591	2.56837e+02	1.59100e+03	1.00388e+00	2.55167e+02
1595	2.57503e+02	1.59500e+03	1.00394e+00	2.55833e+02
1599	2.58177e+02	1.59900e+03	1.00398e+00	2.56500e+02
1603	2.58854e+02	1.60300e+03	1.00388e+00	2.57167e+02
1607	2.59530e+02	1.60700e+03	1.00378e+00	2.57833e+02
1611	2.60217e+02	1.61100e+03	1.00368e+00	2.58500e+02
1615	2.60866e+02	1.61500e+03	1.00346e+00	2.59167e+02
1619	2.61534e+02	1.61900e+03	1.00324e+00	2.59833e+02
1623	2.62202e+02	1.62300e+03	1.00311e+00	2.60500e+02
1627	2.62875e+02	1.62700e+03	1.00295e+00	2.61167e+02
1631	2.63552e+02	1.63100e+03	1.00273e+00	2.61833e+02
1635	2.64212e+02	1.63500e+03	1.00251e+00	2.62500e+02
1639	2.64876e+02	1.63900e+03	1.00238e+00	2.63167e+02
1643	2.65552e+02	1.64300e+03	1.00229e+00	2.63833e+02
1647	2.66225e+02	1.64700e+03	1.00213e+00	2.64500e+02
1651	2.66908e+02	1.65100e+03	1.00197e+00	2.65167e+02
1655	2.67578e+02	1.65500e+03	1.00190e+00	2.65833e+02
1659	2.68268e+02	1.65900e+03	1.00173e+00	2.66500e+02
1663	2.68945e+02	1.66300e+03	1.00140e+00	2.67167e+02
1667	2.69596e+02	1.66700e+03	1.00109e+00	2.67833e+02
1671	2.70287e+02	1.67100e+03	1.00080e+00	2.68500e+02
1675	2.70945e+02	1.67500e+03	1.00045e+00	2.69167e+02
1679	2.71617e+02	1.67900e+03	1.00011e+00	2.69833e+02
1683	2.72289e+02	1.68300e+03	9.99921e-01	2.70500e+02
1687	2.72960e+02	1.68700e+03	9.99760e-01	2.71167e+02
1691	2.73624e+02	1.69100e+03	9.99581e-01	2.71833e+02
1695	2.74301e+02	1.69500e+03	9.99410e-01	2.72500e+02
1699	2.74950e+02	1.69900e+03	9.99127e-01	2.73167e+02
1703	2.75649e+02	1.70300e+03	9.98729e-01	2.73833e+02
1707	2.76314e+02	1.70700e+03	9.98328e-01	2.74500e+02
1711	2.76978e+02	1.71100e+03	9.97889e-01	2.75167e+02
1715	2.77642e+02	1.71500e+03	9.97422e-01	2.75833e+02
1719	2.78299e+02	1.71900e+03	9.97060e-01	2.76500e+02
1723	2.78967e+02	1.72300e+03	9.96768e-01	2.77167e+02
1727	2.79635e+02	1.72700e+03	9.96451e-01	2.77833e+02
1731	2.80300e+02	1.73100e+03	9.96072e-01	2.78500e+02
1735	2.80972e+02	1.73500e+03	9.95555e-01	2.79167e+02
1739	2.81650e+02	1.73900e+03	9.94957e-01	2.79833e+02
1743	2.82314e+02	1.74300e+03	9.94454e-01	2.80500e+02
1747	2.82985e+02	1.74700e+03	9.93998e-01	2.81167e+02
1751	2.83637e+02	1.75100e+03	9.93445e-01	2.81833e+02
1755	2.84280e+02	1.75500e+03	9.92817e-01	2.82500e+02
1759	2.84930e+02	1.75900e+03	9.92219e-01	2.83167e+02
1763	2.85566e+02	1.76300e+03	9.91563e-01	2.83833e+02
1767	2.86226e+02	1.76700e+03	9.90806e-01	2.84500e+02
1771	2.86867e+02	1.77100e+03	9.90085e-01	2.85167e+02
1775	2.87504e+02	1.77500e+03	9.89428e-01	2.85833e+02
1779	2.88156e+02	1.77900e+03	9.88715e-01	2.86500e+02
1783	2.88789e+02	1.78300e+03	9.87888e-01	2.87167e+02
1787	2.89430e+02	1.78700e+03	9.87014e-01	2.87833e+02
1791	2.90061e+02	1.79100e+03	9.86166e-01	2.88500e+02
1795	2.90697e+02	1.79500e+03	9.85301e-01	2.89167e+02
1799	2.91336e+02	1.79900e+03	9.84363e-01	2.89833e+02
1803	2.91990e+02	1.80300e+03	9.83459e-01	2.90500e+02
1807	2.92632e+02	1.80700e+03	9.82552e-01	2.91167e+02
1811	2.93273e+02	1.81100e+03	9.81501e-01	2.91833e+02
1815	2.93919e+02	1.81500e+03	9.80389e-01	2.92500e+02
1819	2.94564e+02	1.81900e+03	9.79437e-01	2.93167e+02
1823	2.95207e+02	1.82300e+03	9.78447e-01	2.93833e+02
1827	2.95851e+02	1.82700e+03	9.77155e-01	2.94500e+02
1831	2.96513e+02	1.83100e+03	9.75848e-01	2.95167e+02
1835	2.97161e+02	1.83500e+03	9.74682e-01	2.95833e+02
1839	2.97810e+02	1.83900e+03	9.73546e-01	2.96500e+02
1843	2.98477e+02	1.84300e+03	9.72342e-01	2.97167e+02
1847	2.99125e+02	1.84700e+03	9.71047e-01	2.97833e+02
1851	2.99773e+02	1.85100e+03	9.69755e-01	2.98500e+02
1855	3.00407e+02	1.85500e+03	9.68446e-01	2.99167e+02
1859	3.01076e+02	1.85900e+03	9.67082e-01	2.99833e+02
1863	3.01715e+02	1.86300e+03	9.65710e-01	3.00500e+02
1867	3.02366e+02	1.86700e+03	9.64353e-01	3.01167e+02
1871	3.03031e+02	1.87100e+03	9.62981e-01	3.01833e+02
1875	3.03693e+02	1.87500e+03	9.61544e-01	3.02500e+02
1879	3.04360e+02	1.87900e+03	9.60143e-01	3.03167e+02
1883	3.05021e+02	1.88300e+03	9.58820e-01	3.03833e+02
1887	3.05691e+02	1.88700e+03	9.57500e-01	3.04500e+02
1891	3.06346e+02	1.89100e+03	9.56189e-01	3.05167e+02
1895	3.07015e+02	1.89500e+03	9.54912e-01	3.05833e+02
1899	3.07668e+02	1.89900e+03	9.53667e-01	3.06500e+02
1903	3.08338e+02	1.90300e+03	9.52480e-01	3.07167e+02
1907	3.08995e+02	1.90700e+03	9.51266e-01	3.07833e+02
1911	3.09667e+02	1.91100e+03	9.49872e-01	3.08500e+02
1915	3.10333e+02	1.91500e+03	9.48507e-01	3.09167e+02
1919	3.10985e+02	1.91900e+03	9.47382e-01	3.09833e+02
1923	3.11660e+02	1.92300e+03	9.46323e-01	3.10500e+02
1927	3.12325e+02	1.92700e+03	9.45190e-01	3.11167e+02
1931	3.12995e+02	1.93100e+03	9.43966e-01	3.11833e+02
1935	3.13658e+02	1.93500e+03	9.42698e-01	3.12500e+02
1939	3.14336e+02	1.93900e+03	9.41448e-01	3.13167e+02
1943	3.15005e+02	1.94300e+03	9.40097e-01	3.13833e+02
1947	3.15659e+02	1.94700e+03	9.38655e-01	3.14500e+02
1951	3.16325e+02	1.95100e+03	9.37299e-01	3.15167e+02
1955	3.17000e+02	1.95500e+03	9.35969e-01	3.15833e+02
1959	3.17657e+02	1.95900e+03	9.34479e-01	3.16500e+02
1963	3.18325e+02	1.96300e+03	9.32931e-01	3.17167e+02
1967	3.18999e+02	1.96700e+03	9.31358e-01	3.17833e+02
1971	3.19655e+02	1.97100e+03	9.29731e-01	3.18500e+02
1975	3.20329e+02	1.97500e+03	9.28144e-01	3.19167e+02
1979	3.20993e+02	1.97900e+03	9.26396e-01	3.19833e+02
1983	3.21651e+02	1.98300e+03	9.24372e-01	3.20500e+02
1987	3.22316e+02	1.98700e+03	9.22263e-01	3.21167e+02
1991	3.22987e+02	1.99100e+03	9.20349e-01	3.21833e+02
1995	3.23634e+02	1.99500e+03	9.18482e-01	3.22500e+02
1999	3.24314e+02	1.99900e+03	9.16311e-01	3.23167e+02
2003	3.24973e+02	2.00300e+03	9.13992e-01	3.23833e+02
2007	3.25652e+02	2.00700e+03	9.11694e-01	3.24500e+02
2011	3.26310e+02	2.01100e+03	9.09327e-01	3.25167e+02
2015	3.26990e+02	2.01500e+03	9.06812e-01	3.25833e+02
2019	3.27643e+02	2.01900e+03	9.04163e-01	3.26500e+02
2023	3.28320e+02	2.02300e+03	9.01276e-01	3.27167e+02
2027	3.28979e+02	2.02700e+03	8.98275e-01	3.27833e+02
2031	3.29638e+02	2.03100e+03	8.95287e-01	3.28500e+02
2035	3.30306e+02	2.03500e+03	8.92098e-01	3.29167e+02
2039	3.30973e+02	2.03900e+03	8.88738e-01	3.29833e+02
2043	3.31641e+02	2.04300e+03	8.85514e-01	3.30500e+02
2047	3.32298e+02	2.04700e+03	8.82239e-01	3.31167e+02
2051	3.32965e+02	2.05100e+03	8.78309e-01	3.31833e+02
2055	3.33638e+02	2.05500e+03	8.73821e-01	3.32500e+02
2059	3.34293e+02	2.05900e+03	8.69498e-01	3.33167e+02
2063	3.34954e+02	2.06300e+03	8.65657e-01	3.33833e+02
2067	3.35620e+02	2.06700e+03	8.61728e-01	3.34500e+02
2071	3.36286e+02	2.07100e+03	8.57156e-01	3.35167e+02
2075	3.36948e+02	2.07500e+03	8.52027e-01	3.35833e+02
2079	3.37606e+02	2.07900e+03	8.46680e-01	3.36500e+02
2083	3.38290e+02	2.08300e+03	8.41374e-01	3.37167e+02
2087	3.38977e+02	2.08700e+03	8.35998e-01	3.37833e+02
2091	3.39661e+02	2.09100e+03	8.30350e-01	3.38500e+02
2095	3.40353e+02	2.09500e+03	8.24464e-01	3.39167e+02
2099	3.41047e+02	2.09900e+03	8.18362e-01	3.39833e+02
2103	3.41727e+02	2.10300e+03	8.12027e-01	3.40500e+02
2107	3.42426e+02	2.10700e+03	8.05442e-01	3.41167e+02
2111	3.43090e+02	2.11100e+03	7.98630e-01	3.41833e+02
2115	3.43763e+02	2.11500e+03	7.91592e-01	3.42500e+02
2119	3.44434e+02	2.11900e+03	7.84328e-01	3.43167e+02
2123	3.45136e+02	2.12300e+03	7.76913e-01	3.43833e+02
2127	3.45837e+02	2.12700e+03	7.69243e-01	3.44500e+02
2131	3.46524e+02	2.13100e+03	7.61320e-01	3.45167e+02
2135	3.47211e+02	2.13500e+03	7.53425e-01	3.45833e+02
2139	3.47887e+02	2.13900e+03	7.45511e-01	3.46500e+02
2143	3.48558e+02	2.14300e+03	7.37150e-01	3.47167e+02
2147	3.49221e+02	2.14700e+03	7.28232e-01	3.47833e+02
2151	3.49884e+02	2.15100e+03	7.19128e-01	3.48500e+02
2155	3.50566e+02	2.15500e+03	7.09980e-01	3.49167e+02
2159	3.51244e+02	2.15900e+03	7.00601e-01	3.49833e+02
2163	3.51917e+02	2.16300e+03	6.91024e-01	3.50500e+02
2167	3.52574e+02	2.16700e+03	6.81346e-01	3.51167e+02
2171	3.53256e+02	2.17100e+03	6.71443e-01	3.51833e+02
2175	3.53942e+02	2.17500e+03	6.61338e-01	3.52500e+02
2179	3.54606e+02	2.17900e+03	6.51170e-01	3.53167e+02
2183	3.55287e+02	2.18300e+03	6.40889e-01	3.53833e+02
2187	3.55956e+02	2.18700e+03	6.30398e-01	3.54500e+02
2191	3.56628e+02	2.19100e+03	6.19675e-01	3.55167e+02
2195	3.57292e+02	2.19500e+03	6.08769e-01	3.55833e+02
2199	3.57957e+02	2.19900e+03	5.97767e-01	3.56500e+02
2203	3.58621e+02	2.20300e+03	5.86644e-01	3.57167e+02
2207	3.59276e+02	2.20700e+03	5.75273e-01	3.57833e+02
2211	3.59940e+02	2.21100e+03	5.63669e-01	3.58500e+02
2215	3.60599e+02	2.21500e+03	5.52077e-01	3.59167e+02
2219	3.61246e+02	2.21900e+03	5.40548e-01	3.59833e+02
2223	3.61908e+02	2.22300e+03	5.28879e-01	3.60500e+02
2227	3.62563e+02	2.22700e+03	5.17064e-01	3.61167e+02
2231	3.63223e+02	2.23100e+03	5.05244e-01	3.61833e+02
2235	3.63888e+02	2.23500e+03	4.93452e-01	3.62500e+02
2239	3.64559e+02	2.23900e+03	4.81671e-01	3.63167e+02
2243	3.65212e+02	2.24300e+03	4.69959e-01	3.63833e+02
2247	3.65877e+02	2.24700e+03	4.58227e-01	3.64500e+02
2251	3.66533e+02	2.25100e+03	4.46345e-01	3.65167e+02
2255	3.67200e+02	2.25500e+03	4.34551e-01	3.65833e+02
2259	3.67856e+02	2.25900e+03	4.22985e-01	3.66500e+02
2263	3.68520e+02	2.26300e+03	4.11396e-01	3.67167e+02
2267	3.69194e+02	2.26700e+03	3.99498e-01	3.67833e+02
2271	3.69863e+02	2.27100e+03	3.87383e-01	3.68500e+02
2275	3.70535e+02	2.27500e+03	3.75262e-01	3.69167e+02
2279	3.71190e+02	2.27900e+03	3.63265e-01	3.69833e+02
2283	3.71854e+02	2.28300e+03	3.51470e-01	3.70500e+02
2287	3.72523e+02	2.28700e+03	3.39755e-01	3.71167e+02
2291	3.73190e+02	2.29100e+03	3.28094e-01	3.71833e+02
2295	3.73840e+02	2.29500e+03	3.16652e-01	3.72500e+02
2299	3.74524e+02	2.29900e+03	3.05509e-01	3.73167e+02
2303	3.75182e+02	2.30300e+03	2.94561e-01	3.73833e+02
2307	3.75852e+02	2.30700e+03	2.83790e-01	3.74500e+02
2311	3.76512e+02	2.31100e+03	2.73195e-01	3.75167e+02
2315	3.77174e+02	2.31500e+03	2.62800e-01	3.75833e+02
2319	3.77844e+02	2.31900e+03	2.52671e-01	3.76500e+02
2323	3.78502e+02	2.32300e+03	2.42732e-01	3.77167e+02
2327	3.79155e+02	2.32700e+03	2.32961e-01	3.77833e+02
2331	3.79826e+02	2.33100e+03	2.23418e-01	3.78500e+02
2335	3.80479e+02	2.33500e+03	2.14093e-01	3.79167e+02
2339	3.81139e+02	2.33900e+03	2.04947e-01	3.79833e+02
2343	3.81813e+02	2.34300e+03	1.96083e-01	3.80500e+02
2347	3.82484e+02	2.34700e+03	1.87594e-01	3.81167e+02
2351	3.83157e+02	2.35100e+03	1.79370e-01	3.81833e+02
2355	3.83817e+02	2.35500e+03	1.71506e-01	3.82500e+02
2359	3.84491e+02	2.35900e+03	1.63958e-01	3.83167e+02
2363	3.85166e+02	2.36300e+03	1.56352e-01	3.83833e+02
2367	3.85842e+02	2.36700e+03	1.48748e-01	3.84500e+02
2371	3.86506e+02	2.37100e+03	1.41634e-01	3.85167e+02
2375	3.87188e+02	2.37500e+03	1.35323e-01	3.85833e+02
2379	3.87868e+02	2.37900e+03	1.29345e-01	3.86500e+02
2383	3.88590e+02	2.38300e+03	1.23176e-01	3.87167e+02
2387	3.89271e+02	2.38700e+03	1.17113e-01	3.87833e+02
2391	3.89996e+02	2.39100e+03	1.11410e-01	3.88500e+02
2395	3.90693e+02	2.39500e+03	1.05989e-01	3.89167e+02
2399	3.91371e+02	2.39900e+03	1.00793e-01	3.89833e+02
2403	3.92042e+02	2.40300e+03	9.57512e-02	3.90500e+02
2407	3.92725e+02	2.40700e+03	9.08382e-02	3.91167e+02
2411	3.93406e+02	2.41100e+03	8.61932e-02	3.91833e+02
2415	3.94086e+02	2.41500e+03	8.18279e-02	3.92500e+02
2419	3.94745e+02	2.41900e+03	7.76632e-02	3.93167e+02
2423	3.95429e+02	2.42300e+03	7.37463e-02	3.93833e+02
2427	3.96098e+02	2.42700e+03	7.00880e-02	3.94500e+02
2431	3.96759e+02	2.43100e+03	6.66466e-02	3.95167e+02
2435	3.97435e+02	2.43500e+03	6.33519e-02	3.95833e+02
2439	3.98122e+02	2.43900e+03	6.02067e-02	3.96500e+02
2443	3.98799e+02	2.44300e+03	5.72479e-02	3.97167e+02
2447	3.99461e+02	2.44700e+03	5.44092e-02	3.97833e+02
2451	4.00136e+02	2.45100e+03	5.16800e-02	3.98500e+02
2455	4.00795e+02	2.45500e+03	4.92392e-02	3.99167e+02
2459	4.01459e+02	2.45900e+03	4.71213e-02	3.99833e+02
2463	4.02122e+02	2.46300e+03	4.50138e-02	4.00500e+02
2467	4.02802e+02	2.46700e+03	4.27469e-02	4.01167e+02
2471	4.03472e+02	2.47100e+03	4.06804e-02	4.01833e+02
2475	4.04139e+02	2.47500e+03	3.90819e-02	4.02500e+02
2479	4.04805e+02	2.47900e+03	3.76194e-02	4.03167e+02
2483	4.05470e+02	2.48300e+03	3.60889e-02	4.03833e+02
2487	4.06140e+02	2.48700e+03	3.46230e-02	4.04500e+02
2491	4.06818e+02	2.49100e+03	3.33141e-02	4.05167e+02
2495	4.07486e+02	2.49500e+03	3.21687e-02	4.05833e+02
2499	4.08144e+02	2.49900e+03	3.11080e-02	4.06500e+02
2503	4.08812e+02	2.50300e+03	3.00863e-02	4.07167e+02
2507	4.09474e+02	2.50700e+03	2.90965e-02	4.07833e+02
2511	4.10135e+02	2.51100e+03	2.80703e-02	4.08500e+02
2515	4.10801e+02	2.51500e+03	2.71105e-02	4.09167e+02
2519	4.11458e+02	2.51900e+03	2.64131e-02	4.09833e+02
2523	4.12115e+02	2.52300e+03	2.58228e-02	4.10500e+02
2527	4.12780e+02	2.52700e+03	2.52141e-02	4.11167e+02
2531	4.13434e+02	2.53100e+03	2.46835e-02	4.11833e+02
2535	4.14093e+02	2.53500e+03	2.42051e-02	4.12500e+02
2539	4.14767e+02	2.53900e+03	2.37204e-02	4.13167e+02
2543	4.15434e+02	2.54300e+03	2.32236e-02	4.13833e+02
2547	4.16090e+02	2.54700e+03	2.27167e-02	4.14500e+02
2551	4.16745e+02	2.55100e+03	2.22209e-02	4.15167e+02
2555	4.17393e+02	2.55500e+03	2.18090e-02	4.15833e+02
2559	4.18047e+02	2.55900e+03	2.14923e-02	4.16500e+02
2563	4.18712e+02	2.56300e+03	2.11776e-02	4.17167e+02
2567	4.19371e+02	2.56700e+03	2.08480e-02	4.17833e+02
2571	4.20034e+02	2.57100e+03	2.05649e-02	4.18500e+02
2575	4.20697e+02	2.57500e+03	2.03114e-02	4.19167e+02
2579	4.21348e+02	2.57900e+03	2.00868e-02	4.19833e+02
2583	4.21999e+02	2.58300e+03	1.98971e-02	4.20500e+02
2587	4.22655e+02	2.58700e+03	1.96499e-02	4.21167e+02
2591	4.23308e+02	2.59100e+03	1.93612e-02	4.21833e+02
2595	4.23958e+02	2.59500e+03	1.91260e-02	4.22500e+02
2599	4.24613e+02	2.59900e+03	1.89093e-02	4.23167e+02
2603	4.25264e+02	2.60300e+03	1.86872e-02	4.23833e+02
2607	4.25926e+02	2.60700e+03	1.84865e-02	4.24500e+02
2611	4.26580e+02	2.61100e+03	1.82885e-02	4.25167e+02
2615	4.27227e+02	2.61500e+03	1.81688e-02	4.25833e+02
2619	4.27882e+02	2.61900e+03	1.81705e-02	4.26500e+02
2623	4.28521e+02	2.62300e+03	1.82273e-02	4.27167e+02
2627	4.29180e+02	2.62700e+03	1.82366e-02	4.27833e+02
2631	4.29824e+02	2.63100e+03	1.81307e-02	4.28500e+02
2635	4.30472e+02	2.63500e+03	1.79819e-02	4.29167e+02
2639	4.31072e+02	2.63900e+03	1.78737e-02	4.29833e+02
2643	4.31699e+02	2.64300e+03	1.77749e-02	4.30500e+02
2647	4.32351e+02	2.64700e+03	1.76584e-02	4.31167e+02
2651	4.32996e+02	2.65100e+03	1.75392e-02	4.31833e+02
2655	4.33656e+02	2.65500e+03	1.74425e-02	4.32500e+02
2659	4.34293e+02	2.65900e+03	1.73747e-02	4.33167e+02
2663	4.34950e+02	2.66300e+03	1.73201e-02	4.33833e+02
2667	4.35604e+02	2.66700e+03	1.72338e-02	4.34500e+02
2671	4.36273e+02	2.67100e+03	1.71273e-02	4.35167e+02
2675	4.36926e+02	2.67500e+03	1.71830e-02	4.35833e+02
2679	4.37587e+02	2.67900e+03	1.72894e-02	4.36500e+02
2683	4.38241e+02	2.68300e+03	1.71685e-02	4.37167e+02
2687	4.38894e+02	2.68700e+03	1.69310e-02	4.37833e+02
2691	4.39561e+02	2.69100e+03	1.68242e-02	4.38500e+02
2695	4.40206e+02	2.69500e+03	1.68414e-02	4.39167e+02
2699	4.40860e+02	2.69900e+03	1.68521e-02	4.39833e+02
2703	4.41528e+02	2.70300e+03	1.68641e-02	4.40500e+02
2707	4.42185e+02	2.70700e+03	1.69223e-02	4.41167e+02
2711	4.42834e+02	2.71100e+03	1.69481e-02	4.41833e+02
2715	4.43507e+02	2.71500e+03	1.68752e-02	4.42500e+02
2719	4.44159e+02	2.71900e+03	1.68423e-02	4.43167e+02
2723	4.44805e+02	2.72300e+03	1.68920e-02	4.43833e+02
2727	4.45466e+02	2.72700e+03	1.69210e-02	4.44500e+02
2731	4.46128e+02	2.73100e+03	1.69263e-02	4.45167e+02
2735	4.46782e+02	2.73500e+03	1.69404e-02	4.45833e+02
2739	4.47432e+02	2.73900e+03	1.69150e-02	4.46500e+02
2743	4.48105e+02	2.74300e+03	1.67887e-02	4.47167e+02
2747	4.48753e+02	2.74700e+03	1.67715e-02	4.47833e+02
2751	4.49401e+02	2.75100e+03	1.68515e-02	4.48500e+02
2755	4.50062e+02	2.75500e+03	1.67909e-02	4.49167e+02
2759	4.50715e+02	2.75900e+03	1.67116e-02	4.49833e+02
2763	4.51373e+02	2.76300e+03	1.67538e-02	4.50500e+02
2767	4.52052e+02	2.76700e+03	1.68169e-02	4.51167e+02
2771	4.52702e+02	2.77100e+03	1.68005e-02	4.51833e+02
2775	4.53362e+02	2.77500e+03	1.67187e-02	4.52500e+02
2779	4.54030e+02	2.77900e+03	1.65977e-02	4.53167e+02
2783	4.54684e+02	2.78300e+03	1.65051e-02	4.53833e+02
2787	4.55361e+02	2.78700e+03	1.64828e-02	4.54500e+02
2791	4.56025e+02	2.79100e+03	1.64579e-02	4.55167e+02
2795	4.56691e+02	2.79500e+03	1.64286e-02	4.55833e+02
2799	4.57344e+02	2.79900e+03	1.64934e-02	4.56500e+02
2803	4.58013e+02	2.80300e+03	1.65383e-02	4.57167e+02
2807	4.58684e+02	2.80700e+03	1.64403e-02	4.57833e+02
2811	4.59354e+02	2.81100e+03	1.63378e-02	4.58500e+02
2815	4.60022e+02	2.81500e+03	1.63780e-02	4.59167e+02
2819	4.60668e+02	2.81900e+03	1.64282e-02	4.59833e+02
2823	4.61333e+02	2.82300e+03	1.63985e-02	4.60500e+02
2827	4.62002e+02	2.82700e+03	1.63754e-02	4.61167e+02
2831	4.62673e+02	2.83100e+03	1.63221e-02	4.61833e+02
2835	4.63323e+02	2.83500e+03	1.63006e-02	4.62500e+02
2839	4.63990e+02	2.83900e+03	1.63058e-02	4.63167e+02
2843	4.64659e+02	2.84300e+03	1.62551e-02	4.63833e+02
2847	4.65317e+02	2.84700e+03	1.62438e-02	4.64500e+02
2851	4.65973e+02	2.85100e+03	1.63153e-02	4.65167e+02
2855	4.66631e+02	2.85500e+03	1.63424e-02	4.65833e+02
2859	4.67284e+02	2.85900e+03	1.62836e-02	4.66500e+02
2863	4.67957e+02	2.86300e+03	1.62218e-02	4.67167e+02
2867	4.68612e+02	2.86700e+03	1.61915e-02	4.67833e+02
2871	4.69271e+02	2.87100e+03	1.62339e-02	4.68500e+02
2875	4.69924e+02	2.87500e+03	1.63309e-02	4.69167e+02
2879	4.70584e+02	2.87900e+03	1.63784e-02	4.69833e+02
2883	4.71250e+02	2.88300e+03	1.63761e-02	4.70500e+02
2887	4.71923e+02	2.88700e+03	1.63167e-02	4.71167e+02
2891	4.72576e+02	2.89100e+03	1.62186e-02	4.71833e+02
2895	4.73240e+02	2.89500e+03	1.61733e-02	4.72500e+02
2899	4.73902e+02	2.89900e+03	1.61305e-02	4.73167e+02
2903	4.74565e+02	2.90300e+03	1.60541e-02	4.73833e+02
2907	4.75235e+02	2.90700e+03	1.60542e-02	4.74500e+02
2911	4.75892e+02	2.91100e+03	1.61409e-02	4.75167e+02
2915	4.76547e+02	2.91500e+03	1.62760e-02	4.75833e+02
2919	4.77204e+02	2.91900e+03	1.63206e-02	4.76500e+02
2923	4.77864e+02	2.92300e+03	1.61902e-02	4.77167e+02
2927	4.78528e+02	2.92700e+03	1.61377e-02	4.77833e+02
2931	4.79178e+02	2.93100e+03	1.62267e-02	4.78500e+02
2935	4.79850e+02	2.93500e+03	1.62532e-02	4.79167e+02
2939	4.80509e+02	2.93900e+03	1.61855e-02	4.79833e+02
2943	4.81175e+02	2.94300e+03	1.61973e-02	4.80500e+02
2947	4.81843e+02	2.94700e+03	1.62369e-02	4.81167e+02
2951	4.82497e+02	2.95100e+03	1.62613e-02	4.81833e+02
2955	4.83163e+02	2.95500e+03	1.62985e-02	4.82500e+02
2959	4.83816e+02	2.95900e+03	1.62719e-02	4.83167e+02
2963	4.84483e+02	2.96300e+03	1.62150e-02	4.83833e+02
2967	4.85143e+02	2.96700e+03	1.62140e-02	4.84500e+02
2971	4.85817e+02	2.97100e+03	1.62574e-02	4.85167e+02
2975	4.86486e+02	2.97500e+03	1.62656e-02	4.85833e+02
2979	4.87137e+02	2.97900e+03	1.62009e-02	4.86500e+02
2983	4.87795e+02	2.98300e+03	1.60866e-02	4.87167e+02
2987	4.88464e+02	2.98700e+03	1.60117e-02	4.87833e+02
2991	4.89102e+02	2.99100e+03	1.60359e-02	4.88500e+02
2995	4.89779e+02	2.99500e+03	1.61114e-02	4.89167e+02
2999	4.90439e+02	2.99900e+03	1.61783e-02	4.89833e+02
3003	4.91098e+02	3.00300e+03	1.62851e-02	4.90500e+02
3007	4.91757e+02	3.00700e+03	1.63469e-02	4.91167e+02
3011	4.92418e+02	3.01100e+03	1.63210e-02	4.91833e+02
3015	4.93072e+02	3.01500e+03	1.63317e-02	4.92500e+02
3019	4.93736e+02	3.01900e+03	1.63367e-02	4.93167e+02
3023	4.94407e+02	3.02300e+03	1.63032e-02	4.93833e+02
3027	4.95078e+02	3.02700e+03	1.63304e-02	4.94500e+02
3031	4.95749e+02	3.03100e+03	1.64002e-02	4.95167e+02
3035	4.96422e+02	3.03500e+03	1.63773e-02	4.95833e+02
3039	4.97085e+02	3.03900e+03	1.63543e-02	4.96500e+02
3043	4.97752e+02	3.04300e+03	1.64065e-02	4.97167e+02
3047	4.98417e+02	3.04700e+03	1.63841e-02	4.97833e+02
3051	4.99080e+02	3.05100e+03	1.62925e-02	4.98500e+02
3055	4.99745e+02	3.05500e+03	1.62424e-02	4.99167e+02
3059	5.00405e+02	3.05900e+03	1.62649e-02	4.99833e+02
3063	5.01077e+02	3.06300e+03	1.63304e-02	5.00500e+02
3067	5.01739e+02	3.06700e+03	1.63860e-02	5.01167e+02
3071	5.02393e+02	3.07100e+03	1.63911e-02	5.01833e+02
3075	5.03071e+02	3.07500e+03	1.63374e-02	5.02500e+02
3079	5.03740e+02	3.07900e+03	1.62657e-02	5.03167e+02
3083	5.04406e+02	3.08300e+03	1.62340e-02	5.03833e+02
3087	5.05086e+02	3.08700e+03	1.62218e-02	5.04500e+02
3091	5.05756e+02	3.09100e+03	1.61656e-02	5.05167e+02
3095	5.06434e+02	3.09500e+03	1.61700e-02	5.05833e+02
3099	5.07101e+02	3.09900e+03	1.62428e-02	5.06500e+02
3103	5.07771e+02	3.10300e+03	1.63013e-02	5.07167e+02
3107	5.08436e+02	3.10700e+03	1.63963e-02	5.07833e+02
3111	5.09121e+02	3.11100e+03	1.64557e-02	5.08500e+02
3115	5.09795e+02	3.11500e+03	1.64426e-02	5.09167e+02
3119	5.10451e+02	3.11900e+03	1.63921e-02	5.09833e+02
3123	5.11126e+02	3.12300e+03	1.63285e-02	5.10500e+02
3127	5.11789e+02	3.12700e+03	1.63388e-02	5.11167e+02
3131	5.12471e+02	3.13100e+03	1.64043e-02	5.11833e+02
3135	5.13126e+02	3.13500e+03	1.64377e-02	5.12500e+02
3139	5.13788e+02	3.13900e+03	1.64302e-02	5.13167e+02
3143	5.14452e+02	3.14300e+03	1.64060e-02	5.13833e+02
3147	5.15120e+02	3.14700e+03	1.64253e-02	5.14500e+02
3151	5.15779e+02	3.15100e+03	1.65471e-02	5.15167e+02
3155	5.16445e+02	3.15500e+03	1.66720e-02	5.15833e+02
3159	5.17104e+02	3.15900e+03	1.66177e-02	5.16500e+02
3163	5.17771e+02	3.16300e+03	1.64102e-02	5.17167e+02
3167	5.18445e+02	3.16700e+03	1.62347e-02	5.17833e+02
3171	5.19109e+02	3.17100e+03	1.62619e-02	5.18500e+02
3175	5.19784e+02	3.17500e+03	1.64164e-02	5.19167e+02
3179	5.20456e+02	3.17900e+03	1.65351e-02	5.19833e+02
3183	5.21120e+02	3.18300e+03	1.65528e-02	5.20500e+02
3187	5.21797e+02	3.18700e+03	1.65207e-02	5.21167e+02
3191	5.22458e+02	3.19100e+03	1.64422e-02	5.21833e+02
3195	5.23139e+02	3.19500e+03	1.63178e-02	5.22500e+02
3199	5.23810e+02	3.19900e+03	1.62737e-02	5.23167e+02
3203	5.24489e+02	3.20300e+03	1.63332e-02	5.23833e+02
3207	5.25170e+02	3.20700e+03	1.64525e-02	5.24500e+02
3211	5.25829e+02	3.21100e+03	1.64821e-02	5.25167e+02
3215	5.26503e+02	3.21500e+03	1.63350e-02	5.25833e+02
3219	5.27164e+02	3.21900e+03	1.62389e-02	5.26500e+02
3223	5.27833e+02	3.22300e+03	1.62860e-02	5.27167e+02
3227	5.28506e+02	3.22700e+03	1.62847e-02	5.27833e+02
3231	5.29179e+02	3.23100e+03	1.62048e-02	5.28500e+02
3235	5.29825e+02	3.23500e+03	1.61678e-02	5.29167e+02
3239	5.30493e+02	3.23900e+03	1.62248e-02	5.29833e+02
3243	5.31147e+02	3.24300e+03	1.62852e-02	5.30500e+02
3247	5.31804e+02	3.24700e+03	1.63376e-02	5.31167e+02
3251	5.32483e+02	3.25100e+03	1.64047e-02	5.31833e+02
3255	5.33157e+02	3.25500e+03	1.64183e-02	5.32500e+02
3259	5.33830e+02	3.25900e+03	1.64213e-02	5.33167e+02
3263	5.34508e+02	3.26300e+03	1.64383e-02	5.33833e+02
3267	5.35175e+02	3.26700e+03	1.64389e-02	5.34500e+02
3271	5.35850e+02	3.27100e+03	1.64119e-02	5.35167e+02
3275	5.36528e+02	3.27500e+03	1.63077e-02	5.35833e+02
3279	5.37237e+02	3.27900e+03	1.61742e-02	5.36500e+02
3283	5.37924e+02	3.28300e+03	1.60785e-02	5.37167e+02
3287	5.38617e+02	3.28700e+03	1.60794e-02	5.37833e+02
3291	5.39288e+02	3.29100e+03	1.61818e-02	5.38500e+02
3295	5.39953e+02	3.29500e+03	1.62693e-02	5.39167e+02
3299	5.40628e+02	3.29900e+03	1.63027e-02	5.39833e+02
3303	5.41312e+02	3.30300e+03	1.63384e-02	5.40500e+02
3307	5.41985e+02	3.30700e+03	1.63753e-02	5.41167e+02
3311	5.42664e+02	3.31100e+03	1.63315e-02	5.41833e+02
3315	5.43324e+02	3.31500e+03	1.61742e-02	5.42500e+02
3319	5.43996e+02	3.31900e+03	1.59962e-02	5.43167e+02
3323	5.44673e+02	3.32300e+03	1.59831e-02	5.43833e+02
3327	5.45356e+02	3.32700e+03	1.62084e-02	5.44500e+02
3331	5.46034e+02	3.33100e+03	1.64737e-02	5.45167e+02
3335	5.46702e+02	3.33500e+03	1.65486e-02	5.45833e+02
3339	5.47364e+02	3.33900e+03	1.63864e-02	5.46500e+02
3343	5.48022e+02	3.34300e+03	1.61739e-02	5.47167e+02
3347	5.48697e+02	3.34700e+03	1.61013e-02	5.47833e+02
3351	5.49368e+02	3.35100e+03	1.61269e-02	5.48500e+02
3355	5.50048e+02	3.35500e+03	1.61975e-02	5.49167e+02
3359	5.50727e+02	3.35900e+03	1.62740e-02	5.49833e+02
3363	5.51410e+02	3.36300e+03	1.63096e-02	5.50500e+02
3367	5.52091e+02	3.36700e+03	1.63188e-02	5.51167e+02
3371	5.52781e+02	3.37100e+03	1.62764e-02	5.51833e+02
3375	5.53459e+02	3.37500e+03	1.62427e-02	5.52500e+02
3379	5.54142e+02	3.37900e+03	1.62856e-02	5.53167e+02
3383	5.54821e+02	3.38300e+03	1.63492e-02	5.53833e+02
3387	5.55512e+02	3.38700e+03	1.63835e-02	5.54500e+02
3391	5.56188e+02	3.39100e+03	1.63807e-02	5.55167e+02
3395	5.56875e+02	3.39500e+03	1.62769e-02	5.55833e+02
3399	5.57563e+02	3.39900e+03	1.61060e-02	5.56500e+02
3403	5.58216e+02	3.40300e+03	1.60238e-02	5.57167e+02
3407	5.58890e+02	3.40700e+03	1.60649e-02	5.57833e+02
3411	5.59570e+02	3.41100e+03	1.61285e-02	5.58500e+02
3415	5.60245e+02	3.41500e+03	1.61124e-02	5.59167e+02
3419	5.60936e+02	3.41900e+03	1.60898e-02	5.59833e+02
3423	5.61597e+02	3.42300e+03	1.61322e-02	5.60500e+02
3427	5.62288e+02	3.42700e+03	1.61370e-02	5.61167e+02
3431	5.62961e+02	3.43100e+03	1.60440e-02	5.61833e+02
3435	5.63638e+02	3.43500e+03	1.59413e-02	5.62500e+02
3439	5.64318e+02	3.43900e+03	1.59491e-02	5.63167e+02
3443	5.64997e+02	3.44300e+03	1.60563e-02	5.63833e+02
3447	5.65674e+02	3.44700e+03	1.61714e-02	5.64500e+02
3451	5.66344e+02	3.45100e+03	1.61996e-02	5.65167e+02
3455	5.67015e+02	3.45500e+03	1.61319e-02	5.65833e+02
3459	5.67680e+02	3.45900e+03	1.61033e-02	5.66500e+02
3463	5.68349e+02	3.46300e+03	1.61196e-02	5.67167e+02
3467	5.69032e+02	3.46700e+03	1.60844e-02	5.67833e+02
3471	5.69716e+02	3.47100e+03	1.60898e-02	5.68500e+02
3475	5.70385e+02	3.47500e+03	1.61142e-02	5.69167e+02
3479	5.71055e+02	3.47900e+03	1.60749e-02	5.69833e+02
3483	5.71728e+02	3.48300e+03	1.59910e-02	5.70500e+02
3487	5.72385e+02	3.48700e+03	1.59597e-02	5.71167e+02
3491	5.73058e+02	3.49100e+03	1.60514e-02	5.71833e+02
3495	5.73726e+02	3.49500e+03	1.60827e-02	5.72500e+02
3499	5.74376e+02	3.49900e+03	1.60715e-02	5.73167e+02
3503	5.75039e+02	3.50300e+03	1.61032e-02	5.73833e+02
3507	5.75697e+02	3.50700e+03	1.60266e-02	5.74500e+02
3511	5.76366e+02	3.51100e+03	1.58547e-02	5.75167e+02
3515	5.77031e+02	3.51500e+03	1.57325e-02	5.75833e+02
3519	5.77692e+02	3.51900e+03	1.57025e-02	5.76500e+02
3523	5.78360e+02	3.52300e+03	1.57653e-02	5.77167e+02
3527	5.79036e+02	3.52700e+03	1.59156e-02	5.77833e+02
3531	5.79699e+02	3.53100e+03	1.59899e-02	5.78500e+02
3535	5.80349e+02	3.53500e+03	1.59441e-02	5.79167e+02
3539	5.81015e+02	3.53900e+03	1.59848e-02	5.79833e+02
3543	5.81670e+02	3.54300e+03	1.60481e-02	5.80500e+02
3547	5.82324e+02	3.54700e+03	1.60136e-02	5.81167e+02
3551	5.82984e+02	3.55100e+03	1.59741e-02	5.81833e+02
3555	5.83650e+02	3.55500e+03	1.60157e-02	5.82500e+02
3559	5.84306e+02	3.55900e+03	1.60971e-02	5.83167e+02
3563	5.84963e+02	3.56300e+03	1.60823e-02	5.83833e+02
3567	5.85623e+02	3.56700e+03	1.60375e-02	5.84500e+02
3571	5.86280e+02	3.57100e+03	1.60383e-02	5.85167e+02
3575	5.86933e+02	3.57500e+03	1.59941e-02	5.85833e+02
3579	5.87591e+02	3.57900e+03	1.59191e-02	5.86500e+02
3583	5.88256e+02	3.58300e+03	1.59019e-02	5.87167e+02
3587	5.88920e+02	3.58700e+03	1.59704e-02	5.87833e+02
3591	5.89594e+02	3.59100e+03	1.60001e-02	5.88500e+02
3595	5.90261e+02	3.59500e+03	1.58662e-02	5.89167e+02
3599	5.90911e+02	3.59900e+03	1.56805e-02	5.89833e+02
3603	5.91580e+02	3.60300e+03	1.55884e-02	5.90500e+02
3607	5.92236e+02	3.60700e+03	1.55850e-02	5.91167e+02
3611	5.92894e+02	3.61100e+03	1.56792e-02	5.91833e+02
3615	5.93557e+02	3.61500e+03	1.58337e-02	5.92500e+02
3619	5.94221e+02	3.61900e+03	1.59253e-02	5.93167e+02
3623	5.94882e+02	3.62300e+03	1.59400e-02	5.93833e+02
3627	5.95545e+02	3.62700e+03	1.59465e-02	5.94500e+02
3631	5.96196e+02	3.63100e+03	1.59875e-02	5.95167e+02
3635	5.96852e+02	3.63500e+03	1.60498e-02	5.95833e+02
3639	5.97514e+02	3.63900e+03	1.60722e-02	5.96500e+02
3643	5.98182e+02	3.64300e+03	1.60248e-02	5.97167e+02
3647	5.98848e+02	3.64700e+03	1.59638e-02	5.97833e+02
3651	5.99508e+02	3.65100e+03	1.59331e-02	5.98500e+02
3655	6.00177e+02	3.65500e+03	1.59374e-02	5.99167e+02
3659	6.00841e+02	3.65900e+03	1.59371e-02	5.99833e+02
3663	6.01513e+02	3.66300e+03	1.58649e-02	6.00500e+02
3667	6.02177e+02	3.66700e+03	1.57434e-02	6.01167e+02
3671	6.02849e+02	3.67100e+03	1.57107e-02	6.01833e+02
3675	6.03513e+02	3.67500e+03	1.58800e-02	6.02500e+02
3679	6.04184e+02	3.67900e+03	1.60461e-02	6.03167e+02
3683	6.04849e+02	3.68300e+03	1.60078e-02	6.03833e+02
3687	6.05511e+02	3.68700e+03	1.59012e-02	6.04500e+02
3691	6.06168e+02	3.69100e+03	1.58704e-02	6.05167e+02
3695	6.06828e+02	3.69500e+03	1.58658e-02	6.05833e+02
3699	6.07491e+02	3.69900e+03	1.57800e-02	6.06500e+02
3703	6.08139e+02	3.70300e+03	1.57445e-02	6.07167e+02
3707	6.08810e+02	3.70700e+03	1.58307e-02	6.07833e+02
3711	6.09463e+02	3.71100e+03	1.58927e-02	6.08500e+02
3715	6.10122e+02	3.71500e+03	1.58985e-02	6.09167e+02
3719	6.10785e+02	3.71900e+03	1.59186e-02	6.09833e+02
3723	6.11457e+02	3.72300e+03	1.59668e-02	6.10500e+02
3727	6.12115e+02	3.72700e+03	1.59535e-02	6.11167e+02
3731	6.12772e+02	3.73100e+03	1.59254e-02	6.11833e+02
3735	6.13434e+02	3.73500e+03	1.59434e-02	6.12500e+02
3739	6.14099e+02	3.73900e+03	1.59544e-02	6.13167e+02
3743	6.14750e+02	3.74300e+03	1.59115e-02	6.13833e+02
3747	6.15409e+02	3.74700e+03	1.57971e-02	6.14500e+02
3751	6.16068e+02	3.75100e+03	1.57259e-02	6.15167e+02
3755	6.16739e+02	3.75500e+03	1.57415e-02	6.15833e+02
3759	6.17397e+02	3.75900e+03	1.57384e-02	6.16500e+02
3763	6.18058e+02	3.76300e+03	1.57184e-02	6.17167e+02
3767	6.18714e+02	3.76700e+03	1.57507e-02	6.17833e+02
3771	6.19396e+02	3.77100e+03	1.57967e-02	6.18500e+02
3775	6.20063e+02	3.77500e+03	1.58133e-02	6.19167e+02
3779	6.20729e+02	3.77900e+03	1.58311e-02	6.19833e+02
3783	6.21398e+02	3.78300e+03	1.58472e-02	6.20500e+02
3787	6.22052e+02	3.78700e+03	1.58270e-02	6.21167e+02
3791	6.22729e+02	3.79100e+03	1.58232e-02	6.21833e+02
3795	6.23390e+02	3.79500e+03	1.58514e-02	6.22500e+02
3799	6.24058e+02	3.79900e+03	1.58427e-02	6.23167e+02
3803	6.24707e+02	3.80300e+03	1.58188e-02	6.23833e+02
3807	6.25376e+02	3.80700e+03	1.58091e-02	6.24500e+02
3811	6.26034e+02	3.81100e+03	1.58000e-02	6.25167e+02
3815	6.26698e+02	3.81500e+03	1.58192e-02	6.25833e+02
3819	6.27372e+02	3.81900e+03	1.58510e-02	6.26500e+02
3823	6.28050e+02	3.82300e+03	1.58291e-02	6.27167e+02
3827	6.28717e+02	3.82700e+03	1.57977e-02	6.27833e+02
3831	6.29381e+02	3.83100e+03	1.58306e-02	6.28500e+02
3835	6.30049e+02	3.83500e+03	1.58897e-02	6.29167e+02
3839	6.30714e+02	3.83900e+03	1.59248e-02	6.29833e+02
3843	6.31381e+02	3.84300e+03	1.59554e-02	6.30500e+02
3847	6.32036e+02	3.84700e+03	1.59777e-02	6.31167e+02
3851	6.32705e+02	3.85100e+03	1.59240e-02	6.31833e+02
3855	6.33363e+02	3.85500e+03	1.58199e-02	6.32500e+02
3859	6.34029e+02	3.85900e+03	1.58380e-02	6.33167e+02
3863	6.34694e+02	3.86300e+03	1.59140e-02	6.33833e+02
3867	6.35385e+02	3.86700e+03	1.58888e-02	6.34500e+02
3871	6.36061e+02	3.87100e+03	1.58199e-02	6.35167e+02
3875	6.36730e+02	3.87500e+03	1.57755e-02	6.35833e+02
3879	6.37413e+02	3.87900e+03	1.57841e-02	6.36500e+02
3883	6.38092e+02	3.88300e+03	1.58295e-02	6.37167e+02
3887	6.38752e+02	3.88700e+03	1.58584e-02	6.37833e+02
3891	6.39422e+02	3.89100e+03	1.58280e-02	6.38500e+02
3895	6.40083e+02	3.89500e+03	1.57656e-02	6.39167e+02
3899	6.40749e+02	3.89900e+03	1.57672e-02	6.39833e+02
3903	6.41414e+02	3.90300e+03	1.58424e-02	6.40500e+02
3907	6.42072e+02	3.90700e+03	1.59177e-02	6.41167e+02
3911	6.42739e+02	3.91100e+03	1.59398e-02	6.41833e+02
3915	6.43414e+02	3.91500e+03	1.59334e-02	6.42500e+02
3919	6.44085e+02	3.91900e+03	1.59228e-02	6.43167e+02
3923	6.44735e+02	3.92300e+03	1.58867e-02	6.43833e+02
3927	6.45381e+02	3.92700e+03	1.57924e-02	6.44500e+02
3931	6.46036e+02	3.93100e+03	1.56994e-02	6.45167e+02
3935	6.46695e+02	3.93500e+03	1.56616e-02	6.45833e+02
3939	6.47355e+02	3.93900e+03	1.56461e-02	6.46500e+02
3943	6.47997e+02	3.94300e+03	1.57235e-02	6.47167e+02
3947	6.48669e+02	3.94700e+03	1.58523e-02	6.47833e+02
3951	6.49308e+02	3.95100e+03	1.59078e-02	6.48500e+02
3955	6.49977e+02	3.95500e+03	1.58814e-02	6.49167e+02
3959	6.50633e+02	3.95900e+03	1.58013e-02	6.49833e+02
3963	6.51293e+02	3.96300e+03	1.57126e-02	6.50500e+02
3967	6.51974e+02	3.96700e+03	1.56535e-02	6.51167e+02
3971	6.52637e+02	3.97100e+03	1.56441e-02	6.51833e+02
3975	6.53312e+02	3.97500e+03	1.56756e-02	6.52500e+02
3979	6.53983e+02	3.97900e+03	1.56960e-02	6.53167e+02
3983	6.54651e+02	3.98300e+03	1.56811e-02	6.53833e+02
3987	6.55303e+02	3.98700e+03	1.56712e-02	6.54500e+02
3991	6.55976e+02	3.99100e+03	1.57456e-02	6.55167e+02
3995	6.56626e+02	3.99500e+03	1.58954e-02	6.55833e+02
3999	6.57299e+02	3.99900e+03	1.59448e-02	6.56500e+02
4003	6.57950e+02	4.00300e+03	1.58414e-02	6.57167e+02
4007	6.58623e+02	4.00700e+03	1.57554e-02	6.57833e+02
4011	6.59281e+02	4.01100e+03	1.57546e-02	6.58500e+02
4015	6.59947e+02	4.01500e+03	1.57595e-02	6.59167e+02
4019	6.60608e+02	4.01900e+03	1.57666e-02	6.59833e+02
4023	6.61270e+02	4.02300e+03	1.57629e-02	6.60500e+02
4027	6.61942e+02	4.02700e+03	1.57418e-02	6.61167e+02
4031	6.62605e+02	4.03100e+03	1.57848e-02	6.61833e+02
4035	6.63266e+02	4.03500e+03	1.58414e-02	6.62500e+02
4039	6.63934e+02	4.03900e+03	1.58384e-02	6.63167e+02
4043	6.64599e+02	4.04300e+03	1.58403e-02	6.63833e+02
4047	6.65261e+02	4.04700e+03	1.58115e-02	6.64500e+02
4051	6.65916e+02	4.05100e+03	1.57075e-02	6.65167e+02
4055	6.66554e+02	4.05500e+03	1.56459e-02	6.65833e+02
4059	6.67203e+02	4.05900e+03	1.56921e-02	6.66500e+02
4063	6.67860e+02	4.06300e+03	1.57696e-02	6.67167e+02
4067	6.68502e+02	4.06700e+03	1.58117e-02	6.67833e+02
4071	6.69146e+02	4.07100e+03	1.57642e-02	6.68500e+02
4075	6.69811e+02	4.07500e+03	1.57077e-02	6.69167e+02
4079	6.70466e+02	4.07900e+03	1.58298e-02	6.69833e+02
4083	6.71121e+02	4.08300e+03	1.59435e-02	6.70500e+02
4087	6.71769e+02	4.08700e+03	1.59382e-02	6.71167e+02
4091	6.72408e+02	4.09100e+03	1.59516e-02	6.71833e+02
4095	6.73062e+02	4.09500e+03	1.59388e-02	6.72500e+02
4099	6.73717e+02	4.09900e+03	1.59165e-02	6.73167e+02
4103	6.74374e+02	4.10300e+03	1.59841e-02	6.73833e+02
4107	6.75027e+02	4.10700e+03	1.60709e-02	6.74500e+02
4111	6.75676e+02	4.11100e+03	1.60337e-02	6.75167e+02
4115	6.76337e+02	4.11500e+03	1.58649e-02	6.75833e+02
4119	6.77004e+02	4.11900e+03	1.57342e-02	6.76500e+02
4123	6.77654e+02	4.12300e+03	1.57112e-02	6.77167e+02
4127	6.78318e+02	4.12700e+03	1.56909e-02	6.77833e+02
4131	6.78974e+02	4.13100e+03	1.56240e-02	6.78500e+02
4135	6.79637e+02	4.13500e+03	1.55993e-02	6.79167e+02
4139	6.80297e+02	4.13900e+03	1.56282e-02	6.79833e+02
4143	6.80953e+02	4.14300e+03	1.55748e-02	6.80500e+02
4147	6.81598e+02	4.14700e+03	1.54852e-02	6.81167e+02
4151	6.82247e+02	4.15100e+03	1.54859e-02	6.81833e+02
4155	6.82920e+02	4.15500e+03	1.55982e-02	6.82500e+02
4159	6.83574e+02	4.15900e+03	1.56975e-02	6.83167e+02
4163	6.84243e+02	4.16300e+03	1.56755e-02	6.83833e+02
4167	6.84895e+02	4.16700e+03	1.56373e-02	6.84500e+02
4171	6.85574e+02	4.17100e+03	1.56613e-02	6.85167e+02
4175	6.86236e+02	4.17500e+03	1.56893e-02	6.85833e+02
4179	6.86903e+02	4.17900e+03	1.56732e-02	6.86500e+02
4183	6.87566e+02	4.18300e+03	1.56232e-02	6.87167e+02
4187	6.88224e+02	4.18700e+03	1.56109e-02	6.87833e+02
4191	6.88873e+02	4.19100e+03	1.56534e-02	6.88500e+02
4195	6.89526e+02	4.19500e+03	1.56896e-02	6.89167e+02
4199	6.90184e+02	4.19900e+03	1.57686e-02	6.89833e+02
4203	6.90844e+02	4.20300e+03	1.59039e-02	6.90500e+02
4207	6.91498e+02	4.20700e+03	1.59624e-02	6.91167e+02
4211	6.92162e+02	4.21100e+03	1.59279e-02	6.91833e+02
4215	6.92822e+02	4.21500e+03	1.58647e-02	6.92500e+02
4219	6.93484e+02	4.21900e+03	1.58433e-02	6.93167e+02
4223	6.94136e+02	4.22300e+03	1.58802e-02	6.93833e+02
4227	6.94798e+02	4.22700e+03	1.58906e-02	6.94500e+02
4231	6.95448e+02	4.23100e+03	1.58809e-02	6.95167e+02
4235	6.96013e+02	4.23500e+03	1.58421e-02	6.95833e+02
4239	6.96436e+02	4.23900e+03	1.57831e-02	6.96500e+02
4243	6.96920e+02	4.24300e+03	1.57953e-02	6.97167e+02
4247	6.97356e+02	4.24700e+03	1.58315e-02	6.97833e+02
4251	6.97730e+02	4.25100e+03	1.57931e-02	6.98500e+02
4255	6.98056e+02	4.25500e+03	1.57479e-02	6.99167e+02
4259	6.98351e+02	4.25900e+03	1.57499e-02	6.99833e+02
4260	6.98415e+02	4.26000e+03	1.57444e-02	7.00000e+02