File: Experiments/TUBS/tga_nonisotherm/tga_dynamic_n2_dyn10_powder_3mg_r3.txt
index	ts	t	weight	tr
[#]	[°C]	[s]	[mg]	[°C]
843	1.29966e+02	8.43000e+02	3.02592e+00	1.30500e+02
847	1.30637e+02	8.47000e+02	3.02582e+00	1.31167e+02
851	1.31305e+02	8.51000e+02	3.02574e+00	1.31833e+02
855	1.31964e+02	8.55000e+02	3.02569e+00	1.32500e+02
859	1.32652e+02	8.59000e+02	3.02560e+00	1.33167e+02
863	1.33323e+02	8.63000e+02	3.02543e+00	1.33833e+02
867	1.33992e+02	8.67000e+02	3.02516e+00	1.34500e+02
871	1.34635e+02	8.71000e+02	3.02491e+00	1.35167e+02
875	1.35331e+02	8.75000e+02	3.02469e+00	1.35833e+02
879	1.35985e+02	8.79000e+02	3.02449e+00	1.36500e+02
883	1.36657e+02	8.83000e+02	3.02432e+00	1.37167e+02
887	1.37337e+02	8.87000e+02	3.02418e+00	1.37833e+02
891	1.38003e+02	8.91000e+02	3.02406e+00	1.38500e+02
895	1.38678e+02	8.95000e+02	3.02394e+00	1.39167e+02
899	1.39337e+02	8.99000e+02	3.02375e+00	1.39833e+02
903	1.40007e+02	9.03000e+02	3.02345e+00	1.40500e+02
907	1.40691e+02	9.07000e+02	3.02312e+00	1.41167e+02
911	1.41364e+02	9.11000e+02	3.02284e+00	1.41833e+02
915	1.42033e+02	9.15000e+02	3.02260e+00	1.42500e+02
919	1.42698e+02	9.19000e+02	3.02226e+00	1.43167e+02
923	1.43374e+02	9.23000e+02	3.02175e+00	1.43833e+02
927	1.44033e+02	9.27000e+02	3.02143e+00	1.44500e+02
931	1.44710e+02	9.31000e+02	3.02155e+00	1.45167e+02
935	1.45372e+02	9.35000e+02	3.02155e+00	1.45833e+02
939	1.46042e+02	9.39000e+02	3.02110e+00	1.46500e+02
943	1.46719e+02	9.43000e+02	3.02056e+00	1.47167e+02
947	1.47391e+02	9.47000e+02	3.02010e+00	1.47833e+02
951	1.48059e+02	9.51000e+02	3.01971e+00	1.48500e+02
955	1.48738e+02	9.55000e+02	3.01937e+00	1.49167e+02
959	1.49403e+02	9.59000e+02	3.01896e+00	1.49833e+02
963	1.50084e+02	9.63000e+02	3.01839e+00	1.50500e+02
967	1.50744e+02	9.67000e+02	3.01790e+00	1.51167e+02
971	1.51417e+02	9.71000e+02	3.01761e+00	1.51833e+02
975	1.52089e+02	9.75000e+02	3.01727e+00	1.52500e+02
979	1.52767e+02	9.79000e+02	3.01677e+00	1.53167e+02
983	1.53428e+02	9.83000e+02	3.01624e+00	1.53833e+02
987	1.54101e+02	9.87000e+02	3.01577e+00	1.54500e+02
991	1.54772e+02	9.91000e+02	3.01538e+00	1.55167e+02
995	1.55444e+02	9.95000e+02	3.01505e+00	1.55833e+02
999	1.56129e+02	9.99000e+02	3.01462e+00	1.56500e+02
1003	1.56788e+02	1.00300e+03	3.01405e+00	1.57167e+02
1007	1.57466e+02	1.00700e+03	3.01351e+00	1.57833e+02
1011	1.58135e+02	1.01100e+03	3.01299e+00	1.58500e+02
1015	1.58800e+02	1.01500e+03	3.01237e+00	1.59167e+02
1019	1.59471e+02	1.01900e+03	3.01171e+00	1.59833e+02
1023	1.60138e+02	1.02300e+03	3.01113e+00	1.60500e+02
1027	1.60813e+02	1.02700e+03	3.01064e+00	1.61167e+02
1031	1.61480e+02	1.03100e+03	3.01010e+00	1.61833e+02
1035	1.62158e+02	1.03500e+03	3.00935e+00	1.62500e+02
1039	1.62823e+02	1.03900e+03	3.00853e+00	1.63167e+02
1043	1.63491e+02	1.04300e+03	3.00771e+00	1.63833e+02
1047	1.64170e+02	1.04700e+03	3.00688e+00	1.64500e+02
1051	1.64838e+02	1.05100e+03	3.00603e+00	1.65167e+02
1055	1.65512e+02	1.05500e+03	3.00511e+00	1.65833e+02
1059	1.66195e+02	1.05900e+03	3.00409e+00	1.66500e+02
1063	1.66863e+02	1.06300e+03	3.00298e+00	1.67167e+02
1067	1.67538e+02	1.06700e+03	3.00187e+00	1.67833e+02
1071	1.68212e+02	1.07100e+03	3.00075e+00	1.68500e+02
1075	1.68871e+02	1.07500e+03	2.99954e+00	1.69167e+02
1079	1.69540e+02	1.07900e+03	2.99812e+00	1.69833e+02
1083	1.70213e+02	1.08300e+03	2.99654e+00	1.70500e+02
1087	1.70882e+02	1.08700e+03	2.99489e+00	1.71167e+02
1091	1.71571e+02	1.09100e+03	2.99314e+00	1.71833e+02
1095	1.72238e+02	1.09500e+03	2.99127e+00	1.72500e+02
1099	1.72914e+02	1.09900e+03	2.98941e+00	1.73167e+02
1103	1.73602e+02	1.10300e+03	2.98756e+00	1.73833e+02
1107	1.74268e+02	1.10700e+03	2.98558e+00	1.74500e+02
1111	1.74930e+02	1.11100e+03	2.98343e+00	1.75167e+02
1115	1.75618e+02	1.11500e+03	2.98117e+00	1.75833e+02
1119	1.76295e+02	1.11900e+03	2.97882e+00	1.76500e+02
1123	1.76958e+02	1.12300e+03	2.97642e+00	1.77167e+02
1127	1.77628e+02	1.12700e+03	2.97398e+00	1.77833e+02
1131	1.78296e+02	1.13100e+03	2.97140e+00	1.78500e+02
1135	1.78964e+02	1.13500e+03	2.96879e+00	1.79167e+02
1139	1.79637e+02	1.13900e+03	2.96616e+00	1.79833e+02
1143	1.80310e+02	1.14300e+03	2.96339e+00	1.80500e+02
1147	1.81001e+02	1.14700e+03	2.96052e+00	1.81167e+02
1151	1.81675e+02	1.15100e+03	2.95770e+00	1.81833e+02
1155	1.82358e+02	1.15500e+03	2.95497e+00	1.82500e+02
1159	1.83042e+02	1.15900e+03	2.95226e+00	1.83167e+02
1163	1.83713e+02	1.16300e+03	2.94949e+00	1.83833e+02
1167	1.84401e+02	1.16700e+03	2.94676e+00	1.84500e+02
1171	1.85092e+02	1.17100e+03	2.94405e+00	1.85167e+02
1175	1.85809e+02	1.17500e+03	2.94132e+00	1.85833e+02
1179	1.86477e+02	1.17900e+03	2.93869e+00	1.86500e+02
1183	1.87168e+02	1.18300e+03	2.93616e+00	1.87167e+02
1187	1.87861e+02	1.18700e+03	2.93371e+00	1.87833e+02
1191	1.88545e+02	1.19100e+03	2.93132e+00	1.88500e+02
1195	1.89230e+02	1.19500e+03	2.92901e+00	1.89167e+02
1199	1.89923e+02	1.19900e+03	2.92683e+00	1.89833e+02
1203	1.90604e+02	1.20300e+03	2.92479e+00	1.90500e+02
1207	1.91296e+02	1.20700e+03	2.92289e+00	1.91167e+02
1211	1.91967e+02	1.21100e+03	2.92099e+00	1.91833e+02
1215	1.92644e+02	1.21500e+03	2.91905e+00	1.92500e+02
1219	1.93326e+02	1.21900e+03	2.91723e+00	1.93167e+02
1223	1.94002e+02	1.22300e+03	2.91562e+00	1.93833e+02
1227	1.94673e+02	1.22700e+03	2.91410e+00	1.94500e+02
1231	1.95352e+02	1.23100e+03	2.91255e+00	1.95167e+02
1235	1.96027e+02	1.23500e+03	2.91110e+00	1.95833e+02
1239	1.96706e+02	1.23900e+03	2.91009e+00	1.96500e+02
1243	1.97389e+02	1.24300e+03	2.90931e+00	1.97167e+02
1247	1.98062e+02	1.24700e+03	2.90835e+00	1.97833e+02
1251	1.98736e+02	1.25100e+03	2.90738e+00	1.98500e+02
1255	1.99413e+02	1.25500e+03	2.90647e+00	1.99167e+02
1259	2.00093e+02	1.25900e+03	2.90556e+00	1.99833e+02
1263	2.00776e+02	1.26300e+03	2.90474e+00	2.00500e+02
1267	2.01447e+02	1.26700e+03	2.90407e+00	2.01167e+02
1271	2.02112e+02	1.27100e+03	2.90348e+00	2.01833e+02
1275	2.02797e+02	1.27500e+03	2.90291e+00	2.02500e+02
1279	2.03459e+02	1.27900e+03	2.90234e+00	2.03167e+02
1283	2.04129e+02	1.28300e+03	2.90178e+00	2.03833e+02
1287	2.04820e+02	1.28700e+03	2.90123e+00	2.04500e+02
1291	2.05487e+02	1.29100e+03	2.90066e+00	2.05167e+02
1295	2.06162e+02	1.29500e+03	2.90008e+00	2.05833e+02
1299	2.06852e+02	1.29900e+03	2.89958e+00	2.06500e+02
1303	2.07499e+02	1.30300e+03	2.89917e+00	2.07167e+02
1307	2.08193e+02	1.30700e+03	2.89877e+00	2.07833e+02
1311	2.08866e+02	1.31100e+03	2.89819e+00	2.08500e+02
1315	2.09551e+02	1.31500e+03	2.89743e+00	2.09167e+02
1319	2.10230e+02	1.31900e+03	2.89699e+00	2.09833e+02
1323	2.10894e+02	1.32300e+03	2.89694e+00	2.10500e+02
1327	2.11570e+02	1.32700e+03	2.89655e+00	2.11167e+02
1331	2.12234e+02	1.33100e+03	2.89578e+00	2.11833e+02
1335	2.12907e+02	1.33500e+03	2.89516e+00	2.12500e+02
1339	2.13580e+02	1.33900e+03	2.89476e+00	2.13167e+02
1343	2.14245e+02	1.34300e+03	2.89433e+00	2.13833e+02
1347	2.14913e+02	1.34700e+03	2.89384e+00	2.14500e+02
1351	2.15592e+02	1.35100e+03	2.89337e+00	2.15167e+02
1355	2.16256e+02	1.35500e+03	2.89290e+00	2.15833e+02
1359	2.16936e+02	1.35900e+03	2.89231e+00	2.16500e+02
1363	2.17597e+02	1.36300e+03	2.89169e+00	2.17167e+02
1367	2.18280e+02	1.36700e+03	2.89119e+00	2.17833e+02
1371	2.18946e+02	1.37100e+03	2.89073e+00	2.18500e+02
1375	2.19615e+02	1.37500e+03	2.89030e+00	2.19167e+02
1379	2.20292e+02	1.37900e+03	2.88985e+00	2.19833e+02
1383	2.20975e+02	1.38300e+03	2.88944e+00	2.20500e+02
1387	2.21656e+02	1.38700e+03	2.88914e+00	2.21167e+02
1391	2.22338e+02	1.39100e+03	2.88882e+00	2.21833e+02
1395	2.23005e+02	1.39500e+03	2.88836e+00	2.22500e+02
1399	2.23694e+02	1.39900e+03	2.88783e+00	2.23167e+02
1403	2.24390e+02	1.40300e+03	2.88736e+00	2.23833e+02
1407	2.25066e+02	1.40700e+03	2.88697e+00	2.24500e+02
1411	2.25739e+02	1.41100e+03	2.88665e+00	2.25167e+02
1415	2.26421e+02	1.41500e+03	2.88639e+00	2.25833e+02
1419	2.27096e+02	1.41900e+03	2.88611e+00	2.26500e+02
1423	2.27775e+02	1.42300e+03	2.88576e+00	2.27167e+02
1427	2.28449e+02	1.42700e+03	2.88542e+00	2.27833e+02
1431	2.29123e+02	1.43100e+03	2.88513e+00	2.28500e+02
1435	2.29799e+02	1.43500e+03	2.88484e+00	2.29167e+02
1439	2.30464e+02	1.43900e+03	2.88456e+00	2.29833e+02
1443	2.31145e+02	1.44300e+03	2.88439e+00	2.30500e+02
1447	2.31829e+02	1.44700e+03	2.88418e+00	2.31167e+02
1451	2.32500e+02	1.45100e+03	2.88394e+00	2.31833e+02
1455	2.33176e+02	1.45500e+03	2.88375e+00	2.32500e+02
1459	2.33855e+02	1.45900e+03	2.88349e+00	2.33167e+02
1463	2.34524e+02	1.46300e+03	2.88317e+00	2.33833e+02
1467	2.35184e+02	1.46700e+03	2.88289e+00	2.34500e+02
1471	2.35856e+02	1.47100e+03	2.88268e+00	2.35167e+02
1475	2.36542e+02	1.47500e+03	2.88247e+00	2.35833e+02
1479	2.37209e+02	1.47900e+03	2.88225e+00	2.36500e+02
1483	2.37875e+02	1.48300e+03	2.88201e+00	2.37167e+02
1487	2.38555e+02	1.48700e+03	2.88168e+00	2.37833e+02
1491	2.39285e+02	1.49100e+03	2.88138e+00	2.38500e+02
1495	2.39956e+02	1.49500e+03	2.88125e+00	2.39167e+02
1499	2.40615e+02	1.49900e+03	2.88116e+00	2.39833e+02
1503	2.41290e+02	1.50300e+03	2.88092e+00	2.40500e+02
1507	2.41961e+02	1.50700e+03	2.88060e+00	2.41167e+02
1511	2.42634e+02	1.51100e+03	2.88031e+00	2.41833e+02
1515	2.43312e+02	1.51500e+03	2.88003e+00	2.42500e+02
1519	2.43994e+02	1.51900e+03	2.87976e+00	2.43167e+02
1523	2.44669e+02	1.52300e+03	2.87964e+00	2.43833e+02
1527	2.45368e+02	1.52700e+03	2.87968e+00	2.44500e+02
1531	2.46016e+02	1.53100e+03	2.87954e+00	2.45167e+02
1535	2.46671e+02	1.53500e+03	2.87922e+00	2.45833e+02
1539	2.47355e+02	1.53900e+03	2.87893e+00	2.46500e+02
1543	2.47998e+02	1.54300e+03	2.87864e+00	2.47167e+02
1547	2.48684e+02	1.54700e+03	2.87839e+00	2.47833e+02
1551	2.49367e+02	1.55100e+03	2.87823e+00	2.48500e+02
1555	2.50010e+02	1.55500e+03	2.87811e+00	2.49167e+02
1559	2.50716e+02	1.55900e+03	2.87790e+00	2.49833e+02
1563	2.51420e+02	1.56300e+03	2.87760e+00	2.50500e+02
1567	2.52102e+02	1.56700e+03	2.87736e+00	2.51167e+02
1571	2.52774e+02	1.57100e+03	2.87718e+00	2.51833e+02
1575	2.53463e+02	1.57500e+03	2.87694e+00	2.52500e+02
1579	2.54129e+02	1.57900e+03	2.87663e+00	2.53167e+02
1583	2.54802e+02	1.58300e+03	2.87633e+00	2.53833e+02
1587	2.55465e+02	1.58700e+03	2.87607e+00	2.54500e+02
1591	2.56145e+02	1.59100e+03	2.87584e+00	2.55167e+02
1595	2.56808e+02	1.59500e+03	2.87566e+00	2.55833e+02
1599	2.57477e+02	1.59900e+03	2.87544e+00	2.56500e+02
1603	2.58139e+02	1.60300e+03	2.87509e+00	2.57167e+02
1607	2.58803e+02	1.60700e+03	2.87473e+00	2.57833e+02
1611	2.59460e+02	1.61100e+03	2.87440e+00	2.58500e+02
1615	2.60106e+02	1.61500e+03	2.87399e+00	2.59167e+02
1619	2.60777e+02	1.61900e+03	2.87361e+00	2.59833e+02
1623	2.61437e+02	1.62300e+03	2.87329e+00	2.60500e+02
1627	2.62090e+02	1.62700e+03	2.87289e+00	2.61167e+02
1631	2.62753e+02	1.63100e+03	2.87246e+00	2.61833e+02
1635	2.63404e+02	1.63500e+03	2.87205e+00	2.62500e+02
1639	2.64065e+02	1.63900e+03	2.87171e+00	2.63167e+02
1643	2.64732e+02	1.64300e+03	2.87138e+00	2.63833e+02
1647	2.65397e+02	1.64700e+03	2.87095e+00	2.64500e+02
1651	2.66067e+02	1.65100e+03	2.87043e+00	2.65167e+02
1655	2.66719e+02	1.65500e+03	2.86995e+00	2.65833e+02
1659	2.67388e+02	1.65900e+03	2.86948e+00	2.66500e+02
1663	2.68043e+02	1.66300e+03	2.86890e+00	2.67167e+02
1667	2.68699e+02	1.66700e+03	2.86822e+00	2.67833e+02
1671	2.69368e+02	1.67100e+03	2.86750e+00	2.68500e+02
1675	2.70035e+02	1.67500e+03	2.86681e+00	2.69167e+02
1679	2.70701e+02	1.67900e+03	2.86615e+00	2.69833e+02
1683	2.71369e+02	1.68300e+03	2.86548e+00	2.70500e+02
1687	2.72020e+02	1.68700e+03	2.86482e+00	2.71167e+02
1691	2.72674e+02	1.69100e+03	2.86416e+00	2.71833e+02
1695	2.73339e+02	1.69500e+03	2.86345e+00	2.72500e+02
1699	2.74007e+02	1.69900e+03	2.86263e+00	2.73167e+02
1703	2.74668e+02	1.70300e+03	2.86174e+00	2.73833e+02
1707	2.75341e+02	1.70700e+03	2.86078e+00	2.74500e+02
1711	2.76010e+02	1.71100e+03	2.85975e+00	2.75167e+02
1715	2.76667e+02	1.71500e+03	2.85866e+00	2.75833e+02
1719	2.77326e+02	1.71900e+03	2.85761e+00	2.76500e+02
1723	2.77994e+02	1.72300e+03	2.85661e+00	2.77167e+02
1727	2.78649e+02	1.72700e+03	2.85561e+00	2.77833e+02
1731	2.79317e+02	1.73100e+03	2.85452e+00	2.78500e+02
1735	2.79994e+02	1.73500e+03	2.85330e+00	2.79167e+02
1739	2.80645e+02	1.73900e+03	2.85200e+00	2.79833e+02
1743	2.81319e+02	1.74300e+03	2.85065e+00	2.80500e+02
1747	2.81983e+02	1.74700e+03	2.84925e+00	2.81167e+02
1751	2.82642e+02	1.75100e+03	2.84779e+00	2.81833e+02
1755	2.83301e+02	1.75500e+03	2.84625e+00	2.82500e+02
1759	2.83964e+02	1.75900e+03	2.84471e+00	2.83167e+02
1763	2.84630e+02	1.76300e+03	2.84313e+00	2.83833e+02
1767	2.85296e+02	1.76700e+03	2.84150e+00	2.84500e+02
1771	2.85992e+02	1.77100e+03	2.83981e+00	2.85167e+02
1775	2.86650e+02	1.77500e+03	2.83803e+00	2.85833e+02
1779	2.87297e+02	1.77900e+03	2.83614e+00	2.86500e+02
1783	2.87963e+02	1.78300e+03	2.83415e+00	2.87167e+02
1787	2.88624e+02	1.78700e+03	2.83204e+00	2.87833e+02
1791	2.89305e+02	1.79100e+03	2.82991e+00	2.88500e+02
1795	2.89963e+02	1.79500e+03	2.82771e+00	2.89167e+02
1799	2.90622e+02	1.79900e+03	2.82538e+00	2.89833e+02
1803	2.91294e+02	1.80300e+03	2.82305e+00	2.90500e+02
1807	2.91958e+02	1.80700e+03	2.82072e+00	2.91167e+02
1811	2.92625e+02	1.81100e+03	2.81826e+00	2.91833e+02
1815	2.93290e+02	1.81500e+03	2.81573e+00	2.92500e+02
1819	2.93959e+02	1.81900e+03	2.81331e+00	2.93167e+02
1823	2.94628e+02	1.82300e+03	2.81083e+00	2.93833e+02
1827	2.95285e+02	1.82700e+03	2.80805e+00	2.94500e+02
1831	2.95963e+02	1.83100e+03	2.80516e+00	2.95167e+02
1835	2.96639e+02	1.83500e+03	2.80228e+00	2.95833e+02
1839	2.97311e+02	1.83900e+03	2.79941e+00	2.96500e+02
1843	2.97977e+02	1.84300e+03	2.79658e+00	2.97167e+02
1847	2.98633e+02	1.84700e+03	2.79375e+00	2.97833e+02
1851	2.99297e+02	1.85100e+03	2.79081e+00	2.98500e+02
1855	2.99962e+02	1.85500e+03	2.78781e+00	2.99167e+02
1859	3.00632e+02	1.85900e+03	2.78478e+00	2.99833e+02
1863	3.01288e+02	1.86300e+03	2.78173e+00	3.00500e+02
1867	3.01954e+02	1.86700e+03	2.77868e+00	3.01167e+02
1871	3.02625e+02	1.87100e+03	2.77557e+00	3.01833e+02
1875	3.03282e+02	1.87500e+03	2.77239e+00	3.02500e+02
1879	3.03945e+02	1.87900e+03	2.76921e+00	3.03167e+02
1883	3.04616e+02	1.88300e+03	2.76608e+00	3.03833e+02
1887	3.05280e+02	1.88700e+03	2.76296e+00	3.04500e+02
1891	3.05965e+02	1.89100e+03	2.75983e+00	3.05167e+02
1895	3.06631e+02	1.89500e+03	2.75664e+00	3.05833e+02
1899	3.07294e+02	1.89900e+03	2.75341e+00	3.06500e+02
1903	3.07949e+02	1.90300e+03	2.75028e+00	3.07167e+02
1907	3.08601e+02	1.90700e+03	2.74714e+00	3.07833e+02
1911	3.09266e+02	1.91100e+03	2.74369e+00	3.08500e+02
1915	3.09925e+02	1.91500e+03	2.74023e+00	3.09167e+02
1919	3.10598e+02	1.91900e+03	2.73710e+00	3.09833e+02
1923	3.11258e+02	1.92300e+03	2.73398e+00	3.10500e+02
1927	3.11909e+02	1.92700e+03	2.73066e+00	3.11167e+02
1931	3.12570e+02	1.93100e+03	2.72723e+00	3.11833e+02
1935	3.13234e+02	1.93500e+03	2.72383e+00	3.12500e+02
1939	3.13926e+02	1.93900e+03	2.72046e+00	3.13167e+02
1943	3.14600e+02	1.94300e+03	2.71686e+00	3.13833e+02
1947	3.15289e+02	1.94700e+03	2.71305e+00	3.14500e+02
1951	3.15974e+02	1.95100e+03	2.70927e+00	3.15167e+02
1955	3.16662e+02	1.95500e+03	2.70542e+00	3.15833e+02
1959	3.17334e+02	1.95900e+03	2.70129e+00	3.16500e+02
1963	3.17993e+02	1.96300e+03	2.69705e+00	3.17167e+02
1967	3.18660e+02	1.96700e+03	2.69276e+00	3.17833e+02
1971	3.19320e+02	1.97100e+03	2.68835e+00	3.18500e+02
1975	3.19990e+02	1.97500e+03	2.68384e+00	3.19167e+02
1979	3.20671e+02	1.97900e+03	2.67911e+00	3.19833e+02
1983	3.21319e+02	1.98300e+03	2.67399e+00	3.20500e+02
1987	3.22003e+02	1.98700e+03	2.66864e+00	3.21167e+02
1991	3.22666e+02	1.99100e+03	2.66330e+00	3.21833e+02
1995	3.23338e+02	1.99500e+03	2.65782e+00	3.22500e+02
1999	3.23994e+02	1.99900e+03	2.65192e+00	3.23167e+02
2003	3.24663e+02	2.00300e+03	2.64571e+00	3.23833e+02
2007	3.25329e+02	2.00700e+03	2.63934e+00	3.24500e+02
2011	3.25986e+02	2.01100e+03	2.63274e+00	3.25167e+02
2015	3.26642e+02	2.01500e+03	2.62579e+00	3.25833e+02
2019	3.27307e+02	2.01900e+03	2.61853e+00	3.26500e+02
2023	3.27971e+02	2.02300e+03	2.61087e+00	3.27167e+02
2027	3.28639e+02	2.02700e+03	2.60287e+00	3.27833e+02
2031	3.29299e+02	2.03100e+03	2.59462e+00	3.28500e+02
2035	3.29957e+02	2.03500e+03	2.58591e+00	3.29167e+02
2039	3.30616e+02	2.03900e+03	2.57676e+00	3.29833e+02
2043	3.31274e+02	2.04300e+03	2.56758e+00	3.30500e+02
2047	3.31937e+02	2.04700e+03	2.55808e+00	3.31167e+02
2051	3.32584e+02	2.05100e+03	2.54762e+00	3.31833e+02
2055	3.33241e+02	2.05500e+03	2.53628e+00	3.32500e+02
2059	3.33899e+02	2.05900e+03	2.52478e+00	3.33167e+02
2063	3.34560e+02	2.06300e+03	2.51347e+00	3.33833e+02
2067	3.35214e+02	2.06700e+03	2.50174e+00	3.34500e+02
2071	3.35865e+02	2.07100e+03	2.48905e+00	3.35167e+02
2075	3.36509e+02	2.07500e+03	2.47548e+00	3.35833e+02
2079	3.37167e+02	2.07900e+03	2.46139e+00	3.36500e+02
2083	3.37824e+02	2.08300e+03	2.44696e+00	3.37167e+02
2087	3.38476e+02	2.08700e+03	2.43207e+00	3.37833e+02
2091	3.39140e+02	2.09100e+03	2.41654e+00	3.38500e+02
2095	3.39784e+02	2.09500e+03	2.40040e+00	3.39167e+02
2099	3.40424e+02	2.09900e+03	2.38367e+00	3.39833e+02
2103	3.41071e+02	2.10300e+03	2.36632e+00	3.40500e+02
2107	3.41732e+02	2.10700e+03	2.34835e+00	3.41167e+02
2111	3.42382e+02	2.11100e+03	2.32979e+00	3.41833e+02
2115	3.43041e+02	2.11500e+03	2.31057e+00	3.42500e+02
2119	3.43706e+02	2.11900e+03	2.29066e+00	3.43167e+02
2123	3.44362e+02	2.12300e+03	2.27020e+00	3.43833e+02
2127	3.45023e+02	2.12700e+03	2.24909e+00	3.44500e+02
2131	3.45676e+02	2.13100e+03	2.22738e+00	3.45167e+02
2135	3.46329e+02	2.13500e+03	2.20527e+00	3.45833e+02
2139	3.46991e+02	2.13900e+03	2.18273e+00	3.46500e+02
2143	3.47649e+02	2.14300e+03	2.15935e+00	3.47167e+02
2147	3.48306e+02	2.14700e+03	2.13498e+00	3.47833e+02
2151	3.48972e+02	2.15100e+03	2.11002e+00	3.48500e+02
2155	3.49632e+02	2.15500e+03	2.08466e+00	3.49167e+02
2159	3.50302e+02	2.15900e+03	2.05873e+00	3.49833e+02
2163	3.50958e+02	2.16300e+03	2.03220e+00	3.50500e+02
2167	3.51637e+02	2.16700e+03	2.00527e+00	3.51167e+02
2171	3.52297e+02	2.17100e+03	1.97785e+00	3.51833e+02
2175	3.52986e+02	2.17500e+03	1.94992e+00	3.52500e+02
2179	3.53674e+02	2.17900e+03	1.92149e+00	3.53167e+02
2183	3.54362e+02	2.18300e+03	1.89255e+00	3.53833e+02
2187	3.55042e+02	2.18700e+03	1.86317e+00	3.54500e+02
2191	3.55730e+02	2.19100e+03	1.83334e+00	3.55167e+02
2195	3.56429e+02	2.19500e+03	1.80301e+00	3.55833e+02
2199	3.57118e+02	2.19900e+03	1.77222e+00	3.56500e+02
2203	3.57846e+02	2.20300e+03	1.74094e+00	3.57167e+02
2207	3.58575e+02	2.20700e+03	1.70914e+00	3.57833e+02
2211	3.59342e+02	2.21100e+03	1.67701e+00	3.58500e+02
2215	3.60031e+02	2.21500e+03	1.64467e+00	3.59167e+02
2219	3.60697e+02	2.21900e+03	1.61211e+00	3.59833e+02
2223	3.61383e+02	2.22300e+03	1.57925e+00	3.60500e+02
2227	3.62060e+02	2.22700e+03	1.54622e+00	3.61167e+02
2231	3.62724e+02	2.23100e+03	1.51309e+00	3.61833e+02
2235	3.63387e+02	2.23500e+03	1.47985e+00	3.62500e+02
2239	3.64057e+02	2.23900e+03	1.44612e+00	3.63167e+02
2243	3.64720e+02	2.24300e+03	1.41185e+00	3.63833e+02
2247	3.65394e+02	2.24700e+03	1.37709e+00	3.64500e+02
2251	3.66072e+02	2.25100e+03	1.34200e+00	3.65167e+02
2255	3.66742e+02	2.25500e+03	1.30755e+00	3.65833e+02
2259	3.67449e+02	2.25900e+03	1.27398e+00	3.66500e+02
2263	3.68134e+02	2.26300e+03	1.24035e+00	3.67167e+02
2267	3.68818e+02	2.26700e+03	1.20619e+00	3.67833e+02
2271	3.69482e+02	2.27100e+03	1.17135e+00	3.68500e+02
2275	3.70161e+02	2.27500e+03	1.13506e+00	3.69167e+02
2279	3.70823e+02	2.27900e+03	1.09832e+00	3.69833e+02
2283	3.71521e+02	2.28300e+03	1.06281e+00	3.70500e+02
2287	3.72204e+02	2.28700e+03	1.02819e+00	3.71167e+02
2291	3.72890e+02	2.29100e+03	9.93653e-01	3.71833e+02
2295	3.73579e+02	2.29500e+03	9.59373e-01	3.72500e+02
2299	3.74276e+02	2.29900e+03	9.25676e-01	3.73167e+02
2303	3.74990e+02	2.30300e+03	8.92339e-01	3.73833e+02
2307	3.75719e+02	2.30700e+03	8.59433e-01	3.74500e+02
2311	3.76447e+02	2.31100e+03	8.27042e-01	3.75167e+02
2315	3.77163e+02	2.31500e+03	7.95120e-01	3.75833e+02
2319	3.77865e+02	2.31900e+03	7.63781e-01	3.76500e+02
2323	3.78556e+02	2.32300e+03	7.33142e-01	3.77167e+02
2327	3.79226e+02	2.32700e+03	7.03124e-01	3.77833e+02
2331	3.79920e+02	2.33100e+03	6.73625e-01	3.78500e+02
2335	3.80589e+02	2.33500e+03	6.44773e-01	3.79167e+02
2339	3.81277e+02	2.33900e+03	6.16701e-01	3.79833e+02
2343	3.81966e+02	2.34300e+03	5.89381e-01	3.80500e+02
2347	3.82653e+02	2.34700e+03	5.62837e-01	3.81167e+02
2351	3.83336e+02	2.35100e+03	5.37078e-01	3.81833e+02
2355	3.84012e+02	2.35500e+03	5.12168e-01	3.82500e+02
2359	3.84695e+02	2.35900e+03	4.88040e-01	3.83167e+02
2363	3.85388e+02	2.36300e+03	4.64437e-01	3.83833e+02
2367	3.86063e+02	2.36700e+03	4.41422e-01	3.84500e+02
2371	3.86742e+02	2.37100e+03	4.19357e-01	3.85167e+02
2375	3.87421e+02	2.37500e+03	3.98511e-01	3.85833e+02
2379	3.88098e+02	2.37900e+03	3.78465e-01	3.86500e+02
2383	3.88766e+02	2.38300e+03	3.58819e-01	3.87167e+02
2387	3.89452e+02	2.38700e+03	3.39951e-01	3.87833e+02
2391	3.90091e+02	2.39100e+03	3.21967e-01	3.88500e+02
2395	3.90758e+02	2.39500e+03	3.04620e-01	3.89167e+02
2399	3.91462e+02	2.39900e+03	2.87942e-01	3.89833e+02
2403	3.92132e+02	2.40300e+03	2.72000e-01	3.90500e+02
2407	3.92794e+02	2.40700e+03	2.56758e-01	3.91167e+02
2411	3.93452e+02	2.41100e+03	2.42216e-01	3.91833e+02
2415	3.94117e+02	2.41500e+03	2.28322e-01	3.92500e+02
2419	3.94791e+02	2.41900e+03	2.15048e-01	3.93167e+02
2423	3.95447e+02	2.42300e+03	2.02484e-01	3.93833e+02
2427	3.96103e+02	2.42700e+03	1.90554e-01	3.94500e+02
2431	3.96781e+02	2.43100e+03	1.79139e-01	3.95167e+02
2435	3.97464e+02	2.43500e+03	1.68244e-01	3.95833e+02
2439	3.98137e+02	2.43900e+03	1.57896e-01	3.96500e+02
2443	3.98820e+02	2.44300e+03	1.48101e-01	3.97167e+02
2447	3.99506e+02	2.44700e+03	1.38789e-01	3.97833e+02
2451	4.00162e+02	2.45100e+03	1.29969e-01	3.98500e+02
2455	4.00844e+02	2.45500e+03	1.21716e-01	3.99167e+02
2459	4.01508e+02	2.45900e+03	1.14010e-01	3.99833e+02
2463	4.02191e+02	2.46300e+03	1.06705e-01	4.00500e+02
2467	4.02923e+02	2.46700e+03	9.96054e-02	4.01167e+02
2471	4.03613e+02	2.47100e+03	9.29153e-02	4.01833e+02
2475	4.04296e+02	2.47500e+03	8.69403e-02	4.02500e+02
2479	4.04986e+02	2.47900e+03	8.14537e-02	4.03167e+02
2483	4.05647e+02	2.48300e+03	7.61927e-02	4.03833e+02
2487	4.06281e+02	2.48700e+03	7.11801e-02	4.04500e+02
2491	4.06940e+02	2.49100e+03	6.64899e-02	4.05167e+02
2495	4.07581e+02	2.49500e+03	6.21966e-02	4.05833e+02
2499	4.08222e+02	2.49900e+03	5.82544e-02	4.06500e+02
2503	4.08876e+02	2.50300e+03	5.45798e-02	4.07167e+02
2507	4.09538e+02	2.50700e+03	5.11663e-02	4.07833e+02
2511	4.10202e+02	2.51100e+03	4.79419e-02	4.08500e+02
2515	4.10866e+02	2.51500e+03	4.48963e-02	4.09167e+02
2519	4.11527e+02	2.51900e+03	4.21171e-02	4.09833e+02
2523	4.12186e+02	2.52300e+03	3.96138e-02	4.10500e+02
2527	4.12853e+02	2.52700e+03	3.73115e-02	4.11167e+02
2531	4.13534e+02	2.53100e+03	3.51538e-02	4.11833e+02
2535	4.14204e+02	2.53500e+03	3.31846e-02	4.12500e+02
2539	4.14853e+02	2.53900e+03	3.14020e-02	4.13167e+02
2543	4.15508e+02	2.54300e+03	2.97371e-02	4.13833e+02
2547	4.16181e+02	2.54700e+03	2.81627e-02	4.14500e+02
2551	4.16864e+02	2.55100e+03	2.67294e-02	4.15167e+02
2555	4.17534e+02	2.55500e+03	2.54327e-02	4.15833e+02
2559	4.18206e+02	2.55900e+03	2.41844e-02	4.16500e+02
2563	4.18865e+02	2.56300e+03	2.29667e-02	4.17167e+02
2567	4.19522e+02	2.56700e+03	2.18763e-02	4.17833e+02
2571	4.20195e+02	2.57100e+03	2.09502e-02	4.18500e+02
2575	4.20883e+02	2.57500e+03	2.01014e-02	4.19167e+02
2579	4.21601e+02	2.57900e+03	1.93118e-02	4.19833e+02
2583	4.22303e+02	2.58300e+03	1.86244e-02	4.20500e+02
2587	4.22980e+02	2.58700e+03	1.79730e-02	4.21167e+02
2591	4.23672e+02	2.59100e+03	1.73182e-02	4.21833e+02
2595	4.24354e+02	2.59500e+03	1.66868e-02	4.22500e+02
2599	4.25021e+02	2.59900e+03	1.60950e-02	4.23167e+02
2603	4.25678e+02	2.60300e+03	1.55290e-02	4.23833e+02
2607	4.26357e+02	2.60700e+03	1.50023e-02	4.24500e+02
2611	4.27035e+02	2.61100e+03	1.45658e-02	4.25167e+02
2615	4.27733e+02	2.61500e+03	1.42391e-02	4.25833e+02
2619	4.28435e+02	2.61900e+03	1.39950e-02	4.26500e+02
2623	4.29099e+02	2.62300e+03	1.37989e-02	4.27167e+02
2627	4.29748e+02	2.62700e+03	1.36157e-02	4.27833e+02
2631	4.30392e+02	2.63100e+03	1.33862e-02	4.28500e+02
2635	4.31046e+02	2.63500e+03	1.31359e-02	4.29167e+02
2639	4.31692e+02	2.63900e+03	1.28981e-02	4.29833e+02
2643	4.32361e+02	2.64300e+03	1.26666e-02	4.30500e+02
2647	4.33026e+02	2.64700e+03	1.24369e-02	4.31167e+02
2651	4.33681e+02	2.65100e+03	1.22423e-02	4.31833e+02
2655	4.34323e+02	2.65500e+03	1.20584e-02	4.32500e+02
2659	4.34970e+02	2.65900e+03	1.18837e-02	4.33167e+02
2663	4.35633e+02	2.66300e+03	1.17456e-02	4.33833e+02
2667	4.36298e+02	2.66700e+03	1.16594e-02	4.34500e+02
2671	4.36963e+02	2.67100e+03	1.16096e-02	4.35167e+02
2675	4.37601e+02	2.67500e+03	1.15027e-02	4.35833e+02
2679	4.38274e+02	2.67900e+03	1.13678e-02	4.36500e+02
2683	4.38952e+02	2.68300e+03	1.12589e-02	4.37167e+02
2687	4.39628e+02	2.68700e+03	1.11578e-02	4.37833e+02
2691	4.40305e+02	2.69100e+03	1.10994e-02	4.38500e+02
2695	4.40967e+02	2.69500e+03	1.10636e-02	4.39167e+02
2699	4.41642e+02	2.69900e+03	1.10190e-02	4.39833e+02
2703	4.42318e+02	2.70300e+03	1.10243e-02	4.40500e+02
2707	4.42977e+02	2.70700e+03	1.10046e-02	4.41167e+02
2711	4.43646e+02	2.71100e+03	1.08923e-02	4.41833e+02
2715	4.44307e+02	2.71500e+03	1.07757e-02	4.42500e+02
2719	4.44967e+02	2.71900e+03	1.07768e-02	4.43167e+02
2723	4.45629e+02	2.72300e+03	1.08809e-02	4.43833e+02
2727	4.46295e+02	2.72700e+03	1.09487e-02	4.44500e+02
2731	4.46967e+02	2.73100e+03	1.09678e-02	4.45167e+02
2735	4.47646e+02	2.73500e+03	1.10006e-02	4.45833e+02
2739	4.48297e+02	2.73900e+03	1.09906e-02	4.46500e+02
2743	4.48965e+02	2.74300e+03	1.09166e-02	4.47167e+02
2747	4.49617e+02	2.74700e+03	1.08446e-02	4.47833e+02
2751	4.50277e+02	2.75100e+03	1.08241e-02	4.48500e+02
2755	4.50938e+02	2.75500e+03	1.08262e-02	4.49167e+02
2759	4.51586e+02	2.75900e+03	1.08105e-02	4.49833e+02
2763	4.52228e+02	2.76300e+03	1.07987e-02	4.50500e+02
2767	4.52877e+02	2.76700e+03	1.07597e-02	4.51167e+02
2771	4.53503e+02	2.77100e+03	1.06725e-02	4.51833e+02
2775	4.54023e+02	2.77500e+03	1.05845e-02	4.52500e+02
2779	4.54565e+02	2.77900e+03	1.04817e-02	4.53167e+02
2783	4.55175e+02	2.78300e+03	1.04177e-02	4.53833e+02
2787	4.55821e+02	2.78700e+03	1.04603e-02	4.54500e+02
2791	4.56460e+02	2.79100e+03	1.04966e-02	4.55167e+02
2795	4.57120e+02	2.79500e+03	1.04924e-02	4.55833e+02
2799	4.57768e+02	2.79900e+03	1.04683e-02	4.56500e+02
2803	4.58418e+02	2.80300e+03	1.04038e-02	4.57167e+02
2807	4.59072e+02	2.80700e+03	1.03537e-02	4.57833e+02
2811	4.59725e+02	2.81100e+03	1.03437e-02	4.58500e+02
2815	4.60383e+02	2.81500e+03	1.03398e-02	4.59167e+02
2819	4.61041e+02	2.81900e+03	1.03184e-02	4.59833e+02
2823	4.61699e+02	2.82300e+03	1.03330e-02	4.60500e+02
2827	4.62361e+02	2.82700e+03	1.03665e-02	4.61167e+02
2831	4.63018e+02	2.83100e+03	1.03567e-02	4.61833e+02
2835	4.63673e+02	2.83500e+03	1.03106e-02	4.62500e+02
2839	4.64329e+02	2.83900e+03	1.02152e-02	4.63167e+02
2843	4.65001e+02	2.84300e+03	1.01690e-02	4.63833e+02
2847	4.65648e+02	2.84700e+03	1.02259e-02	4.64500e+02
2851	4.66307e+02	2.85100e+03	1.02489e-02	4.65167e+02
2855	4.66966e+02	2.85500e+03	1.02006e-02	4.65833e+02
2859	4.67623e+02	2.85900e+03	1.01673e-02	4.66500e+02
2863	4.68274e+02	2.86300e+03	1.01622e-02	4.67167e+02
2867	4.68935e+02	2.86700e+03	1.01960e-02	4.67833e+02
2871	4.69593e+02	2.87100e+03	1.02317e-02	4.68500e+02
2875	4.70243e+02	2.87500e+03	1.02123e-02	4.69167e+02
2879	4.70904e+02	2.87900e+03	1.02214e-02	4.69833e+02
2883	4.71562e+02	2.88300e+03	1.02659e-02	4.70500e+02
2887	4.72213e+02	2.88700e+03	1.01867e-02	4.71167e+02
2891	4.72867e+02	2.89100e+03	1.00387e-02	4.71833e+02
2895	4.73528e+02	2.89500e+03	9.99220e-03	4.72500e+02
2899	4.74190e+02	2.89900e+03	1.00015e-02	4.73167e+02
2903	4.74838e+02	2.90300e+03	9.95254e-03	4.73833e+02
2907	4.75499e+02	2.90700e+03	9.89682e-03	4.74500e+02
2911	4.76140e+02	2.91100e+03	9.94621e-03	4.75167e+02
2915	4.76805e+02	2.91500e+03	1.00699e-02	4.75833e+02
2919	4.77451e+02	2.91900e+03	1.01022e-02	4.76500e+02
2923	4.78104e+02	2.92300e+03	9.98543e-03	4.77167e+02
2927	4.78741e+02	2.92700e+03	9.91831e-03	4.77833e+02
2931	4.79400e+02	2.93100e+03	9.97564e-03	4.78500e+02
2935	4.80039e+02	2.93500e+03	1.00170e-02	4.79167e+02
2939	4.80705e+02	2.93900e+03	9.99543e-03	4.79833e+02
2943	4.81366e+02	2.94300e+03	1.00107e-02	4.80500e+02
2947	4.82004e+02	2.94700e+03	1.00429e-02	4.81167e+02
2951	4.82671e+02	2.95100e+03	1.00253e-02	4.81833e+02
2955	4.83312e+02	2.95500e+03	1.00295e-02	4.82500e+02
2959	4.83957e+02	2.95900e+03	1.00215e-02	4.83167e+02
2963	4.84605e+02	2.96300e+03	9.92326e-03	4.83833e+02
2967	4.85256e+02	2.96700e+03	9.83439e-03	4.84500e+02
2971	4.85906e+02	2.97100e+03	9.83137e-03	4.85167e+02
2975	4.86568e+02	2.97500e+03	9.84990e-03	4.85833e+02
2979	4.87215e+02	2.97900e+03	9.81809e-03	4.86500e+02
2983	4.87869e+02	2.98300e+03	9.73184e-03	4.87167e+02
2987	4.88530e+02	2.98700e+03	9.68340e-03	4.87833e+02
2991	4.89177e+02	2.99100e+03	9.73558e-03	4.88500e+02
2995	4.89832e+02	2.99500e+03	9.84197e-03	4.89167e+02
2999	4.90489e+02	2.99900e+03	9.92562e-03	4.89833e+02
3003	4.91140e+02	3.00300e+03	9.98595e-03	4.90500e+02
3007	4.91794e+02	3.00700e+03	1.00214e-02	4.91167e+02
3011	4.92446e+02	3.01100e+03	9.98264e-03	4.91833e+02
3015	4.93109e+02	3.01500e+03	9.98241e-03	4.92500e+02
3019	4.93773e+02	3.01900e+03	1.00540e-02	4.93167e+02
3023	4.94430e+02	3.02300e+03	1.00634e-02	4.93833e+02
3027	4.95102e+02	3.02700e+03	1.00805e-02	4.94500e+02
3031	4.95757e+02	3.03100e+03	1.01013e-02	4.95167e+02
3035	4.96414e+02	3.03500e+03	9.98797e-03	4.95833e+02
3039	4.97078e+02	3.03900e+03	9.87662e-03	4.96500e+02
3043	4.97736e+02	3.04300e+03	9.87404e-03	4.97167e+02
3047	4.98403e+02	3.04700e+03	9.86277e-03	4.97833e+02
3051	4.99059e+02	3.05100e+03	9.80676e-03	4.98500e+02
3055	4.99719e+02	3.05500e+03	9.76456e-03	4.99167e+02
3059	5.00382e+02	3.05900e+03	9.76737e-03	4.99833e+02
3063	5.01034e+02	3.06300e+03	9.79678e-03	5.00500e+02
3067	5.01681e+02	3.06700e+03	9.82115e-03	5.01167e+02
3071	5.02353e+02	3.07100e+03	9.86670e-03	5.01833e+02
3075	5.03016e+02	3.07500e+03	9.85804e-03	5.02500e+02
3079	5.03678e+02	3.07900e+03	9.76853e-03	5.03167e+02
3083	5.04335e+02	3.08300e+03	9.75046e-03	5.03833e+02
3087	5.05002e+02	3.08700e+03	9.80921e-03	5.04500e+02
3091	5.05662e+02	3.09100e+03	9.81530e-03	5.05167e+02
3095	5.06321e+02	3.09500e+03	9.77109e-03	5.05833e+02
3099	5.06982e+02	3.09900e+03	9.76294e-03	5.06500e+02
3103	5.07645e+02	3.10300e+03	9.77804e-03	5.07167e+02
3107	5.08293e+02	3.10700e+03	9.82154e-03	5.07833e+02
3111	5.08958e+02	3.11100e+03	9.86291e-03	5.08500e+02
3115	5.09614e+02	3.11500e+03	9.86178e-03	5.09167e+02
3119	5.10275e+02	3.11900e+03	9.78091e-03	5.09833e+02
3123	5.10927e+02	3.12300e+03	9.65670e-03	5.10500e+02
3127	5.11586e+02	3.12700e+03	9.63084e-03	5.11167e+02
3131	5.12240e+02	3.13100e+03	9.71066e-03	5.11833e+02
3135	5.12894e+02	3.13500e+03	9.80838e-03	5.12500e+02
3139	5.13551e+02	3.13900e+03	9.85747e-03	5.13167e+02
3143	5.14213e+02	3.14300e+03	9.85794e-03	5.13833e+02
3147	5.14868e+02	3.14700e+03	9.86331e-03	5.14500e+02
3151	5.15536e+02	3.15100e+03	9.91408e-03	5.15167e+02
3155	5.16184e+02	3.15500e+03	9.94506e-03	5.15833e+02
3159	5.16843e+02	3.15900e+03	9.88753e-03	5.16500e+02
3163	5.17500e+02	3.16300e+03	9.79020e-03	5.17167e+02
3167	5.18152e+02	3.16700e+03	9.70028e-03	5.17833e+02
3171	5.18817e+02	3.17100e+03	9.66862e-03	5.18500e+02
3175	5.19472e+02	3.17500e+03	9.74777e-03	5.19167e+02
3179	5.20115e+02	3.17900e+03	9.83306e-03	5.19833e+02
3183	5.20771e+02	3.18300e+03	9.80705e-03	5.20500e+02
3187	5.21442e+02	3.18700e+03	9.74013e-03	5.21167e+02
3191	5.22106e+02	3.19100e+03	9.64714e-03	5.21833e+02
3195	5.22768e+02	3.19500e+03	9.63615e-03	5.22500e+02
3199	5.23439e+02	3.19900e+03	9.71636e-03	5.23167e+02
3203	5.24103e+02	3.20300e+03	9.77017e-03	5.23833e+02
3207	5.24763e+02	3.20700e+03	9.83942e-03	5.24500e+02
3211	5.25421e+02	3.21100e+03	9.89514e-03	5.25167e+02
3215	5.26075e+02	3.21500e+03	9.86037e-03	5.25833e+02
3219	5.26740e+02	3.21900e+03	9.78065e-03	5.26500e+02
3223	5.27401e+02	3.22300e+03	9.74457e-03	5.27167e+02
3227	5.28050e+02	3.22700e+03	9.71349e-03	5.27833e+02
3231	5.28716e+02	3.23100e+03	9.66853e-03	5.28500e+02
3235	5.29376e+02	3.23500e+03	9.64989e-03	5.29167e+02
3239	5.30048e+02	3.23900e+03	9.62892e-03	5.29833e+02
3243	5.30705e+02	3.24300e+03	9.64398e-03	5.30500e+02
3247	5.31364e+02	3.24700e+03	9.71253e-03	5.31167e+02
3251	5.32028e+02	3.25100e+03	9.76470e-03	5.31833e+02
3255	5.32694e+02	3.25500e+03	9.75716e-03	5.32500e+02
3259	5.33344e+02	3.25900e+03	9.73345e-03	5.33167e+02
3263	5.33990e+02	3.26300e+03	9.73245e-03	5.33833e+02
3267	5.34636e+02	3.26700e+03	9.71546e-03	5.34500e+02
3271	5.35284e+02	3.27100e+03	9.67649e-03	5.35167e+02
3275	5.35940e+02	3.27500e+03	9.62044e-03	5.35833e+02
3279	5.36595e+02	3.27900e+03	9.55511e-03	5.36500e+02
3283	5.37248e+02	3.28300e+03	9.48030e-03	5.37167e+02
3287	5.37906e+02	3.28700e+03	9.46684e-03	5.37833e+02
3291	5.38566e+02	3.29100e+03	9.53542e-03	5.38500e+02
3295	5.39228e+02	3.29500e+03	9.59468e-03	5.39167e+02
3299	5.39881e+02	3.29900e+03	9.63891e-03	5.39833e+02
3303	5.40529e+02	3.30300e+03	9.71192e-03	5.40500e+02
3307	5.41204e+02	3.30700e+03	9.72908e-03	5.41167e+02
3311	5.41851e+02	3.31100e+03	9.66467e-03	5.41833e+02
3315	5.42512e+02	3.31500e+03	9.51735e-03	5.42500e+02
3319	5.43170e+02	3.31900e+03	9.32712e-03	5.43167e+02
3323	5.43823e+02	3.32300e+03	9.29992e-03	5.43833e+02
3327	5.44469e+02	3.32700e+03	9.54421e-03	5.44500e+02
3331	5.45140e+02	3.33100e+03	9.79991e-03	5.45167e+02
3335	5.45781e+02	3.33500e+03	9.82594e-03	5.45833e+02
3339	5.46425e+02	3.33900e+03	9.68112e-03	5.46500e+02
3343	5.47081e+02	3.34300e+03	9.56166e-03	5.47167e+02
3347	5.47738e+02	3.34700e+03	9.55828e-03	5.47833e+02
3351	5.48393e+02	3.35100e+03	9.59155e-03	5.48500e+02
3355	5.49054e+02	3.35500e+03	9.62912e-03	5.49167e+02
3359	5.49721e+02	3.35900e+03	9.72753e-03	5.49833e+02
3363	5.50370e+02	3.36300e+03	9.81337e-03	5.50500e+02
3367	5.51029e+02	3.36700e+03	9.78590e-03	5.51167e+02
3371	5.51699e+02	3.37100e+03	9.68337e-03	5.51833e+02
3375	5.52361e+02	3.37500e+03	9.55903e-03	5.52500e+02
3379	5.53018e+02	3.37900e+03	9.51522e-03	5.53167e+02
3383	5.53691e+02	3.38300e+03	9.57194e-03	5.53833e+02
3387	5.54347e+02	3.38700e+03	9.66100e-03	5.54500e+02
3391	5.55014e+02	3.39100e+03	9.67986e-03	5.55167e+02
3395	5.55664e+02	3.39500e+03	9.56739e-03	5.55833e+02
3399	5.56327e+02	3.39900e+03	9.39827e-03	5.56500e+02
3403	5.56995e+02	3.40300e+03	9.31180e-03	5.57167e+02
3407	5.57663e+02	3.40700e+03	9.36805e-03	5.57833e+02
3411	5.58324e+02	3.41100e+03	9.44720e-03	5.58500e+02
3415	5.59006e+02	3.41500e+03	9.44120e-03	5.59167e+02
3419	5.59666e+02	3.41900e+03	9.45909e-03	5.59833e+02
3423	5.60339e+02	3.42300e+03	9.51440e-03	5.60500e+02
3427	5.61006e+02	3.42700e+03	9.46335e-03	5.61167e+02
3431	5.61680e+02	3.43100e+03	9.33140e-03	5.61833e+02
3435	5.62339e+02	3.43500e+03	9.22605e-03	5.62500e+02
3439	5.63010e+02	3.43900e+03	9.19851e-03	5.63167e+02
3443	5.63669e+02	3.44300e+03	9.32848e-03	5.63833e+02
3447	5.64355e+02	3.44700e+03	9.49721e-03	5.64500e+02
3451	5.65018e+02	3.45100e+03	9.55305e-03	5.65167e+02
3455	5.65675e+02	3.45500e+03	9.50563e-03	5.65833e+02
3459	5.66326e+02	3.45900e+03	9.50321e-03	5.66500e+02
3463	5.66976e+02	3.46300e+03	9.56520e-03	5.67167e+02
3467	5.67625e+02	3.46700e+03	9.49280e-03	5.67833e+02
3471	5.68279e+02	3.47100e+03	9.39580e-03	5.68500e+02
3475	5.68940e+02	3.47500e+03	9.38263e-03	5.69167e+02
3479	5.69595e+02	3.47900e+03	9.35757e-03	5.69833e+02
3483	5.70255e+02	3.48300e+03	9.28352e-03	5.70500e+02
3487	5.70918e+02	3.48700e+03	9.25939e-03	5.71167e+02
3491	5.71590e+02	3.49100e+03	9.32802e-03	5.71833e+02
3495	5.72242e+02	3.49500e+03	9.33734e-03	5.72500e+02
3499	5.72880e+02	3.49900e+03	9.29204e-03	5.73167e+02
3503	5.73538e+02	3.50300e+03	9.29441e-03	5.73833e+02
3507	5.74203e+02	3.50700e+03	9.24842e-03	5.74500e+02
3511	5.74864e+02	3.51100e+03	9.09492e-03	5.75167e+02
3515	5.75519e+02	3.51500e+03	8.98583e-03	5.75833e+02
3519	5.76155e+02	3.51900e+03	9.01623e-03	5.76500e+02
3523	5.76816e+02	3.52300e+03	9.11962e-03	5.77167e+02
3527	5.77452e+02	3.52700e+03	9.25772e-03	5.77833e+02
3531	5.78097e+02	3.53100e+03	9.35129e-03	5.78500e+02
3535	5.78743e+02	3.53500e+03	9.35425e-03	5.79167e+02
3539	5.79389e+02	3.53900e+03	9.35040e-03	5.79833e+02
3543	5.80037e+02	3.54300e+03	9.33705e-03	5.80500e+02
3547	5.80670e+02	3.54700e+03	9.29458e-03	5.81167e+02
3551	5.81314e+02	3.55100e+03	9.24809e-03	5.81833e+02
3555	5.81964e+02	3.55500e+03	9.21167e-03	5.82500e+02
3559	5.82614e+02	3.55900e+03	9.20997e-03	5.83167e+02
3563	5.83265e+02	3.56300e+03	9.26596e-03	5.83833e+02
3567	5.83920e+02	3.56700e+03	9.34963e-03	5.84500e+02
3571	5.84567e+02	3.57100e+03	9.36634e-03	5.85167e+02
3575	5.85223e+02	3.57500e+03	9.26059e-03	5.85833e+02
3579	5.85885e+02	3.57900e+03	9.15925e-03	5.86500e+02
3583	5.86529e+02	3.58300e+03	9.18190e-03	5.87167e+02
3587	5.87180e+02	3.58700e+03	9.27822e-03	5.87833e+02
3591	5.87844e+02	3.59100e+03	9.32103e-03	5.88500e+02
3595	5.88496e+02	3.59500e+03	9.22685e-03	5.89167e+02
3599	5.89146e+02	3.59900e+03	9.09000e-03	5.89833e+02
3603	5.89787e+02	3.60300e+03	9.01613e-03	5.90500e+02
3607	5.90450e+02	3.60700e+03	9.01759e-03	5.91167e+02
3611	5.91107e+02	3.61100e+03	9.07891e-03	5.91833e+02
3615	5.91774e+02	3.61500e+03	9.19365e-03	5.92500e+02
3619	5.92432e+02	3.61900e+03	9.27198e-03	5.93167e+02
3623	5.93076e+02	3.62300e+03	9.26023e-03	5.93833e+02
3627	5.93740e+02	3.62700e+03	9.24427e-03	5.94500e+02
3631	5.94405e+02	3.63100e+03	9.28116e-03	5.95167e+02
3635	5.95068e+02	3.63500e+03	9.34521e-03	5.95833e+02
3639	5.95725e+02	3.63900e+03	9.38781e-03	5.96500e+02
3643	5.96384e+02	3.64300e+03	9.38103e-03	5.97167e+02
3647	5.97049e+02	3.64700e+03	9.30845e-03	5.97833e+02
3651	5.97712e+02	3.65100e+03	9.22311e-03	5.98500e+02
3655	5.98390e+02	3.65500e+03	9.22464e-03	5.99167e+02
3659	5.99060e+02	3.65900e+03	9.25343e-03	5.99833e+02
3663	5.99738e+02	3.66300e+03	9.22171e-03	6.00500e+02
3667	6.00418e+02	3.66700e+03	9.16754e-03	6.01167e+02
3671	6.01092e+02	3.67100e+03	9.11617e-03	6.01833e+02
3675	6.01768e+02	3.67500e+03	9.10567e-03	6.02500e+02
3679	6.02443e+02	3.67900e+03	9.14949e-03	6.03167e+02
3683	6.03110e+02	3.68300e+03	9.13539e-03	6.03833e+02
3687	6.03781e+02	3.68700e+03	9.08870e-03	6.04500e+02
3691	6.04445e+02	3.69100e+03	9.12290e-03	6.05167e+02
3695	6.05106e+02	3.69500e+03	9.13940e-03	6.05833e+02
3699	6.05775e+02	3.69900e+03	9.05988e-03	6.06500e+02
3703	6.06431e+02	3.70300e+03	9.00118e-03	6.07167e+02
3707	6.07089e+02	3.70700e+03	9.04479e-03	6.07833e+02
3711	6.07761e+02	3.71100e+03	9.06202e-03	6.08500e+02
3715	6.08436e+02	3.71500e+03	9.04012e-03	6.09167e+02
3719	6.09103e+02	3.71900e+03	9.07044e-03	6.09833e+02
3723	6.09766e+02	3.72300e+03	9.13593e-03	6.10500e+02
3727	6.10447e+02	3.72700e+03	9.19838e-03	6.11167e+02
3731	6.11104e+02	3.73100e+03	9.23426e-03	6.11833e+02
3735	6.11788e+02	3.73500e+03	9.21555e-03	6.12500e+02
3739	6.12467e+02	3.73900e+03	9.15964e-03	6.13167e+02
3743	6.13140e+02	3.74300e+03	9.11603e-03	6.13833e+02
3747	6.13809e+02	3.74700e+03	9.05706e-03	6.14500e+02
3751	6.14502e+02	3.75100e+03	8.96312e-03	6.15167e+02
3755	6.15188e+02	3.75500e+03	8.93402e-03	6.15833e+02
3759	6.15884e+02	3.75900e+03	8.98037e-03	6.16500e+02
3763	6.16558e+02	3.76300e+03	9.00089e-03	6.17167e+02
3767	6.17223e+02	3.76700e+03	9.04211e-03	6.17833e+02
3771	6.17898e+02	3.77100e+03	9.08244e-03	6.18500e+02
3775	6.18578e+02	3.77500e+03	9.03731e-03	6.19167e+02
3779	6.19229e+02	3.77900e+03	8.99381e-03	6.19833e+02
3783	6.19890e+02	3.78300e+03	8.99700e-03	6.20500e+02
3787	6.20537e+02	3.78700e+03	9.01586e-03	6.21167e+02
3791	6.21199e+02	3.79100e+03	9.03751e-03	6.21833e+02
3795	6.21883e+02	3.79500e+03	9.05633e-03	6.22500e+02
3799	6.22549e+02	3.79900e+03	9.08664e-03	6.23167e+02
3803	6.23221e+02	3.80300e+03	9.09482e-03	6.23833e+02
3807	6.23882e+02	3.80700e+03	9.07093e-03	6.24500e+02
3811	6.24546e+02	3.81100e+03	9.04630e-03	6.25167e+02
3815	6.25217e+02	3.81500e+03	9.06324e-03	6.25833e+02
3819	6.25873e+02	3.81900e+03	9.07368e-03	6.26500e+02
3823	6.26537e+02	3.82300e+03	9.02165e-03	6.27167e+02
3827	6.27202e+02	3.82700e+03	8.99693e-03	6.27833e+02
3831	6.27855e+02	3.83100e+03	8.99443e-03	6.28500e+02
3835	6.28510e+02	3.83500e+03	8.99624e-03	6.29167e+02
3839	6.29168e+02	3.83900e+03	9.04445e-03	6.29833e+02
3843	6.29824e+02	3.84300e+03	9.07930e-03	6.30500e+02
3847	6.30455e+02	3.84700e+03	9.07426e-03	6.31167e+02
3851	6.31107e+02	3.85100e+03	9.03642e-03	6.31833e+02
3855	6.31740e+02	3.85500e+03	9.01681e-03	6.32500e+02
3859	6.32381e+02	3.85900e+03	9.09326e-03	6.33167e+02
3863	6.33025e+02	3.86300e+03	9.13289e-03	6.33833e+02
3867	6.33688e+02	3.86700e+03	9.04536e-03	6.34500e+02
3871	6.34343e+02	3.87100e+03	8.95677e-03	6.35167e+02
3875	6.34991e+02	3.87500e+03	8.94298e-03	6.35833e+02
3879	6.35651e+02	3.87900e+03	9.01047e-03	6.36500e+02
3883	6.36304e+02	3.88300e+03	9.11139e-03	6.37167e+02
3887	6.36964e+02	3.88700e+03	9.13087e-03	6.37833e+02
3891	6.37616e+02	3.89100e+03	9.06889e-03	6.38500e+02
3895	6.38274e+02	3.89500e+03	8.99457e-03	6.39167e+02
3899	6.38916e+02	3.89900e+03	8.97655e-03	6.39833e+02
3903	6.39565e+02	3.90300e+03	9.02957e-03	6.40500e+02
3907	6.40220e+02	3.90700e+03	9.08736e-03	6.41167e+02
3911	6.40873e+02	3.91100e+03	9.14533e-03	6.41833e+02
3915	6.41522e+02	3.91500e+03	9.19347e-03	6.42500e+02
3919	6.42190e+02	3.91900e+03	9.16334e-03	6.43167e+02
3923	6.42853e+02	3.92300e+03	9.07952e-03	6.43833e+02
3927	6.43505e+02	3.92700e+03	9.02491e-03	6.44500e+02
3931	6.44165e+02	3.93100e+03	9.00303e-03	6.45167e+02
3935	6.44835e+02	3.93500e+03	9.00873e-03	6.45833e+02
3939	6.45492e+02	3.93900e+03	9.02912e-03	6.46500e+02
3943	6.46150e+02	3.94300e+03	9.07659e-03	6.47167e+02
3947	6.46802e+02	3.94700e+03	9.13710e-03	6.47833e+02
3951	6.47458e+02	3.95100e+03	9.16779e-03	6.48500e+02
3955	6.48114e+02	3.95500e+03	9.14916e-03	6.49167e+02
3959	6.48769e+02	3.95900e+03	9.07886e-03	6.49833e+02
3963	6.49430e+02	3.96300e+03	9.02900e-03	6.50500e+02
3967	6.50099e+02	3.96700e+03	9.01592e-03	6.51167e+02
3971	6.50753e+02	3.97100e+03	9.00989e-03	6.51833e+02
3975	6.51414e+02	3.97500e+03	9.03353e-03	6.52500e+02
3979	6.52075e+02	3.97900e+03	9.06745e-03	6.53167e+02
3983	6.52723e+02	3.98300e+03	9.05237e-03	6.53833e+02
3987	6.53384e+02	3.98700e+03	9.01135e-03	6.54500e+02
3991	6.54037e+02	3.99100e+03	9.03119e-03	6.55167e+02
3995	6.54685e+02	3.99500e+03	9.11992e-03	6.55833e+02
3999	6.55345e+02	3.99900e+03	9.16314e-03	6.56500e+02
4003	6.55994e+02	4.00300e+03	9.09400e-03	6.57167e+02
4007	6.56642e+02	4.00700e+03	9.01738e-03	6.57833e+02
4011	6.57295e+02	4.01100e+03	8.99817e-03	6.58500e+02
4015	6.57951e+02	4.01500e+03	8.98987e-03	6.59167e+02
4019	6.58611e+02	4.01900e+03	9.01609e-03	6.59833e+02
4023	6.59278e+02	4.02300e+03	9.06454e-03	6.60500e+02
4027	6.59930e+02	4.02700e+03	9.04315e-03	6.61167e+02
4031	6.60588e+02	4.03100e+03	8.97885e-03	6.61833e+02
4035	6.61245e+02	4.03500e+03	8.97189e-03	6.62500e+02
4039	6.61905e+02	4.03900e+03	8.99072e-03	6.63167e+02
4043	6.62572e+02	4.04300e+03	8.99728e-03	6.63833e+02
4047	6.63232e+02	4.04700e+03	9.00734e-03	6.64500e+02
4051	6.63884e+02	4.05100e+03	8.97868e-03	6.65167e+02
4055	6.64553e+02	4.05500e+03	8.92045e-03	6.65833e+02
4059	6.65214e+02	4.05900e+03	8.90100e-03	6.66500e+02
4063	6.65881e+02	4.06300e+03	8.96333e-03	6.67167e+02
4067	6.66550e+02	4.06700e+03	9.01218e-03	6.67833e+02
4071	6.67214e+02	4.07100e+03	8.98151e-03	6.68500e+02
4075	6.67882e+02	4.07500e+03	8.97188e-03	6.69167e+02
4079	6.68536e+02	4.07900e+03	8.98808e-03	6.69833e+02
4083	6.69215e+02	4.08300e+03	9.02663e-03	6.70500e+02
4087	6.69877e+02	4.08700e+03	9.08187e-03	6.71167e+02
4091	6.70538e+02	4.09100e+03	9.08647e-03	6.71833e+02
4095	6.71209e+02	4.09500e+03	9.06157e-03	6.72500e+02
4099	6.71871e+02	4.09900e+03	9.06128e-03	6.73167e+02
4103	6.72535e+02	4.10300e+03	9.12353e-03	6.73833e+02
4107	6.73197e+02	4.10700e+03	9.17811e-03	6.74500e+02
4111	6.73864e+02	4.11100e+03	9.15562e-03	6.75167e+02
4115	6.74523e+02	4.11500e+03	9.07012e-03	6.75833e+02
4119	6.75196e+02	4.11900e+03	8.93706e-03	6.76500e+02
4123	6.75865e+02	4.12300e+03	8.85814e-03	6.77167e+02
4127	6.76525e+02	4.12700e+03	8.85223e-03	6.77833e+02
4131	6.77185e+02	4.13100e+03	8.87531e-03	6.78500e+02
4135	6.77860e+02	4.13500e+03	8.92895e-03	6.79167e+02
4139	6.78522e+02	4.13900e+03	8.93260e-03	6.79833e+02
4143	6.79186e+02	4.14300e+03	8.85588e-03	6.80500e+02
4147	6.79850e+02	4.14700e+03	8.82033e-03	6.81167e+02
4151	6.80513e+02	4.15100e+03	8.87485e-03	6.81833e+02
4155	6.81166e+02	4.15500e+03	8.96813e-03	6.82500e+02
4159	6.81830e+02	4.15900e+03	8.98413e-03	6.83167e+02
4163	6.82497e+02	4.16300e+03	8.89788e-03	6.83833e+02
4167	6.83159e+02	4.16700e+03	8.84371e-03	6.84500e+02
4171	6.83821e+02	4.17100e+03	8.88032e-03	6.85167e+02
4175	6.84491e+02	4.17500e+03	8.93641e-03	6.85833e+02
4179	6.85143e+02	4.17900e+03	8.93899e-03	6.86500e+02
4183	6.85813e+02	4.18300e+03	8.91937e-03	6.87167e+02
4187	6.86475e+02	4.18700e+03	8.87496e-03	6.87833e+02
4191	6.87134e+02	4.19100e+03	8.86160e-03	6.88500e+02
4195	6.87802e+02	4.19500e+03	8.92665e-03	6.89167e+02
4199	6.88456e+02	4.19900e+03	9.01605e-03	6.89833e+02
4203	6.89130e+02	4.20300e+03	9.11146e-03	6.90500e+02
4207	6.89784e+02	4.20700e+03	9.21214e-03	6.91167e+02
4211	6.90451e+02	4.21100e+03	9.27847e-03	6.91833e+02
4215	6.91121e+02	4.21500e+03	9.26696e-03	6.92500e+02
4219	6.91788e+02	4.21900e+03	9.25026e-03	6.93167e+02
4223	6.92429e+02	4.22300e+03	9.24208e-03	6.93833e+02
4227	6.93098e+02	4.22700e+03	9.17530e-03	6.94500e+02
4231	6.93756e+02	4.23100e+03	9.08694e-03	6.95167e+02
4235	6.94346e+02	4.23500e+03	9.03280e-03	6.95833e+02
4239	6.94793e+02	4.23900e+03	8.99764e-03	6.96500e+02
4243	6.95256e+02	4.24300e+03	9.00969e-03	6.97167e+02
4247	6.95669e+02	4.24700e+03	9.04314e-03	6.97833e+02
4251	6.96045e+02	4.25100e+03	9.03441e-03	6.98500e+02
4255	6.96354e+02	4.25500e+03	9.02360e-03	6.99167e+02
4259	6.96642e+02	4.25900e+03	9.00720e-03	6.99833e+02
4260	6.96705e+02	4.26000e+03	8.99777e-03	7.00000e+02