File: Experiments/TUBS/tga_nonisotherm/tga_dynamic_n2_dyn45_piece_3mg_r2.txt
index	ts	t	weight	tr
[#]	[°C]	[s]	[mg]	[°C]
657	1.32361e+02	6.57000e+02	2.95353e+00	1.32752e+02
658	1.33123e+02	6.58000e+02	2.95352e+00	1.33502e+02
659	1.33890e+02	6.59000e+02	2.95351e+00	1.34252e+02
660	1.34661e+02	6.60000e+02	2.95348e+00	1.35002e+02
661	1.35403e+02	6.61000e+02	2.95346e+00	1.35752e+02
662	1.36170e+02	6.62000e+02	2.95345e+00	1.36502e+02
663	1.36932e+02	6.63000e+02	2.95343e+00	1.37252e+02
664	1.37719e+02	6.64000e+02	2.95342e+00	1.38002e+02
665	1.38474e+02	6.65000e+02	2.95341e+00	1.38752e+02
666	1.39226e+02	6.66000e+02	2.95340e+00	1.39502e+02
667	1.39999e+02	6.67000e+02	2.95339e+00	1.40252e+02
668	1.40761e+02	6.68000e+02	2.95338e+00	1.41002e+02
669	1.41525e+02	6.69000e+02	2.95337e+00	1.41752e+02
670	1.42294e+02	6.70000e+02	2.95336e+00	1.42502e+02
671	1.43066e+02	6.71000e+02	2.95335e+00	1.43252e+02
672	1.43846e+02	6.72000e+02	2.95333e+00	1.44002e+02
673	1.44612e+02	6.73000e+02	2.95332e+00	1.44752e+02
674	1.45377e+02	6.74000e+02	2.95330e+00	1.45502e+02
675	1.46138e+02	6.75000e+02	2.95328e+00	1.46252e+02
676	1.46900e+02	6.76000e+02	2.95326e+00	1.47002e+02
677	1.47661e+02	6.77000e+02	2.95323e+00	1.47752e+02
678	1.48423e+02	6.78000e+02	2.95321e+00	1.48502e+02
679	1.49190e+02	6.79000e+02	2.95318e+00	1.49252e+02
680	1.49949e+02	6.80000e+02	2.95315e+00	1.50002e+02
681	1.50714e+02	6.81000e+02	2.95312e+00	1.50752e+02
682	1.51473e+02	6.82000e+02	2.95309e+00	1.51503e+02
683	1.52237e+02	6.83000e+02	2.95306e+00	1.52253e+02
684	1.53001e+02	6.84000e+02	2.95303e+00	1.53003e+02
685	1.53768e+02	6.85000e+02	2.95301e+00	1.53753e+02
686	1.54526e+02	6.86000e+02	2.95299e+00	1.54503e+02
687	1.55280e+02	6.87000e+02	2.95298e+00	1.55253e+02
688	1.56042e+02	6.88000e+02	2.95297e+00	1.56003e+02
689	1.56808e+02	6.89000e+02	2.95295e+00	1.56753e+02
690	1.57578e+02	6.90000e+02	2.95293e+00	1.57503e+02
691	1.58337e+02	6.91000e+02	2.95290e+00	1.58253e+02
692	1.59090e+02	6.92000e+02	2.95285e+00	1.59003e+02
693	1.59847e+02	6.93000e+02	2.95279e+00	1.59753e+02
694	1.60615e+02	6.94000e+02	2.95273e+00	1.60503e+02
695	1.61377e+02	6.95000e+02	2.95265e+00	1.61253e+02
696	1.62137e+02	6.96000e+02	2.95254e+00	1.62003e+02
697	1.62911e+02	6.97000e+02	2.95243e+00	1.62753e+02
698	1.63657e+02	6.98000e+02	2.95233e+00	1.63503e+02
699	1.64428e+02	6.99000e+02	2.95222e+00	1.64253e+02
700	1.65178e+02	7.00000e+02	2.95210e+00	1.65003e+02
701	1.65938e+02	7.01000e+02	2.95200e+00	1.65753e+02
702	1.66703e+02	7.02000e+02	2.95190e+00	1.66503e+02
703	1.67465e+02	7.03000e+02	2.95181e+00	1.67253e+02
704	1.68224e+02	7.04000e+02	2.95175e+00	1.68003e+02
705	1.68986e+02	7.05000e+02	2.95169e+00	1.68753e+02
706	1.69751e+02	7.06000e+02	2.95164e+00	1.69503e+02
707	1.70509e+02	7.07000e+02	2.95159e+00	1.70253e+02
708	1.71260e+02	7.08000e+02	2.95157e+00	1.71003e+02
709	1.72017e+02	7.09000e+02	2.95154e+00	1.71753e+02
710	1.72791e+02	7.10000e+02	2.95150e+00	1.72503e+02
711	1.73551e+02	7.11000e+02	2.95146e+00	1.73253e+02
712	1.74303e+02	7.12000e+02	2.95142e+00	1.74003e+02
713	1.75067e+02	7.13000e+02	2.95137e+00	1.74753e+02
714	1.75832e+02	7.14000e+02	2.95131e+00	1.75503e+02
715	1.76586e+02	7.15000e+02	2.95125e+00	1.76254e+02
716	1.77353e+02	7.16000e+02	2.95118e+00	1.77004e+02
717	1.78114e+02	7.17000e+02	2.95112e+00	1.77754e+02
718	1.78878e+02	7.18000e+02	2.95106e+00	1.78504e+02
719	1.79638e+02	7.19000e+02	2.95100e+00	1.79254e+02
720	1.80393e+02	7.20000e+02	2.95093e+00	1.80004e+02
721	1.81152e+02	7.21000e+02	2.95087e+00	1.80754e+02
722	1.81921e+02	7.22000e+02	2.95081e+00	1.81504e+02
723	1.82677e+02	7.23000e+02	2.95075e+00	1.82254e+02
724	1.83434e+02	7.24000e+02	2.95068e+00	1.83004e+02
725	1.84208e+02	7.25000e+02	2.95061e+00	1.83754e+02
726	1.84974e+02	7.26000e+02	2.95053e+00	1.84504e+02
727	1.85732e+02	7.27000e+02	2.95044e+00	1.85254e+02
728	1.86491e+02	7.28000e+02	2.95033e+00	1.86004e+02
729	1.87253e+02	7.29000e+02	2.95022e+00	1.86754e+02
730	1.88003e+02	7.30000e+02	2.95010e+00	1.87504e+02
731	1.88774e+02	7.31000e+02	2.94997e+00	1.88254e+02
732	1.89527e+02	7.32000e+02	2.94980e+00	1.89004e+02
733	1.90293e+02	7.33000e+02	2.94963e+00	1.89754e+02
734	1.91051e+02	7.34000e+02	2.94946e+00	1.90504e+02
735	1.91808e+02	7.35000e+02	2.94928e+00	1.91254e+02
736	1.92579e+02	7.36000e+02	2.94907e+00	1.92004e+02
737	1.93333e+02	7.37000e+02	2.94887e+00	1.92754e+02
738	1.94089e+02	7.38000e+02	2.94866e+00	1.93504e+02
739	1.94857e+02	7.39000e+02	2.94846e+00	1.94254e+02
740	1.95616e+02	7.40000e+02	2.94824e+00	1.95004e+02
741	1.96375e+02	7.41000e+02	2.94802e+00	1.95754e+02
742	1.97139e+02	7.42000e+02	2.94781e+00	1.96504e+02
743	1.97897e+02	7.43000e+02	2.94760e+00	1.97254e+02
744	1.98652e+02	7.44000e+02	2.94738e+00	1.98004e+02
745	1.99421e+02	7.45000e+02	2.94716e+00	1.98754e+02
746	2.00182e+02	7.46000e+02	2.94694e+00	1.99504e+02
747	2.00939e+02	7.47000e+02	2.94671e+00	2.00255e+02
748	2.01714e+02	7.48000e+02	2.94646e+00	2.01005e+02
749	2.02472e+02	7.49000e+02	2.94620e+00	2.01755e+02
750	2.03228e+02	7.50000e+02	2.94591e+00	2.02505e+02
751	2.03979e+02	7.51000e+02	2.94561e+00	2.03255e+02
752	2.04747e+02	7.52000e+02	2.94523e+00	2.04005e+02
753	2.05509e+02	7.53000e+02	2.94485e+00	2.04755e+02
754	2.06275e+02	7.54000e+02	2.94444e+00	2.05505e+02
755	2.07029e+02	7.55000e+02	2.94402e+00	2.06255e+02
756	2.07798e+02	7.56000e+02	2.94350e+00	2.07005e+02
757	2.08559e+02	7.57000e+02	2.94301e+00	2.07755e+02
758	2.09312e+02	7.58000e+02	2.94252e+00	2.08505e+02
759	2.10081e+02	7.59000e+02	2.94203e+00	2.09255e+02
760	2.10833e+02	7.60000e+02	2.94150e+00	2.10005e+02
761	2.11596e+02	7.61000e+02	2.94100e+00	2.10755e+02
762	2.12340e+02	7.62000e+02	2.94050e+00	2.11505e+02
763	2.13120e+02	7.63000e+02	2.94001e+00	2.12255e+02
764	2.13877e+02	7.64000e+02	2.93954e+00	2.13005e+02
765	2.14640e+02	7.65000e+02	2.93908e+00	2.13755e+02
766	2.15409e+02	7.66000e+02	2.93863e+00	2.14505e+02
767	2.16172e+02	7.67000e+02	2.93819e+00	2.15255e+02
768	2.16929e+02	7.68000e+02	2.93780e+00	2.16005e+02
769	2.17697e+02	7.69000e+02	2.93738e+00	2.16755e+02
770	2.18457e+02	7.70000e+02	2.93696e+00	2.17505e+02
771	2.19211e+02	7.71000e+02	2.93654e+00	2.18255e+02
772	2.19971e+02	7.72000e+02	2.93612e+00	2.19005e+02
773	2.20736e+02	7.73000e+02	2.93568e+00	2.19755e+02
774	2.21495e+02	7.74000e+02	2.93523e+00	2.20505e+02
775	2.22234e+02	7.75000e+02	2.93477e+00	2.21255e+02
776	2.23000e+02	7.76000e+02	2.93427e+00	2.22005e+02
777	2.23763e+02	7.77000e+02	2.93378e+00	2.22755e+02
778	2.24509e+02	7.78000e+02	2.93328e+00	2.23505e+02
779	2.25268e+02	7.79000e+02	2.93278e+00	2.24255e+02
780	2.26023e+02	7.80000e+02	2.93226e+00	2.25006e+02
781	2.26762e+02	7.81000e+02	2.93174e+00	2.25756e+02
782	2.27516e+02	7.82000e+02	2.93123e+00	2.26506e+02
783	2.28290e+02	7.83000e+02	2.93071e+00	2.27256e+02
784	2.29051e+02	7.84000e+02	2.93018e+00	2.28006e+02
785	2.29848e+02	7.85000e+02	2.92966e+00	2.28756e+02
786	2.30604e+02	7.86000e+02	2.92914e+00	2.29506e+02
787	2.31372e+02	7.87000e+02	2.92863e+00	2.30256e+02
788	2.32154e+02	7.88000e+02	2.92811e+00	2.31006e+02
789	2.32931e+02	7.89000e+02	2.92758e+00	2.31756e+02
790	2.33708e+02	7.90000e+02	2.92706e+00	2.32506e+02
791	2.34459e+02	7.91000e+02	2.92653e+00	2.33256e+02
792	2.35225e+02	7.92000e+02	2.92599e+00	2.34006e+02
793	2.35991e+02	7.93000e+02	2.92545e+00	2.34756e+02
794	2.36736e+02	7.94000e+02	2.92490e+00	2.35506e+02
795	2.37483e+02	7.95000e+02	2.92436e+00	2.36256e+02
796	2.38247e+02	7.96000e+02	2.92381e+00	2.37006e+02
797	2.39023e+02	7.97000e+02	2.92326e+00	2.37756e+02
798	2.39794e+02	7.98000e+02	2.92271e+00	2.38506e+02
799	2.40560e+02	7.99000e+02	2.92215e+00	2.39256e+02
800	2.41321e+02	8.00000e+02	2.92160e+00	2.40006e+02
801	2.42078e+02	8.01000e+02	2.92104e+00	2.40756e+02
802	2.42842e+02	8.02000e+02	2.92048e+00	2.41506e+02
803	2.43610e+02	8.03000e+02	2.91992e+00	2.42256e+02
804	2.44368e+02	8.04000e+02	2.91936e+00	2.43006e+02
805	2.45121e+02	8.05000e+02	2.91880e+00	2.43756e+02
806	2.45889e+02	8.06000e+02	2.91824e+00	2.44506e+02
807	2.46655e+02	8.07000e+02	2.91768e+00	2.45256e+02
808	2.47429e+02	8.08000e+02	2.91712e+00	2.46006e+02
809	2.48188e+02	8.09000e+02	2.91656e+00	2.46756e+02
810	2.48947e+02	8.10000e+02	2.91600e+00	2.47506e+02
811	2.49700e+02	8.11000e+02	2.91543e+00	2.48256e+02
812	2.50466e+02	8.12000e+02	2.91484e+00	2.49007e+02
813	2.51228e+02	8.13000e+02	2.91424e+00	2.49757e+02
814	2.51974e+02	8.14000e+02	2.91363e+00	2.50507e+02
815	2.52745e+02	8.15000e+02	2.91301e+00	2.51257e+02
816	2.53514e+02	8.16000e+02	2.91233e+00	2.52007e+02
817	2.54270e+02	8.17000e+02	2.91168e+00	2.52757e+02
818	2.55040e+02	8.18000e+02	2.91102e+00	2.53507e+02
819	2.55836e+02	8.19000e+02	2.91036e+00	2.54257e+02
820	2.56595e+02	8.20000e+02	2.90968e+00	2.55007e+02
821	2.57370e+02	8.21000e+02	2.90902e+00	2.55757e+02
822	2.58140e+02	8.22000e+02	2.90836e+00	2.56507e+02
823	2.58889e+02	8.23000e+02	2.90771e+00	2.57257e+02
824	2.59662e+02	8.24000e+02	2.90707e+00	2.58007e+02
825	2.60430e+02	8.25000e+02	2.90643e+00	2.58757e+02
826	2.61204e+02	8.26000e+02	2.90580e+00	2.59507e+02
827	2.61968e+02	8.27000e+02	2.90515e+00	2.60257e+02
828	2.62726e+02	8.28000e+02	2.90451e+00	2.61007e+02
829	2.63476e+02	8.29000e+02	2.90385e+00	2.61757e+02
830	2.64240e+02	8.30000e+02	2.90318e+00	2.62507e+02
831	2.64981e+02	8.31000e+02	2.90250e+00	2.63257e+02
832	2.65743e+02	8.32000e+02	2.90178e+00	2.64007e+02
833	2.66509e+02	8.33000e+02	2.90108e+00	2.64757e+02
834	2.67268e+02	8.34000e+02	2.90037e+00	2.65507e+02
835	2.68027e+02	8.35000e+02	2.89966e+00	2.66257e+02
836	2.68803e+02	8.36000e+02	2.89894e+00	2.67007e+02
837	2.69540e+02	8.37000e+02	2.89822e+00	2.67757e+02
838	2.70305e+02	8.38000e+02	2.89751e+00	2.68507e+02
839	2.71077e+02	8.39000e+02	2.89680e+00	2.69257e+02
840	2.71837e+02	8.40000e+02	2.89609e+00	2.70007e+02
841	2.72614e+02	8.41000e+02	2.89538e+00	2.70757e+02
842	2.73371e+02	8.42000e+02	2.89467e+00	2.71507e+02
843	2.74137e+02	8.43000e+02	2.89396e+00	2.72257e+02
844	2.74900e+02	8.44000e+02	2.89322e+00	2.73007e+02
845	2.75655e+02	8.45000e+02	2.89248e+00	2.73758e+02
846	2.76419e+02	8.46000e+02	2.89172e+00	2.74508e+02
847	2.77199e+02	8.47000e+02	2.89096e+00	2.75258e+02
848	2.77948e+02	8.48000e+02	2.89015e+00	2.76008e+02
849	2.78727e+02	8.49000e+02	2.88936e+00	2.76758e+02
850	2.79480e+02	8.50000e+02	2.88857e+00	2.77508e+02
851	2.80246e+02	8.51000e+02	2.88779e+00	2.78258e+02
852	2.81010e+02	8.52000e+02	2.88700e+00	2.79008e+02
853	2.81774e+02	8.53000e+02	2.88622e+00	2.79758e+02
854	2.82524e+02	8.54000e+02	2.88544e+00	2.80508e+02
855	2.83283e+02	8.55000e+02	2.88465e+00	2.81258e+02
856	2.84049e+02	8.56000e+02	2.88386e+00	2.82008e+02
857	2.84819e+02	8.57000e+02	2.88304e+00	2.82758e+02
858	2.85574e+02	8.58000e+02	2.88219e+00	2.83508e+02
859	2.86331e+02	8.59000e+02	2.88132e+00	2.84258e+02
860	2.87085e+02	8.60000e+02	2.88038e+00	2.85008e+02
861	2.87829e+02	8.61000e+02	2.87945e+00	2.85758e+02
862	2.88612e+02	8.62000e+02	2.87853e+00	2.86508e+02
863	2.89375e+02	8.63000e+02	2.87760e+00	2.87258e+02
864	2.90122e+02	8.64000e+02	2.87664e+00	2.88008e+02
865	2.90883e+02	8.65000e+02	2.87570e+00	2.88758e+02
866	2.91637e+02	8.66000e+02	2.87477e+00	2.89508e+02
867	2.92411e+02	8.67000e+02	2.87384e+00	2.90258e+02
868	2.93164e+02	8.68000e+02	2.87291e+00	2.91008e+02
869	2.93939e+02	8.69000e+02	2.87196e+00	2.91758e+02
870	2.94700e+02	8.70000e+02	2.87098e+00	2.92508e+02
871	2.95458e+02	8.71000e+02	2.86999e+00	2.93258e+02
872	2.96231e+02	8.72000e+02	2.86893e+00	2.94008e+02
873	2.97002e+02	8.73000e+02	2.86787e+00	2.94758e+02
874	2.97743e+02	8.74000e+02	2.86680e+00	2.95508e+02
875	2.98510e+02	8.75000e+02	2.86571e+00	2.96258e+02
876	2.99293e+02	8.76000e+02	2.86456e+00	2.97008e+02
877	3.00041e+02	8.77000e+02	2.86344e+00	2.97759e+02
878	3.00808e+02	8.78000e+02	2.86232e+00	2.98509e+02
879	3.01577e+02	8.79000e+02	2.86120e+00	2.99259e+02
880	3.02330e+02	8.80000e+02	2.86006e+00	3.00009e+02
881	3.03108e+02	8.81000e+02	2.85890e+00	3.00759e+02
882	3.03868e+02	8.82000e+02	2.85772e+00	3.01509e+02
883	3.04656e+02	8.83000e+02	2.85652e+00	3.02259e+02
884	3.05429e+02	8.84000e+02	2.85523e+00	3.03009e+02
885	3.06204e+02	8.85000e+02	2.85392e+00	3.03759e+02
886	3.06956e+02	8.86000e+02	2.85257e+00	3.04509e+02
887	3.07744e+02	8.87000e+02	2.85118e+00	3.05259e+02
888	3.08523e+02	8.88000e+02	2.84962e+00	3.06009e+02
889	3.09303e+02	8.89000e+02	2.84808e+00	3.06759e+02
890	3.10074e+02	8.90000e+02	2.84652e+00	3.07509e+02
891	3.10827e+02	8.91000e+02	2.84493e+00	3.08259e+02
892	3.11585e+02	8.92000e+02	2.84320e+00	3.09009e+02
893	3.12352e+02	8.93000e+02	2.84151e+00	3.09759e+02
894	3.13134e+02	8.94000e+02	2.83982e+00	3.10509e+02
895	3.13915e+02	8.95000e+02	2.83812e+00	3.11259e+02
896	3.14763e+02	8.96000e+02	2.83637e+00	3.12009e+02
897	3.15554e+02	8.97000e+02	2.83464e+00	3.12759e+02
898	3.16322e+02	8.98000e+02	2.83290e+00	3.13509e+02
899	3.17102e+02	8.99000e+02	2.83115e+00	3.14259e+02
900	3.17883e+02	9.00000e+02	2.82937e+00	3.15009e+02
901	3.18639e+02	9.01000e+02	2.82759e+00	3.15759e+02
902	3.19406e+02	9.02000e+02	2.82579e+00	3.16509e+02
903	3.20164e+02	9.03000e+02	2.82398e+00	3.17259e+02
904	3.20908e+02	9.04000e+02	2.82211e+00	3.18009e+02
905	3.21680e+02	9.05000e+02	2.82024e+00	3.18759e+02
906	3.22444e+02	9.06000e+02	2.81835e+00	3.19509e+02
907	3.23232e+02	9.07000e+02	2.81644e+00	3.20259e+02
908	3.24019e+02	9.08000e+02	2.81445e+00	3.21009e+02
909	3.24783e+02	9.09000e+02	2.81245e+00	3.21759e+02
910	3.25569e+02	9.10000e+02	2.81043e+00	3.22510e+02
911	3.26338e+02	9.11000e+02	2.80839e+00	3.23260e+02
912	3.27123e+02	9.12000e+02	2.80623e+00	3.24010e+02
913	3.27886e+02	9.13000e+02	2.80409e+00	3.24760e+02
914	3.28642e+02	9.14000e+02	2.80193e+00	3.25510e+02
915	3.29387e+02	9.15000e+02	2.79975e+00	3.26260e+02
916	3.30155e+02	9.16000e+02	2.79747e+00	3.27010e+02
917	3.30918e+02	9.17000e+02	2.79521e+00	3.27760e+02
918	3.31677e+02	9.18000e+02	2.79293e+00	3.28510e+02
919	3.32443e+02	9.19000e+02	2.79063e+00	3.29260e+02
920	3.33201e+02	9.20000e+02	2.78824e+00	3.30010e+02
921	3.33963e+02	9.21000e+02	2.78585e+00	3.30760e+02
922	3.34710e+02	9.22000e+02	2.78344e+00	3.31510e+02
923	3.35471e+02	9.23000e+02	2.78101e+00	3.32260e+02
924	3.36221e+02	9.24000e+02	2.77845e+00	3.33010e+02
925	3.36986e+02	9.25000e+02	2.77592e+00	3.33760e+02
926	3.37750e+02	9.26000e+02	2.77336e+00	3.34510e+02
927	3.38527e+02	9.27000e+02	2.77077e+00	3.35260e+02
928	3.39309e+02	9.28000e+02	2.76807e+00	3.36010e+02
929	3.40078e+02	9.29000e+02	2.76539e+00	3.36760e+02
930	3.40844e+02	9.30000e+02	2.76267e+00	3.37510e+02
931	3.41608e+02	9.31000e+02	2.75991e+00	3.38260e+02
932	3.42361e+02	9.32000e+02	2.75699e+00	3.39010e+02
933	3.43121e+02	9.33000e+02	2.75405e+00	3.39760e+02
934	3.43870e+02	9.34000e+02	2.75103e+00	3.40510e+02
935	3.44603e+02	9.35000e+02	2.74794e+00	3.41260e+02
936	3.45377e+02	9.36000e+02	2.74454e+00	3.42010e+02
937	3.46121e+02	9.37000e+02	2.74113e+00	3.42760e+02
938	3.46886e+02	9.38000e+02	2.73763e+00	3.43510e+02
939	3.47645e+02	9.39000e+02	2.73403e+00	3.44260e+02
940	3.48382e+02	9.40000e+02	2.72997e+00	3.45010e+02
941	3.49126e+02	9.41000e+02	2.72594e+00	3.45760e+02
942	3.49873e+02	9.42000e+02	2.72178e+00	3.46510e+02
943	3.50637e+02	9.43000e+02	2.71751e+00	3.47261e+02
944	3.51390e+02	9.44000e+02	2.71266e+00	3.48011e+02
945	3.52131e+02	9.45000e+02	2.70784e+00	3.48761e+02
946	3.52882e+02	9.46000e+02	2.70285e+00	3.49511e+02
947	3.53643e+02	9.47000e+02	2.69772e+00	3.50261e+02
948	3.54391e+02	9.48000e+02	2.69183e+00	3.51011e+02
949	3.55144e+02	9.49000e+02	2.68597e+00	3.51761e+02
950	3.55903e+02	9.50000e+02	2.67987e+00	3.52511e+02
951	3.56655e+02	9.51000e+02	2.67357e+00	3.53261e+02
952	3.57402e+02	9.52000e+02	2.66623e+00	3.54011e+02
953	3.58127e+02	9.53000e+02	2.65896e+00	3.54761e+02
954	3.58872e+02	9.54000e+02	2.65141e+00	3.55511e+02
955	3.59636e+02	9.55000e+02	2.64361e+00	3.56261e+02
956	3.60393e+02	9.56000e+02	2.63452e+00	3.57011e+02
957	3.61168e+02	9.57000e+02	2.62553e+00	3.57761e+02
958	3.61903e+02	9.58000e+02	2.61617e+00	3.58511e+02
959	3.62640e+02	9.59000e+02	2.60650e+00	3.59261e+02
960	3.63389e+02	9.60000e+02	2.59522e+00	3.60011e+02
961	3.64144e+02	9.61000e+02	2.58404e+00	3.60761e+02
962	3.64879e+02	9.62000e+02	2.57239e+00	3.61511e+02
963	3.65630e+02	9.63000e+02	2.56035e+00	3.62261e+02
964	3.66370e+02	9.64000e+02	2.54629e+00	3.63011e+02
965	3.67126e+02	9.65000e+02	2.53274e+00	3.63761e+02
966	3.67916e+02	9.66000e+02	2.51879e+00	3.64511e+02
967	3.68723e+02	9.67000e+02	2.50336e+00	3.65261e+02
968	3.69477e+02	9.68000e+02	2.48648e+00	3.66011e+02
969	3.70204e+02	9.69000e+02	2.47009e+00	3.66761e+02
970	3.70942e+02	9.70000e+02	2.45325e+00	3.67511e+02
971	3.71709e+02	9.71000e+02	2.43491e+00	3.68261e+02
972	3.72460e+02	9.72000e+02	2.41509e+00	3.69011e+02
973	3.73222e+02	9.73000e+02	2.39575e+00	3.69761e+02
974	3.73960e+02	9.74000e+02	2.37594e+00	3.70511e+02
975	3.74714e+02	9.75000e+02	2.35457e+00	3.71262e+02
976	3.75477e+02	9.76000e+02	2.33168e+00	3.72012e+02
977	3.76206e+02	9.77000e+02	2.30933e+00	3.72762e+02
978	3.76946e+02	9.78000e+02	2.28653e+00	3.73512e+02
979	3.77678e+02	9.79000e+02	2.26225e+00	3.74262e+02
980	3.78441e+02	9.80000e+02	2.23654e+00	3.75012e+02
981	3.79186e+02	9.81000e+02	2.21110e+00	3.75762e+02
982	3.79933e+02	9.82000e+02	2.18520e+00	3.76512e+02
983	3.80622e+02	9.83000e+02	2.15887e+00	3.77262e+02
984	3.81339e+02	9.84000e+02	2.13059e+00	3.78012e+02
985	3.82059e+02	9.85000e+02	2.10261e+00	3.78762e+02
986	3.82779e+02	9.86000e+02	2.07425e+00	3.79512e+02
987	3.83503e+02	9.87000e+02	2.04554e+00	3.80262e+02
988	3.84224e+02	9.88000e+02	2.01504e+00	3.81012e+02
989	3.84946e+02	9.89000e+02	1.98487e+00	3.81762e+02
990	3.85682e+02	9.90000e+02	1.95439e+00	3.82512e+02
991	3.86399e+02	9.91000e+02	1.92361e+00	3.83262e+02
992	3.87134e+02	9.92000e+02	1.89130e+00	3.84012e+02
993	3.87883e+02	9.93000e+02	1.85922e+00	3.84762e+02
994	3.88617e+02	9.94000e+02	1.82684e+00	3.85512e+02
995	3.89380e+02	9.95000e+02	1.79419e+00	3.86262e+02
996	3.90144e+02	9.96000e+02	1.76014e+00	3.87012e+02
997	3.90873e+02	9.97000e+02	1.72636e+00	3.87762e+02
998	3.91607e+02	9.98000e+02	1.69236e+00	3.88512e+02
999	3.92343e+02	9.99000e+02	1.65816e+00	3.89262e+02
1000	3.93083e+02	1.00000e+03	1.62286e+00	3.90012e+02
1001	3.93827e+02	1.00100e+03	1.58784e+00	3.90762e+02
1002	3.94562e+02	1.00200e+03	1.55270e+00	3.91512e+02
1003	3.95319e+02	1.00300e+03	1.51742e+00	3.92262e+02
1004	3.96057e+02	1.00400e+03	1.48154e+00	3.93012e+02
1005	3.96822e+02	1.00500e+03	1.44586e+00	3.93762e+02
1006	3.97544e+02	1.00600e+03	1.41019e+00	3.94512e+02
1007	3.98277e+02	1.00700e+03	1.37449e+00	3.95262e+02
1008	3.99027e+02	1.00800e+03	1.33866e+00	3.96013e+02
1009	3.99780e+02	1.00900e+03	1.30298e+00	3.96763e+02
1010	4.00524e+02	1.01000e+03	1.26740e+00	3.97513e+02
1011	4.01280e+02	1.01100e+03	1.23188e+00	3.98263e+02
1012	4.02032e+02	1.01200e+03	1.19667e+00	3.99013e+02
1013	4.02809e+02	1.01300e+03	1.16150e+00	3.99763e+02
1014	4.03558e+02	1.01400e+03	1.12644e+00	4.00513e+02
1015	4.04297e+02	1.01500e+03	1.09147e+00	4.01263e+02
1016	4.05056e+02	1.01600e+03	1.05697e+00	4.02013e+02
1017	4.05768e+02	1.01700e+03	1.02237e+00	4.02763e+02
1018	4.06551e+02	1.01800e+03	9.87831e-01	4.03513e+02
1019	4.07306e+02	1.01900e+03	9.53345e-01	4.04263e+02
1020	4.08018e+02	1.02000e+03	9.19186e-01	4.05013e+02
1021	4.08745e+02	1.02100e+03	8.84968e-01	4.05763e+02
1022	4.09499e+02	1.02200e+03	8.50834e-01	4.06513e+02
1023	4.10332e+02	1.02300e+03	8.16784e-01	4.07263e+02
1024	4.11169e+02	1.02400e+03	7.83156e-01	4.08013e+02
1025	4.11883e+02	1.02500e+03	7.49640e-01	4.08763e+02
1026	4.12646e+02	1.02600e+03	7.16413e-01	4.09513e+02
1027	4.13381e+02	1.02700e+03	6.83427e-01	4.10263e+02
1028	4.14119e+02	1.02800e+03	6.51603e-01	4.11013e+02
1029	4.14827e+02	1.02900e+03	6.19916e-01	4.11763e+02
1030	4.15580e+02	1.03000e+03	5.88772e-01	4.12513e+02
1031	4.16326e+02	1.03100e+03	5.58079e-01	4.13263e+02
1032	4.17119e+02	1.03200e+03	5.28623e-01	4.14013e+02
1033	4.17874e+02	1.03300e+03	4.99713e-01	4.14763e+02
1034	4.18699e+02	1.03400e+03	4.71675e-01	4.15513e+02
1035	4.19487e+02	1.03500e+03	4.44290e-01	4.16263e+02
1036	4.20270e+02	1.03600e+03	4.19774e-01	4.17013e+02
1037	4.21051e+02	1.03700e+03	3.95206e-01	4.17763e+02
1038	4.21832e+02	1.03800e+03	3.71486e-01	4.18513e+02
1039	4.22627e+02	1.03900e+03	3.48489e-01	4.19263e+02
1040	4.23408e+02	1.04000e+03	3.28295e-01	4.20014e+02
1041	4.24218e+02	1.04100e+03	3.08138e-01	4.20764e+02
1042	4.25009e+02	1.04200e+03	2.88886e-01	4.21514e+02
1043	4.25746e+02	1.04300e+03	2.70383e-01	4.22264e+02
1044	4.26489e+02	1.04400e+03	2.54805e-01	4.23014e+02
1045	4.27244e+02	1.04500e+03	2.39178e-01	4.23764e+02
1046	4.28068e+02	1.04600e+03	2.24390e-01	4.24514e+02
1047	4.28837e+02	1.04700e+03	2.10301e-01	4.25264e+02
1048	4.29584e+02	1.04800e+03	1.98898e-01	4.26014e+02
1049	4.30331e+02	1.04900e+03	1.87378e-01	4.26764e+02
1050	4.31095e+02	1.05000e+03	1.76893e-01	4.27514e+02
1051	4.31883e+02	1.05100e+03	1.67655e-01	4.28264e+02
1052	4.32665e+02	1.05200e+03	1.59639e-01	4.29014e+02
1053	4.33439e+02	1.05300e+03	1.51469e-01	4.29764e+02
1054	4.34212e+02	1.05400e+03	1.43792e-01	4.30514e+02
1055	4.34993e+02	1.05500e+03	1.36520e-01	4.31264e+02
1056	4.35774e+02	1.05600e+03	1.31166e-01	4.32014e+02
1057	4.36548e+02	1.05700e+03	1.25432e-01	4.32764e+02
1058	4.37319e+02	1.05800e+03	1.19987e-01	4.33514e+02
1059	4.38120e+02	1.05900e+03	1.14827e-01	4.34264e+02
1060	4.38870e+02	1.06000e+03	1.11155e-01	4.35014e+02
1061	4.39644e+02	1.06100e+03	1.07156e-01	4.35764e+02
1062	4.40413e+02	1.06200e+03	1.03352e-01	4.36514e+02
1063	4.41159e+02	1.06300e+03	9.97544e-02	4.37264e+02
1064	4.41909e+02	1.06400e+03	9.72129e-02	4.38014e+02
1065	4.42657e+02	1.06500e+03	9.44582e-02	4.38764e+02
1066	4.43403e+02	1.06600e+03	9.18548e-02	4.39514e+02
1067	4.44142e+02	1.06700e+03	8.94050e-02	4.40264e+02
1068	4.44941e+02	1.06800e+03	8.77397e-02	4.41014e+02
1069	4.45664e+02	1.06900e+03	8.58996e-02	4.41764e+02
1070	4.46401e+02	1.07000e+03	8.41512e-02	4.42514e+02
1071	4.47178e+02	1.07100e+03	8.25004e-02	4.43264e+02
1072	4.47956e+02	1.07200e+03	8.13676e-02	4.44014e+02
1073	4.48714e+02	1.07300e+03	8.00941e-02	4.44765e+02
1074	4.49450e+02	1.07400e+03	7.88639e-02	4.45515e+02
1075	4.50213e+02	1.07500e+03	7.76886e-02	4.46265e+02
1076	4.50934e+02	1.07600e+03	7.67927e-02	4.47015e+02
1077	4.51649e+02	1.07700e+03	7.58240e-02	4.47765e+02
1078	4.52367e+02	1.07800e+03	7.48867e-02	4.48515e+02
1079	4.53090e+02	1.07900e+03	7.39873e-02	4.49265e+02
1080	4.53906e+02	1.08000e+03	7.32778e-02	4.50015e+02
1081	4.54643e+02	1.08100e+03	7.25497e-02	4.50765e+02
1082	4.55437e+02	1.08200e+03	7.18673e-02	4.51515e+02
1083	4.56207e+02	1.08300e+03	7.12249e-02	4.52265e+02
1084	4.56951e+02	1.08400e+03	7.07768e-02	4.53015e+02
1085	4.57746e+02	1.08500e+03	7.02910e-02	4.53765e+02
1086	4.58641e+02	1.08600e+03	6.98277e-02	4.54515e+02
1087	4.59511e+02	1.08700e+03	6.93865e-02	4.55265e+02
1088	4.60291e+02	1.08800e+03	6.90769e-02	4.56015e+02
1089	4.61049e+02	1.08900e+03	6.87197e-02	4.56765e+02
1090	4.61769e+02	1.09000e+03	6.83660e-02	4.57515e+02
1091	4.62525e+02	1.09100e+03	6.80224e-02	4.58265e+02
1092	4.63326e+02	1.09200e+03	6.77273e-02	4.59015e+02
1093	4.64120e+02	1.09300e+03	6.74287e-02	4.59765e+02
1094	4.64850e+02	1.09400e+03	6.71486e-02	4.60515e+02
1095	4.65570e+02	1.09500e+03	6.68855e-02	4.61265e+02
1096	4.66307e+02	1.09600e+03	6.66975e-02	4.62015e+02
1097	4.67075e+02	1.09700e+03	6.65130e-02	4.62765e+02
1098	4.67775e+02	1.09800e+03	6.63491e-02	4.63515e+02
1099	4.68508e+02	1.09900e+03	6.61999e-02	4.64265e+02
1100	4.69265e+02	1.10000e+03	6.61391e-02	4.65015e+02
1101	4.70033e+02	1.10100e+03	6.60477e-02	4.65765e+02
1102	4.70781e+02	1.10200e+03	6.59611e-02	4.66515e+02
1103	4.71545e+02	1.10300e+03	6.58833e-02	4.67265e+02
1104	4.72279e+02	1.10400e+03	6.58476e-02	4.68015e+02
1105	4.73049e+02	1.10500e+03	6.58082e-02	4.68766e+02
1106	4.73798e+02	1.10600e+03	6.57754e-02	4.69516e+02
1107	4.74547e+02	1.10700e+03	6.57471e-02	4.70266e+02
1108	4.75293e+02	1.10800e+03	6.57413e-02	4.71016e+02
1109	4.76033e+02	1.10900e+03	6.57116e-02	4.71766e+02
1110	4.76763e+02	1.11000e+03	6.56674e-02	4.72516e+02
1111	4.77501e+02	1.11100e+03	6.56147e-02	4.73266e+02
1112	4.78222e+02	1.11200e+03	6.55306e-02	4.74016e+02
1113	4.78975e+02	1.11300e+03	6.54512e-02	4.74766e+02
1114	4.79768e+02	1.11400e+03	6.53680e-02	4.75516e+02
1115	4.80484e+02	1.11500e+03	6.52802e-02	4.76266e+02
1116	4.81207e+02	1.11600e+03	6.51631e-02	4.77016e+02
1117	4.81901e+02	1.11700e+03	6.50596e-02	4.77766e+02
1118	4.82629e+02	1.11800e+03	6.49624e-02	4.78516e+02
1119	4.83353e+02	1.11900e+03	6.48708e-02	4.79266e+02
1120	4.84116e+02	1.12000e+03	6.48011e-02	4.80016e+02
1121	4.84885e+02	1.12100e+03	6.47465e-02	4.80766e+02
1122	4.85611e+02	1.12200e+03	6.47104e-02	4.81516e+02
1123	4.86407e+02	1.12300e+03	6.46872e-02	4.82266e+02
1124	4.87182e+02	1.12400e+03	6.47302e-02	4.83016e+02
1125	4.87948e+02	1.12500e+03	6.47574e-02	4.83766e+02
1126	4.88688e+02	1.12600e+03	6.47871e-02	4.84516e+02
1127	4.89453e+02	1.12700e+03	6.48195e-02	4.85266e+02
1128	4.90182e+02	1.12800e+03	6.48748e-02	4.86016e+02
1129	4.90934e+02	1.12900e+03	6.49032e-02	4.86766e+02
1130	4.91678e+02	1.13000e+03	6.49169e-02	4.87516e+02
1131	4.92447e+02	1.13100e+03	6.49225e-02	4.88266e+02
1132	4.93226e+02	1.13200e+03	6.48880e-02	4.89016e+02
1133	4.93941e+02	1.13300e+03	6.48617e-02	4.89766e+02
1134	4.94671e+02	1.13400e+03	6.48338e-02	4.90516e+02
1135	4.95400e+02	1.13500e+03	6.48045e-02	4.91266e+02
1136	4.96104e+02	1.13600e+03	6.47592e-02	4.92016e+02
1137	4.96838e+02	1.13700e+03	6.47326e-02	4.92766e+02
1138	4.97571e+02	1.13800e+03	6.47154e-02	4.93517e+02
1139	4.98309e+02	1.13900e+03	6.47028e-02	4.94267e+02
1140	4.99039e+02	1.14000e+03	6.47121e-02	4.95017e+02
1141	4.99767e+02	1.14100e+03	6.47111e-02	4.95767e+02
1142	5.00521e+02	1.14200e+03	6.47075e-02	4.96517e+02
1143	5.01277e+02	1.14300e+03	6.47028e-02	4.97267e+02
1144	5.02021e+02	1.14400e+03	6.46981e-02	4.98017e+02
1145	5.02706e+02	1.14500e+03	6.46897e-02	4.98767e+02
1146	5.03445e+02	1.14600e+03	6.46806e-02	4.99517e+02
1147	5.04168e+02	1.14700e+03	6.46721e-02	5.00267e+02
1148	5.04860e+02	1.14800e+03	6.46577e-02	5.01017e+02
1149	5.05607e+02	1.14900e+03	6.46465e-02	5.01767e+02
1150	5.06353e+02	1.15000e+03	6.46336e-02	5.02517e+02
1151	5.07092e+02	1.15100e+03	6.46191e-02	5.03267e+02
1152	5.07758e+02	1.15200e+03	6.46054e-02	5.04017e+02
1153	5.08414e+02	1.15300e+03	6.45906e-02	5.04767e+02
1154	5.09159e+02	1.15400e+03	6.45779e-02	5.05517e+02
1155	5.09866e+02	1.15500e+03	6.45679e-02	5.06267e+02
1156	5.10574e+02	1.15600e+03	6.45645e-02	5.07017e+02
1157	5.11277e+02	1.15700e+03	6.45678e-02	5.07767e+02
1158	5.12009e+02	1.15800e+03	6.45763e-02	5.08517e+02
1159	5.12766e+02	1.15900e+03	6.45873e-02	5.09267e+02
1160	5.13520e+02	1.16000e+03	6.46096e-02	5.10017e+02
1161	5.14266e+02	1.16100e+03	6.46137e-02	5.10767e+02
1162	5.15004e+02	1.16200e+03	6.46044e-02	5.11517e+02
1163	5.15740e+02	1.16300e+03	6.45866e-02	5.12267e+02
1164	5.16492e+02	1.16400e+03	6.45336e-02	5.13017e+02
1165	5.17207e+02	1.16500e+03	6.44860e-02	5.13767e+02
1166	5.17919e+02	1.16600e+03	6.44392e-02	5.14517e+02
1167	5.18615e+02	1.16700e+03	6.43938e-02	5.15267e+02
1168	5.19318e+02	1.16800e+03	6.43363e-02	5.16017e+02
1169	5.20069e+02	1.16900e+03	6.43009e-02	5.16767e+02
1170	5.20794e+02	1.17000e+03	6.42764e-02	5.17518e+02
1171	5.21503e+02	1.17100e+03	6.42572e-02	5.18268e+02
1172	5.22230e+02	1.17200e+03	6.42721e-02	5.19018e+02
1173	5.22948e+02	1.17300e+03	6.42715e-02	5.19768e+02
1174	5.23678e+02	1.17400e+03	6.42675e-02	5.20518e+02
1175	5.24406e+02	1.17500e+03	6.42620e-02	5.21268e+02
1176	5.25107e+02	1.17600e+03	6.42527e-02	5.22018e+02
1177	5.25829e+02	1.17700e+03	6.42386e-02	5.22768e+02
1178	5.26564e+02	1.17800e+03	6.42219e-02	5.23518e+02
1179	5.27301e+02	1.17900e+03	6.42040e-02	5.24268e+02
1180	5.28034e+02	1.18000e+03	6.41754e-02	5.25018e+02
1181	5.28764e+02	1.18100e+03	6.41574e-02	5.25768e+02
1182	5.29462e+02	1.18200e+03	6.41454e-02	5.26518e+02
1183	5.30160e+02	1.18300e+03	6.41369e-02	5.27268e+02
1184	5.30871e+02	1.18400e+03	6.41447e-02	5.28018e+02
1185	5.31568e+02	1.18500e+03	6.41509e-02	5.28768e+02
1186	5.32291e+02	1.18600e+03	6.41572e-02	5.29518e+02
1187	5.33017e+02	1.18700e+03	6.41629e-02	5.30268e+02
1188	5.33759e+02	1.18800e+03	6.41757e-02	5.31018e+02
1189	5.34506e+02	1.18900e+03	6.41798e-02	5.31768e+02
1190	5.35245e+02	1.19000e+03	6.41822e-02	5.32518e+02
1191	5.35999e+02	1.19100e+03	6.41849e-02	5.33268e+02
1192	5.36767e+02	1.19200e+03	6.41808e-02	5.34018e+02
1193	5.37538e+02	1.19300e+03	6.41851e-02	5.34768e+02
1194	5.38266e+02	1.19400e+03	6.41928e-02	5.35518e+02
1195	5.39000e+02	1.19500e+03	6.42014e-02	5.36268e+02
1196	5.39767e+02	1.19600e+03	6.42149e-02	5.37018e+02
1197	5.40526e+02	1.19700e+03	6.42210e-02	5.37768e+02
1198	5.41212e+02	1.19800e+03	6.42230e-02	5.38518e+02
1199	5.41883e+02	1.19900e+03	6.42226e-02	5.39268e+02
1200	5.42508e+02	1.20000e+03	6.42108e-02	5.40018e+02
1201	5.43297e+02	1.20100e+03	6.42010e-02	5.40768e+02
1202	5.44026e+02	1.20200e+03	6.41894e-02	5.41518e+02
1203	5.44724e+02	1.20300e+03	6.41767e-02	5.42268e+02
1204	5.45410e+02	1.20400e+03	6.41574e-02	5.43019e+02
1205	5.46083e+02	1.20500e+03	6.41424e-02	5.43769e+02
1206	5.46771e+02	1.20600e+03	6.41286e-02	5.44519e+02
1207	5.47502e+02	1.20700e+03	6.41148e-02	5.45269e+02
1208	5.48215e+02	1.20800e+03	6.41019e-02	5.46019e+02
1209	5.48911e+02	1.20900e+03	6.40884e-02	5.46769e+02
1210	5.49618e+02	1.21000e+03	6.40746e-02	5.47519e+02
1211	5.50319e+02	1.21100e+03	6.40603e-02	5.48269e+02
1212	5.51048e+02	1.21200e+03	6.40430e-02	5.49019e+02
1213	5.51786e+02	1.21300e+03	6.40266e-02	5.49769e+02
1214	5.52486e+02	1.21400e+03	6.40116e-02	5.50519e+02
1215	5.53200e+02	1.21500e+03	6.39973e-02	5.51269e+02
1216	5.53929e+02	1.21600e+03	6.39842e-02	5.52019e+02
1217	5.54659e+02	1.21700e+03	6.39733e-02	5.52769e+02
1218	5.55395e+02	1.21800e+03	6.39631e-02	5.53519e+02
1219	5.56141e+02	1.21900e+03	6.39531e-02	5.54269e+02
1220	5.56858e+02	1.22000e+03	6.39476e-02	5.55019e+02
1221	5.57579e+02	1.22100e+03	6.39390e-02	5.55769e+02
1222	5.58304e+02	1.22200e+03	6.39294e-02	5.56519e+02
1223	5.59008e+02	1.22300e+03	6.39190e-02	5.57269e+02
1224	5.59695e+02	1.22400e+03	6.39020e-02	5.58019e+02
1225	5.60427e+02	1.22500e+03	6.38836e-02	5.58769e+02
1226	5.61133e+02	1.22600e+03	6.38625e-02	5.59519e+02
1227	5.61842e+02	1.22700e+03	6.38401e-02	5.60269e+02
1228	5.62559e+02	1.22800e+03	6.38152e-02	5.61019e+02
1229	5.63279e+02	1.22900e+03	6.37991e-02	5.61769e+02
1230	5.63987e+02	1.23000e+03	6.37890e-02	5.62519e+02
1231	5.64693e+02	1.23100e+03	6.37825e-02	5.63269e+02
1232	5.65413e+02	1.23200e+03	6.37935e-02	5.64019e+02
1233	5.66115e+02	1.23300e+03	6.38015e-02	5.64769e+02
1234	5.66812e+02	1.23400e+03	6.38113e-02	5.65519e+02
1235	5.67535e+02	1.23500e+03	6.38228e-02	5.66269e+02
1236	5.68277e+02	1.23600e+03	6.38471e-02	5.67020e+02
1237	5.68993e+02	1.23700e+03	6.38655e-02	5.67770e+02
1238	5.69690e+02	1.23800e+03	6.38828e-02	5.68520e+02
1239	5.70418e+02	1.23900e+03	6.38994e-02	5.69270e+02
1240	5.71153e+02	1.24000e+03	6.39103e-02	5.70020e+02
1241	5.71878e+02	1.24100e+03	6.39180e-02	5.70770e+02
1242	5.72614e+02	1.24200e+03	6.39192e-02	5.71520e+02
1243	5.73345e+02	1.24300e+03	6.39147e-02	5.72270e+02
1244	5.74077e+02	1.24400e+03	6.38869e-02	5.73020e+02
1245	5.74807e+02	1.24500e+03	6.38589e-02	5.73770e+02
1246	5.75546e+02	1.24600e+03	6.38262e-02	5.74520e+02
1247	5.76287e+02	1.24700e+03	6.37903e-02	5.75270e+02
1248	5.77019e+02	1.24800e+03	6.37350e-02	5.76020e+02
1249	5.77755e+02	1.24900e+03	6.36968e-02	5.76770e+02
1250	5.78478e+02	1.25000e+03	6.36686e-02	5.77520e+02
1251	5.79191e+02	1.25100e+03	6.36467e-02	5.78270e+02
1252	5.79928e+02	1.25200e+03	6.36516e-02	5.79020e+02
1253	5.80644e+02	1.25300e+03	6.36574e-02	5.79770e+02
1254	5.81355e+02	1.25400e+03	6.36687e-02	5.80520e+02
1255	5.82094e+02	1.25500e+03	6.36838e-02	5.81270e+02
1256	5.82816e+02	1.25600e+03	6.37250e-02	5.82020e+02
1257	5.83557e+02	1.25700e+03	6.37489e-02	5.82770e+02
1258	5.84279e+02	1.25800e+03	6.37665e-02	5.83520e+02
1259	5.85011e+02	1.25900e+03	6.37811e-02	5.84270e+02
1260	5.85742e+02	1.26000e+03	6.37829e-02	5.85020e+02
1261	5.86453e+02	1.26100e+03	6.37873e-02	5.85770e+02
1262	5.87182e+02	1.26200e+03	6.37912e-02	5.86520e+02
1263	5.87908e+02	1.26300e+03	6.37946e-02	5.87270e+02
1264	5.88626e+02	1.26400e+03	6.37896e-02	5.88020e+02
1265	5.89410e+02	1.26500e+03	6.37882e-02	5.88770e+02
1266	5.90478e+02	1.26600e+03	6.37867e-02	5.89520e+02
1267	5.91008e+02	1.26700e+03	6.37854e-02	5.90270e+02
1268	5.91741e+02	1.26800e+03	6.37878e-02	5.91021e+02
1269	5.92559e+02	1.26900e+03	6.37901e-02	5.91771e+02
1270	5.93329e+02	1.27000e+03	6.37931e-02	5.92521e+02
1271	5.93992e+02	1.27100e+03	6.37968e-02	5.93271e+02
1272	5.94891e+02	1.27200e+03	6.38001e-02	5.94021e+02
1273	5.95729e+02	1.27300e+03	6.37995e-02	5.94771e+02
1274	5.96414e+02	1.27400e+03	6.37968e-02	5.95521e+02
1275	5.97848e+02	1.27500e+03	6.37927e-02	5.96271e+02
1276	5.98840e+02	1.27600e+03	6.37794e-02	5.97021e+02
1277	5.99672e+02	1.27700e+03	6.37685e-02	5.97771e+02
1278	6.00398e+02	1.27800e+03	6.37594e-02	5.98521e+02
1279	6.01047e+02	1.27900e+03	6.37517e-02	5.99271e+02
1280	6.01702e+02	1.28000e+03	6.37447e-02	6.00021e+02
1281	6.02357e+02	1.28100e+03	6.37420e-02	6.00771e+02
1282	6.03015e+02	1.28200e+03	6.37408e-02	6.01521e+02
1283	6.03725e+02	1.28300e+03	6.37403e-02	6.02271e+02
1284	6.04438e+02	1.28400e+03	6.37494e-02	6.03021e+02
1285	6.05163e+02	1.28500e+03	6.37535e-02	6.03771e+02
1286	6.05926e+02	1.28600e+03	6.37569e-02	6.04521e+02
1287	6.06653e+02	1.28700e+03	6.37607e-02	6.05271e+02
1288	6.07411e+02	1.28800e+03	6.37664e-02	6.06021e+02
1289	6.08128e+02	1.28900e+03	6.37746e-02	6.06771e+02
1290	6.08930e+02	1.29000e+03	6.37840e-02	6.07521e+02
1291	6.09733e+02	1.29100e+03	6.37935e-02	6.08271e+02
1292	6.10463e+02	1.29200e+03	6.38057e-02	6.09021e+02
1293	6.11216e+02	1.29300e+03	6.38143e-02	6.09771e+02
1294	6.11971e+02	1.29400e+03	6.38209e-02	6.10521e+02
1295	6.12674e+02	1.29500e+03	6.38264e-02	6.11271e+02
1296	6.13380e+02	1.29600e+03	6.38263e-02	6.12021e+02
1297	6.14119e+02	1.29700e+03	6.38283e-02	6.12771e+02
1298	6.14861e+02	1.29800e+03	6.38299e-02	6.13521e+02
1299	6.15606e+02	1.29900e+03	6.38307e-02	6.14271e+02
1300	6.16338e+02	1.30000e+03	6.38276e-02	6.15021e+02
1301	6.17079e+02	1.30100e+03	6.38240e-02	6.15772e+02
1302	6.17807e+02	1.30200e+03	6.38186e-02	6.16522e+02
1303	6.18531e+02	1.30300e+03	6.38119e-02	6.17272e+02
1304	6.19293e+02	1.30400e+03	6.38017e-02	6.18022e+02
1305	6.20099e+02	1.30500e+03	6.37958e-02	6.18772e+02
1306	6.20883e+02	1.30600e+03	6.37942e-02	6.19522e+02
1307	6.21730e+02	1.30700e+03	6.37959e-02	6.20272e+02
1308	6.22498e+02	1.30800e+03	6.38101e-02	6.21022e+02
1309	6.23261e+02	1.30900e+03	6.38280e-02	6.21772e+02
1310	6.24048e+02	1.31000e+03	6.38494e-02	6.22522e+02
1311	6.24781e+02	1.31100e+03	6.38719e-02	6.23272e+02
1312	6.25556e+02	1.31200e+03	6.39038e-02	6.24022e+02
1313	6.26363e+02	1.31300e+03	6.39149e-02	6.24772e+02
1314	6.27070e+02	1.31400e+03	6.39079e-02	6.25522e+02
1315	6.27839e+02	1.31500e+03	6.38889e-02	6.26272e+02
1316	6.28837e+02	1.31600e+03	6.38287e-02	6.27022e+02
1317	6.29603e+02	1.31700e+03	6.37786e-02	6.27772e+02
1318	6.30261e+02	1.31800e+03	6.37296e-02	6.28522e+02
1319	6.30738e+02	1.31900e+03	6.36808e-02	6.29272e+02
1320	6.31538e+02	1.32000e+03	6.36145e-02	6.30022e+02
1321	6.32584e+02	1.32100e+03	6.35709e-02	6.30772e+02
1322	6.33262e+02	1.32200e+03	6.35404e-02	6.31522e+02
1323	6.34131e+02	1.32300e+03	6.35174e-02	6.32272e+02
1324	6.34864e+02	1.32400e+03	6.35286e-02	6.33022e+02
1325	6.35544e+02	1.32500e+03	6.35205e-02	6.33772e+02
1326	6.36146e+02	1.32600e+03	6.34988e-02	6.34522e+02
1327	6.36956e+02	1.32700e+03	6.34677e-02	6.35272e+02
1328	6.37706e+02	1.32800e+03	6.34134e-02	6.36022e+02
1329	6.38834e+02	1.32900e+03	6.33503e-02	6.36772e+02
1330	6.39610e+02	1.33000e+03	6.32854e-02	6.37522e+02
1331	6.40205e+02	1.33100e+03	6.32229e-02	6.38272e+02
1332	6.40828e+02	1.33200e+03	6.31409e-02	6.39022e+02
1333	6.41467e+02	1.33300e+03	6.30953e-02	6.39773e+02
1334	6.42163e+02	1.33400e+03	6.30667e-02	6.40523e+02
1335	6.42886e+02	1.33500e+03	6.30457e-02	6.41273e+02
1336	6.43619e+02	1.33600e+03	6.30751e-02	6.42023e+02
1337	6.44387e+02	1.33700e+03	6.30755e-02	6.42773e+02
1338	6.45156e+02	1.33800e+03	6.30694e-02	6.43523e+02
1339	6.45922e+02	1.33900e+03	6.30629e-02	6.44273e+02
1340	6.46683e+02	1.34000e+03	6.30644e-02	6.45023e+02
1341	6.47376e+02	1.34100e+03	6.30786e-02	6.45773e+02
1342	6.48109e+02	1.34200e+03	6.31074e-02	6.46523e+02
1343	6.48808e+02	1.34300e+03	6.31465e-02	6.47273e+02
1344	6.49591e+02	1.34400e+03	6.32254e-02	6.48023e+02
1345	6.50450e+02	1.34500e+03	6.32965e-02	6.48773e+02
1346	6.51318e+02	1.34600e+03	6.33652e-02	6.49523e+02
1347	6.51965e+02	1.34700e+03	6.34313e-02	6.50273e+02
1348	6.52803e+02	1.34800e+03	6.35050e-02	6.51023e+02
1349	6.53917e+02	1.34900e+03	6.35527e-02	6.51773e+02
1350	6.54700e+02	1.35000e+03	6.35842e-02	6.52523e+02
1351	6.55240e+02	1.35100e+03	6.36061e-02	6.53273e+02
1352	6.55904e+02	1.35200e+03	6.35672e-02	6.54023e+02
1353	6.56727e+02	1.35300e+03	6.35386e-02	6.54773e+02
1354	6.57546e+02	1.35400e+03	6.35030e-02	6.55523e+02
1355	6.58174e+02	1.35500e+03	6.34619e-02	6.56273e+02
1356	6.58651e+02	1.35600e+03	6.33893e-02	6.57023e+02
1357	6.59332e+02	1.35700e+03	6.33374e-02	6.57773e+02
1358	6.59878e+02	1.35800e+03	6.32910e-02	6.58523e+02
1359	6.60510e+02	1.35900e+03	6.32459e-02	6.59273e+02
1360	6.61182e+02	1.36000e+03	6.32126e-02	6.60023e+02
1361	6.61868e+02	1.36100e+03	6.31816e-02	6.60773e+02
1362	6.62564e+02	1.36200e+03	6.31586e-02	6.61523e+02
1363	6.63284e+02	1.36300e+03	6.31423e-02	6.62273e+02
1364	6.64008e+02	1.36400e+03	6.31590e-02	6.63023e+02
1365	6.64725e+02	1.36500e+03	6.31779e-02	6.63773e+02
1366	6.65455e+02	1.36600e+03	6.32054e-02	6.64523e+02
1367	6.66192e+02	1.36700e+03	6.32390e-02	6.65274e+02
1368	6.66928e+02	1.36800e+03	6.33063e-02	6.66024e+02
1369	6.67675e+02	1.36900e+03	6.33538e-02	6.66774e+02
1370	6.68413e+02	1.37000e+03	6.33946e-02	6.67524e+02
1371	6.69151e+02	1.37100e+03	6.34324e-02	6.68274e+02
1372	6.69883e+02	1.37200e+03	6.34588e-02	6.69024e+02
1373	6.70619e+02	1.37300e+03	6.34830e-02	6.69774e+02
1374	6.71354e+02	1.37400e+03	6.35038e-02	6.70524e+02
1375	6.72080e+02	1.37500e+03	6.35226e-02	6.71274e+02
1376	6.72811e+02	1.37600e+03	6.35253e-02	6.72024e+02
1377	6.73546e+02	1.37700e+03	6.35342e-02	6.72774e+02
1378	6.74292e+02	1.37800e+03	6.35413e-02	6.73524e+02
1379	6.75010e+02	1.37900e+03	6.35462e-02	6.74274e+02
1380	6.75735e+02	1.38000e+03	6.35448e-02	6.75024e+02
1381	6.76477e+02	1.38100e+03	6.35392e-02	6.75774e+02
1382	6.77201e+02	1.38200e+03	6.35262e-02	6.76524e+02
1383	6.77927e+02	1.38300e+03	6.35080e-02	6.77274e+02
1384	6.78660e+02	1.38400e+03	6.34655e-02	6.78024e+02
1385	6.79388e+02	1.38500e+03	6.34256e-02	6.78774e+02
1386	6.80121e+02	1.38600e+03	6.33853e-02	6.79524e+02
1387	6.80913e+02	1.38700e+03	6.33449e-02	6.80274e+02
1388	6.81341e+02	1.38800e+03	6.32971e-02	6.81024e+02
1389	6.81579e+02	1.38900e+03	6.32685e-02	6.81774e+02
1390	6.81989e+02	1.39000e+03	6.32530e-02	6.82524e+02
1391	6.82493e+02	1.39100e+03	6.32454e-02	6.83274e+02
1392	6.83015e+02	1.39200e+03	6.32790e-02	6.84024e+02
1393	6.83537e+02	1.39300e+03	6.33027e-02	6.84774e+02
1394	6.84036e+02	1.39400e+03	6.33257e-02	6.85524e+02
1395	6.84515e+02	1.39500e+03	6.33469e-02	6.86274e+02
1396	6.84997e+02	1.39600e+03	6.33875e-02	6.87024e+02
1397	6.85451e+02	1.39700e+03	6.34106e-02	6.87774e+02
1398	6.85891e+02	1.39800e+03	6.34235e-02	6.88524e+02
1399	6.86319e+02	1.39900e+03	6.34306e-02	6.89275e+02
1400	6.86735e+02	1.40000e+03	6.34129e-02	6.90025e+02
1401	6.87137e+02	1.40100e+03	6.33990e-02	6.90775e+02
1402	6.87542e+02	1.40200e+03	6.33824e-02	6.91525e+02
1403	6.87912e+02	1.40300e+03	6.33641e-02	6.92275e+02
1404	6.88258e+02	1.40400e+03	6.33308e-02	6.93025e+02
1405	6.88615e+02	1.40500e+03	6.33071e-02	6.93775e+02
1406	6.88961e+02	1.40600e+03	6.32843e-02	6.94525e+02
1407	6.89301e+02	1.40700e+03	6.32605e-02	6.95275e+02
1408	6.89619e+02	1.40800e+03	6.32324e-02	6.96025e+02
1409	6.89954e+02	1.40900e+03	6.31969e-02	6.96775e+02
1410	6.90275e+02	1.41000e+03	6.31607e-02	6.97525e+02
1411	6.90573e+02	1.41100e+03	6.31233e-02	6.98275e+02
1412	6.90873e+02	1.41200e+03	6.30735e-02	6.99025e+02
1413	6.91161e+02	1.41300e+03	6.30342e-02	6.99775e+02
1414	6.91435e+02	1.41400e+03	6.30017e-02	7.00000e+02