File: Experiments/TUBS/tga_nonisotherm/tga_dynamic_n2_dyn60_powder_12mg_r3.txt
index	ts	t	weight	tr
[#]	[°C]	[s]	[mg]	[°C]
643	1.30950e+02	6.43000e+02	1.19182e+01	1.33000e+02
644	1.31987e+02	6.44000e+02	1.19181e+01	1.34000e+02
645	1.33006e+02	6.45000e+02	1.19180e+01	1.35000e+02
646	1.34039e+02	6.46000e+02	1.19178e+01	1.36000e+02
647	1.35048e+02	6.47000e+02	1.19177e+01	1.37000e+02
648	1.36082e+02	6.48000e+02	1.19175e+01	1.38000e+02
649	1.37116e+02	6.49000e+02	1.19174e+01	1.39000e+02
650	1.38134e+02	6.50000e+02	1.19172e+01	1.40000e+02
651	1.39141e+02	6.51000e+02	1.19170e+01	1.41000e+02
652	1.40166e+02	6.52000e+02	1.19168e+01	1.42000e+02
653	1.41196e+02	6.53000e+02	1.19165e+01	1.43000e+02
654	1.42207e+02	6.54000e+02	1.19163e+01	1.44000e+02
655	1.43245e+02	6.55000e+02	1.19160e+01	1.45000e+02
656	1.44254e+02	6.56000e+02	1.19156e+01	1.46000e+02
657	1.45283e+02	6.57000e+02	1.19152e+01	1.47000e+02
658	1.46291e+02	6.58000e+02	1.19147e+01	1.48000e+02
659	1.47324e+02	6.59000e+02	1.19143e+01	1.49000e+02
660	1.48335e+02	6.60000e+02	1.19137e+01	1.50000e+02
661	1.49360e+02	6.61000e+02	1.19131e+01	1.51000e+02
662	1.50373e+02	6.62000e+02	1.19125e+01	1.52000e+02
663	1.51399e+02	6.63000e+02	1.19118e+01	1.53000e+02
664	1.52430e+02	6.64000e+02	1.19110e+01	1.54000e+02
665	1.53450e+02	6.65000e+02	1.19102e+01	1.55000e+02
666	1.54480e+02	6.66000e+02	1.19094e+01	1.56000e+02
667	1.55485e+02	6.67000e+02	1.19086e+01	1.57000e+02
668	1.56517e+02	6.68000e+02	1.19075e+01	1.58000e+02
669	1.57522e+02	6.69000e+02	1.19065e+01	1.59000e+02
670	1.58538e+02	6.70000e+02	1.19054e+01	1.60000e+02
671	1.59560e+02	6.71000e+02	1.19043e+01	1.61000e+02
672	1.60570e+02	6.72000e+02	1.19030e+01	1.62000e+02
673	1.61591e+02	6.73000e+02	1.19017e+01	1.63000e+02
674	1.62610e+02	6.74000e+02	1.19003e+01	1.64000e+02
675	1.63621e+02	6.75000e+02	1.18990e+01	1.65000e+02
676	1.64635e+02	6.76000e+02	1.18974e+01	1.66000e+02
677	1.65652e+02	6.77000e+02	1.18958e+01	1.67000e+02
678	1.66676e+02	6.78000e+02	1.18942e+01	1.68000e+02
679	1.67697e+02	6.79000e+02	1.18926e+01	1.69000e+02
680	1.68707e+02	6.80000e+02	1.18907e+01	1.70000e+02
681	1.69712e+02	6.81000e+02	1.18889e+01	1.71000e+02
682	1.70734e+02	6.82000e+02	1.18870e+01	1.72000e+02
683	1.71743e+02	6.83000e+02	1.18851e+01	1.73000e+02
684	1.72765e+02	6.84000e+02	1.18829e+01	1.74000e+02
685	1.73786e+02	6.85000e+02	1.18807e+01	1.75000e+02
686	1.74790e+02	6.86000e+02	1.18784e+01	1.76000e+02
687	1.75816e+02	6.87000e+02	1.18760e+01	1.77000e+02
688	1.76836e+02	6.88000e+02	1.18733e+01	1.78000e+02
689	1.77838e+02	6.89000e+02	1.18705e+01	1.79000e+02
690	1.78847e+02	6.90000e+02	1.18677e+01	1.80000e+02
691	1.79862e+02	6.91000e+02	1.18647e+01	1.81000e+02
692	1.80878e+02	6.92000e+02	1.18612e+01	1.82000e+02
693	1.81872e+02	6.93000e+02	1.18578e+01	1.83000e+02
694	1.82892e+02	6.94000e+02	1.18541e+01	1.84000e+02
695	1.83891e+02	6.95000e+02	1.18503e+01	1.85000e+02
696	1.84908e+02	6.96000e+02	1.18457e+01	1.86000e+02
697	1.85935e+02	6.97000e+02	1.18412e+01	1.87000e+02
698	1.86940e+02	6.98000e+02	1.18364e+01	1.88000e+02
699	1.87949e+02	6.99000e+02	1.18314e+01	1.89000e+02
700	1.88962e+02	7.00000e+02	1.18254e+01	1.90000e+02
701	1.89968e+02	7.01000e+02	1.18195e+01	1.91000e+02
702	1.90985e+02	7.02000e+02	1.18133e+01	1.92000e+02
703	1.91976e+02	7.03000e+02	1.18069e+01	1.93000e+02
704	1.92993e+02	7.04000e+02	1.17992e+01	1.94000e+02
705	1.94005e+02	7.05000e+02	1.17917e+01	1.95000e+02
706	1.95020e+02	7.06000e+02	1.17838e+01	1.96000e+02
707	1.96026e+02	7.07000e+02	1.17758e+01	1.97000e+02
708	1.97022e+02	7.08000e+02	1.17664e+01	1.98000e+02
709	1.98040e+02	7.09000e+02	1.17571e+01	1.99000e+02
710	1.99057e+02	7.10000e+02	1.17477e+01	2.00000e+02
711	2.00056e+02	7.11000e+02	1.17380e+01	2.01000e+02
712	2.01082e+02	7.12000e+02	1.17270e+01	2.02000e+02
713	2.02094e+02	7.13000e+02	1.17163e+01	2.03000e+02
714	2.03109e+02	7.14000e+02	1.17054e+01	2.04000e+02
715	2.04124e+02	7.15000e+02	1.16943e+01	2.05000e+02
716	2.05129e+02	7.16000e+02	1.16823e+01	2.06000e+02
717	2.06146e+02	7.17000e+02	1.16706e+01	2.07000e+02
718	2.07171e+02	7.18000e+02	1.16588e+01	2.08000e+02
719	2.08185e+02	7.19000e+02	1.16469e+01	2.09000e+02
720	2.09198e+02	7.20000e+02	1.16345e+01	2.10000e+02
721	2.10215e+02	7.21000e+02	1.16224e+01	2.11000e+02
722	2.11236e+02	7.22000e+02	1.16104e+01	2.12000e+02
723	2.12256e+02	7.23000e+02	1.15984e+01	2.13000e+02
724	2.13282e+02	7.24000e+02	1.15866e+01	2.14000e+02
725	2.14303e+02	7.25000e+02	1.15750e+01	2.15000e+02
726	2.15331e+02	7.26000e+02	1.15636e+01	2.16000e+02
727	2.16342e+02	7.27000e+02	1.15524e+01	2.17000e+02
728	2.17368e+02	7.28000e+02	1.15421e+01	2.18000e+02
729	2.18397e+02	7.29000e+02	1.15318e+01	2.19000e+02
730	2.19424e+02	7.30000e+02	1.15218e+01	2.20000e+02
731	2.20451e+02	7.31000e+02	1.15121e+01	2.21000e+02
732	2.21465e+02	7.32000e+02	1.15038e+01	2.22000e+02
733	2.22490e+02	7.33000e+02	1.14955e+01	2.23000e+02
734	2.23534e+02	7.34000e+02	1.14874e+01	2.24000e+02
735	2.24551e+02	7.35000e+02	1.14797e+01	2.25000e+02
736	2.25578e+02	7.36000e+02	1.14735e+01	2.26000e+02
737	2.26604e+02	7.37000e+02	1.14671e+01	2.27000e+02
738	2.27638e+02	7.38000e+02	1.14610e+01	2.28000e+02
739	2.28667e+02	7.39000e+02	1.14551e+01	2.29000e+02
740	2.29696e+02	7.40000e+02	1.14506e+01	2.30000e+02
741	2.30732e+02	7.41000e+02	1.14458e+01	2.31000e+02
742	2.31749e+02	7.42000e+02	1.14411e+01	2.32000e+02
743	2.32786e+02	7.43000e+02	1.14366e+01	2.33000e+02
744	2.33796e+02	7.44000e+02	1.14330e+01	2.34000e+02
745	2.34813e+02	7.45000e+02	1.14292e+01	2.35000e+02
746	2.35834e+02	7.46000e+02	1.14254e+01	2.36000e+02
747	2.36869e+02	7.47000e+02	1.14217e+01	2.37000e+02
748	2.37892e+02	7.48000e+02	1.14185e+01	2.38000e+02
749	2.38923e+02	7.49000e+02	1.14151e+01	2.39000e+02
750	2.39941e+02	7.50000e+02	1.14118e+01	2.40000e+02
751	2.40971e+02	7.51000e+02	1.14085e+01	2.41000e+02
752	2.41987e+02	7.52000e+02	1.14053e+01	2.42000e+02
753	2.43015e+02	7.53000e+02	1.14022e+01	2.43000e+02
754	2.44031e+02	7.54000e+02	1.13990e+01	2.44000e+02
755	2.45045e+02	7.55000e+02	1.13958e+01	2.45000e+02
756	2.46041e+02	7.56000e+02	1.13926e+01	2.46000e+02
757	2.47052e+02	7.57000e+02	1.13895e+01	2.47000e+02
758	2.48065e+02	7.58000e+02	1.13863e+01	2.48000e+02
759	2.49076e+02	7.59000e+02	1.13832e+01	2.49000e+02
760	2.50092e+02	7.60000e+02	1.13800e+01	2.50000e+02
761	2.51100e+02	7.61000e+02	1.13769e+01	2.51000e+02
762	2.52118e+02	7.62000e+02	1.13738e+01	2.52000e+02
763	2.53122e+02	7.63000e+02	1.13707e+01	2.53000e+02
764	2.54140e+02	7.64000e+02	1.13677e+01	2.54000e+02
765	2.55141e+02	7.65000e+02	1.13647e+01	2.55000e+02
766	2.56157e+02	7.66000e+02	1.13617e+01	2.56000e+02
767	2.57187e+02	7.67000e+02	1.13588e+01	2.57000e+02
768	2.58198e+02	7.68000e+02	1.13560e+01	2.58000e+02
769	2.59206e+02	7.69000e+02	1.13531e+01	2.59000e+02
770	2.60242e+02	7.70000e+02	1.13503e+01	2.60000e+02
771	2.61238e+02	7.71000e+02	1.13476e+01	2.61000e+02
772	2.62257e+02	7.72000e+02	1.13449e+01	2.62000e+02
773	2.63275e+02	7.73000e+02	1.13423e+01	2.63000e+02
774	2.64267e+02	7.74000e+02	1.13396e+01	2.64000e+02
775	2.65264e+02	7.75000e+02	1.13370e+01	2.65000e+02
776	2.66241e+02	7.76000e+02	1.13346e+01	2.66000e+02
777	2.67240e+02	7.77000e+02	1.13321e+01	2.67000e+02
778	2.68221e+02	7.78000e+02	1.13296e+01	2.68000e+02
779	2.69222e+02	7.79000e+02	1.13271e+01	2.69000e+02
780	2.70220e+02	7.80000e+02	1.13247e+01	2.70000e+02
781	2.71205e+02	7.81000e+02	1.13223e+01	2.71000e+02
782	2.72205e+02	7.82000e+02	1.13198e+01	2.72000e+02
783	2.73199e+02	7.83000e+02	1.13174e+01	2.73000e+02
784	2.74205e+02	7.84000e+02	1.13149e+01	2.74000e+02
785	2.75206e+02	7.85000e+02	1.13124e+01	2.75000e+02
786	2.76218e+02	7.86000e+02	1.13099e+01	2.76000e+02
787	2.77227e+02	7.87000e+02	1.13074e+01	2.77000e+02
788	2.78238e+02	7.88000e+02	1.13048e+01	2.78000e+02
789	2.79230e+02	7.89000e+02	1.13021e+01	2.79000e+02
790	2.80238e+02	7.90000e+02	1.12994e+01	2.80000e+02
791	2.81238e+02	7.91000e+02	1.12967e+01	2.81000e+02
792	2.82230e+02	7.92000e+02	1.12938e+01	2.82000e+02
793	2.83228e+02	7.93000e+02	1.12909e+01	2.83000e+02
794	2.84244e+02	7.94000e+02	1.12879e+01	2.84000e+02
795	2.85245e+02	7.95000e+02	1.12848e+01	2.85000e+02
796	2.86265e+02	7.96000e+02	1.12814e+01	2.86000e+02
797	2.87278e+02	7.97000e+02	1.12780e+01	2.87000e+02
798	2.88289e+02	7.98000e+02	1.12745e+01	2.88000e+02
799	2.89299e+02	7.99000e+02	1.12709e+01	2.89000e+02
800	2.90321e+02	8.00000e+02	1.12668e+01	2.90000e+02
801	2.91336e+02	8.01000e+02	1.12627e+01	2.91000e+02
802	2.92358e+02	8.02000e+02	1.12584e+01	2.92000e+02
803	2.93360e+02	8.03000e+02	1.12540e+01	2.93000e+02
804	2.94374e+02	8.04000e+02	1.12489e+01	2.94000e+02
805	2.95376e+02	8.05000e+02	1.12439e+01	2.95000e+02
806	2.96386e+02	8.06000e+02	1.12387e+01	2.96000e+02
807	2.97389e+02	8.07000e+02	1.12333e+01	2.97000e+02
808	2.98410e+02	8.08000e+02	1.12270e+01	2.98000e+02
809	2.99429e+02	8.09000e+02	1.12208e+01	2.99000e+02
810	3.00434e+02	8.10000e+02	1.12144e+01	3.00000e+02
811	3.01439e+02	8.11000e+02	1.12077e+01	3.01000e+02
812	3.02454e+02	8.12000e+02	1.12000e+01	3.02000e+02
813	3.03476e+02	8.13000e+02	1.11924e+01	3.03000e+02
814	3.04507e+02	8.14000e+02	1.11846e+01	3.04000e+02
815	3.05544e+02	8.15000e+02	1.11765e+01	3.05000e+02
816	3.06568e+02	8.16000e+02	1.11671e+01	3.06000e+02
817	3.07576e+02	8.17000e+02	1.11579e+01	3.07000e+02
818	3.08619e+02	8.18000e+02	1.11485e+01	3.08000e+02
819	3.09663e+02	8.19000e+02	1.11387e+01	3.09000e+02
820	3.10674e+02	8.20000e+02	1.11277e+01	3.10000e+02
821	3.11713e+02	8.21000e+02	1.11168e+01	3.11000e+02
822	3.12743e+02	8.22000e+02	1.11057e+01	3.12000e+02
823	3.13753e+02	8.23000e+02	1.10943e+01	3.13000e+02
824	3.14785e+02	8.24000e+02	1.10816e+01	3.14000e+02
825	3.15812e+02	8.25000e+02	1.10692e+01	3.15000e+02
826	3.16866e+02	8.26000e+02	1.10564e+01	3.16000e+02
827	3.17899e+02	8.27000e+02	1.10435e+01	3.17000e+02
828	3.18938e+02	8.28000e+02	1.10293e+01	3.18000e+02
829	3.19956e+02	8.29000e+02	1.10154e+01	3.19000e+02
830	3.20981e+02	8.30000e+02	1.10012e+01	3.20000e+02
831	3.22011e+02	8.31000e+02	1.09869e+01	3.21000e+02
832	3.23026e+02	8.32000e+02	1.09716e+01	3.22000e+02
833	3.24052e+02	8.33000e+02	1.09564e+01	3.23000e+02
834	3.25109e+02	8.34000e+02	1.09411e+01	3.24000e+02
835	3.26117e+02	8.35000e+02	1.09256e+01	3.25000e+02
836	3.27152e+02	8.36000e+02	1.09092e+01	3.26000e+02
837	3.28156e+02	8.37000e+02	1.08930e+01	3.27000e+02
838	3.29220e+02	8.38000e+02	1.08767e+01	3.28000e+02
839	3.30245e+02	8.39000e+02	1.08602e+01	3.29000e+02
840	3.31251e+02	8.40000e+02	1.08429e+01	3.30000e+02
841	3.32259e+02	8.41000e+02	1.08257e+01	3.31000e+02
842	3.33254e+02	8.42000e+02	1.08082e+01	3.32000e+02
843	3.34266e+02	8.43000e+02	1.07905e+01	3.33000e+02
844	3.35259e+02	8.44000e+02	1.07718e+01	3.34000e+02
845	3.36270e+02	8.45000e+02	1.07531e+01	3.35000e+02
846	3.37294e+02	8.46000e+02	1.07341e+01	3.36000e+02
847	3.38284e+02	8.47000e+02	1.07147e+01	3.37000e+02
848	3.39286e+02	8.48000e+02	1.06936e+01	3.38000e+02
849	3.40291e+02	8.49000e+02	1.06729e+01	3.39000e+02
850	3.41276e+02	8.50000e+02	1.06520e+01	3.40000e+02
851	3.42270e+02	8.51000e+02	1.06302e+01	3.41000e+02
852	3.43266e+02	8.52000e+02	1.06056e+01	3.42000e+02
853	3.44291e+02	8.53000e+02	1.05809e+01	3.43000e+02
854	3.45286e+02	8.54000e+02	1.05553e+01	3.44000e+02
855	3.46278e+02	8.55000e+02	1.05288e+01	3.45000e+02
856	3.47273e+02	8.56000e+02	1.04995e+01	3.46000e+02
857	3.48290e+02	8.57000e+02	1.04706e+01	3.47000e+02
858	3.49290e+02	8.58000e+02	1.04397e+01	3.48000e+02
859	3.50292e+02	8.59000e+02	1.04073e+01	3.49000e+02
860	3.51297e+02	8.60000e+02	1.03715e+01	3.50000e+02
861	3.52282e+02	8.61000e+02	1.03348e+01	3.51000e+02
862	3.53263e+02	8.62000e+02	1.02963e+01	3.52000e+02
863	3.54290e+02	8.63000e+02	1.02564e+01	3.53000e+02
864	3.55264e+02	8.64000e+02	1.02126e+01	3.54000e+02
865	3.56248e+02	8.65000e+02	1.01679e+01	3.55000e+02
866	3.57276e+02	8.66000e+02	1.01211e+01	3.56000e+02
867	3.58272e+02	8.67000e+02	1.00726e+01	3.57000e+02
868	3.59232e+02	8.68000e+02	1.00203e+01	3.58000e+02
869	3.60241e+02	8.69000e+02	9.96700e+00	3.59000e+02
870	3.61204e+02	8.70000e+02	9.90978e+00	3.60000e+02
871	3.62182e+02	8.71000e+02	9.85132e+00	3.61000e+02
872	3.63156e+02	8.72000e+02	9.78881e+00	3.62000e+02
873	3.64114e+02	8.73000e+02	9.72534e+00	3.63000e+02
874	3.65086e+02	8.74000e+02	9.65785e+00	3.64000e+02
875	3.66067e+02	8.75000e+02	9.58904e+00	3.65000e+02
876	3.67070e+02	8.76000e+02	9.51613e+00	3.66000e+02
877	3.68033e+02	8.77000e+02	9.44217e+00	3.67000e+02
878	3.68989e+02	8.78000e+02	9.36393e+00	3.68000e+02
879	3.69964e+02	8.79000e+02	9.28430e+00	3.69000e+02
880	3.70927e+02	8.80000e+02	9.20046e+00	3.70000e+02
881	3.71882e+02	8.81000e+02	9.11572e+00	3.71000e+02
882	3.72851e+02	8.82000e+02	9.02699e+00	3.72000e+02
883	3.73820e+02	8.83000e+02	8.93698e+00	3.73000e+02
884	3.74783e+02	8.84000e+02	8.84260e+00	3.74000e+02
885	3.75743e+02	8.85000e+02	8.74721e+00	3.75000e+02
886	3.76729e+02	8.86000e+02	8.64954e+00	3.76000e+02
887	3.77701e+02	8.87000e+02	8.55005e+00	3.77000e+02
888	3.78653e+02	8.88000e+02	8.44615e+00	3.78000e+02
889	3.79601e+02	8.89000e+02	8.34151e+00	3.79000e+02
890	3.80539e+02	8.90000e+02	8.23459e+00	3.80000e+02
891	3.81477e+02	8.91000e+02	8.12540e+00	3.81000e+02
892	3.82394e+02	8.92000e+02	8.01507e+00	3.82000e+02
893	3.83358e+02	8.93000e+02	7.90343e+00	3.83000e+02
894	3.84308e+02	8.94000e+02	7.78979e+00	3.84000e+02
895	3.85288e+02	8.95000e+02	7.67411e+00	3.85000e+02
896	3.86229e+02	8.96000e+02	7.55658e+00	3.86000e+02
897	3.87148e+02	8.97000e+02	7.43934e+00	3.87000e+02
898	3.88128e+02	8.98000e+02	7.31986e+00	3.88000e+02
899	3.89098e+02	8.99000e+02	7.19834e+00	3.89000e+02
900	3.90005e+02	9.00000e+02	7.07501e+00	3.90000e+02
901	3.90944e+02	9.01000e+02	6.95188e+00	3.91000e+02
902	3.91907e+02	9.02000e+02	6.82665e+00	3.92000e+02
903	3.92883e+02	9.03000e+02	6.69998e+00	3.93000e+02
904	3.93841e+02	9.04000e+02	6.56980e+00	3.94000e+02
905	3.94791e+02	9.05000e+02	6.43887e+00	3.95000e+02
906	3.95772e+02	9.06000e+02	6.30597e+00	3.96000e+02
907	3.96740e+02	9.07000e+02	6.17112e+00	3.97000e+02
908	3.97720e+02	9.08000e+02	6.03462e+00	3.98000e+02
909	3.98674e+02	9.09000e+02	5.89835e+00	3.99000e+02
910	3.99671e+02	9.10000e+02	5.75997e+00	4.00000e+02
911	4.00666e+02	9.11000e+02	5.61968e+00	4.01000e+02
912	4.01685e+02	9.12000e+02	5.47749e+00	4.02000e+02
913	4.02614e+02	9.13000e+02	5.33518e+00	4.03000e+02
914	4.03580e+02	9.14000e+02	5.19176e+00	4.04000e+02
915	4.04575e+02	9.15000e+02	5.04709e+00	4.05000e+02
916	4.05525e+02	9.16000e+02	4.90104e+00	4.06000e+02
917	4.06506e+02	9.17000e+02	4.75539e+00	4.07000e+02
918	4.07521e+02	9.18000e+02	4.60952e+00	4.08000e+02
919	4.08499e+02	9.19000e+02	4.46262e+00	4.09000e+02
920	4.09506e+02	9.20000e+02	4.31312e+00	4.10000e+02
921	4.10510e+02	9.21000e+02	4.16405e+00	4.11000e+02
922	4.11504e+02	9.22000e+02	4.01285e+00	4.12000e+02
923	4.12520e+02	9.23000e+02	3.85980e+00	4.13000e+02
924	4.13470e+02	9.24000e+02	3.70495e+00	4.14000e+02
925	4.14486e+02	9.25000e+02	3.54990e+00	4.15000e+02
926	4.15584e+02	9.26000e+02	3.39396e+00	4.16000e+02
927	4.16697e+02	9.27000e+02	3.23734e+00	4.17000e+02
928	4.17766e+02	9.28000e+02	3.07788e+00	4.18000e+02
929	4.18865e+02	9.29000e+02	2.91860e+00	4.19000e+02
930	4.19942e+02	9.30000e+02	2.75987e+00	4.20000e+02
931	4.21098e+02	9.31000e+02	2.60135e+00	4.21000e+02
932	4.22224e+02	9.32000e+02	2.44169e+00	4.22000e+02
933	4.23336e+02	9.33000e+02	2.28251e+00	4.23000e+02
934	4.24395e+02	9.34000e+02	2.12484e+00	4.24000e+02
935	4.25462e+02	9.35000e+02	1.96974e+00	4.25000e+02
936	4.26542e+02	9.36000e+02	1.82171e+00	4.26000e+02
937	4.27559e+02	9.37000e+02	1.67774e+00	4.27000e+02
938	4.28628e+02	9.38000e+02	1.53976e+00	4.28000e+02
939	4.29740e+02	9.39000e+02	1.40617e+00	4.29000e+02
940	4.30769e+02	9.40000e+02	1.28424e+00	4.30000e+02
941	4.31782e+02	9.41000e+02	1.16793e+00	4.31000e+02
942	4.32876e+02	9.42000e+02	1.05958e+00	4.32000e+02
943	4.33951e+02	9.43000e+02	9.56611e-01	4.33000e+02
944	4.35080e+02	9.44000e+02	8.66792e-01	4.34000e+02
945	4.36168e+02	9.45000e+02	7.82319e-01	4.35000e+02
946	4.37315e+02	9.46000e+02	7.05035e-01	4.36000e+02
947	4.38525e+02	9.47000e+02	6.32413e-01	4.37000e+02
948	4.39725e+02	9.48000e+02	5.70634e-01	4.38000e+02
949	4.40859e+02	9.49000e+02	5.13113e-01	4.39000e+02
950	4.42008e+02	9.50000e+02	4.61285e-01	4.40000e+02
951	4.43104e+02	9.51000e+02	4.13188e-01	4.41000e+02
952	4.44258e+02	9.52000e+02	3.73564e-01	4.42000e+02
953	4.45301e+02	9.53000e+02	3.37126e-01	4.43000e+02
954	4.46318e+02	9.54000e+02	3.04844e-01	4.44000e+02
955	4.47439e+02	9.55000e+02	2.75212e-01	4.45000e+02
956	4.48577e+02	9.56000e+02	2.51819e-01	4.46000e+02
957	4.49592e+02	9.57000e+02	2.31027e-01	4.47000e+02
958	4.50554e+02	9.58000e+02	2.11896e-01	4.48000e+02
959	4.51679e+02	9.59000e+02	1.94339e-01	4.49000e+02
960	4.52653e+02	9.60000e+02	1.80911e-01	4.50000e+02
961	4.53731e+02	9.61000e+02	1.68083e-01	4.51000e+02
962	4.54897e+02	9.62000e+02	1.57172e-01	4.52000e+02
963	4.55942e+02	9.63000e+02	1.48121e-01	4.53000e+02
964	4.57040e+02	9.64000e+02	1.40832e-01	4.54000e+02
965	4.58153e+02	9.65000e+02	1.33619e-01	4.55000e+02
966	4.59227e+02	9.66000e+02	1.27460e-01	4.56000e+02
967	4.60426e+02	9.67000e+02	1.22466e-01	4.57000e+02
968	4.61613e+02	9.68000e+02	1.18573e-01	4.58000e+02
969	4.62721e+02	9.69000e+02	1.14447e-01	4.59000e+02
970	4.63690e+02	9.70000e+02	1.10692e-01	4.60000e+02
971	4.64641e+02	9.71000e+02	1.07248e-01	4.61000e+02
972	4.65523e+02	9.72000e+02	1.05267e-01	4.62000e+02
973	4.66545e+02	9.73000e+02	1.02928e-01	4.63000e+02
974	4.67485e+02	9.74000e+02	1.00755e-01	4.64000e+02
975	4.68502e+02	9.75000e+02	9.87610e-02	4.65000e+02
976	4.69619e+02	9.76000e+02	9.76992e-02	4.66000e+02
977	4.70645e+02	9.77000e+02	9.64002e-02	4.67000e+02
978	4.71620e+02	9.78000e+02	9.51952e-02	4.68000e+02
979	4.72399e+02	9.79000e+02	9.41000e-02	4.69000e+02
980	4.73270e+02	9.80000e+02	9.35598e-02	4.70000e+02
981	4.74157e+02	9.81000e+02	9.28844e-02	4.71000e+02
982	4.75012e+02	9.82000e+02	9.22675e-02	4.72000e+02
983	4.75877e+02	9.83000e+02	9.17163e-02	4.73000e+02
984	4.76778e+02	9.84000e+02	9.15030e-02	4.74000e+02
985	4.77634e+02	9.85000e+02	9.11985e-02	4.75000e+02
986	4.78597e+02	9.86000e+02	9.09209e-02	4.76000e+02
987	4.79591e+02	9.87000e+02	9.06762e-02	4.77000e+02
988	4.80497e+02	9.88000e+02	9.06034e-02	4.78000e+02
989	4.81381e+02	9.89000e+02	9.04712e-02	4.79000e+02
990	4.82247e+02	9.90000e+02	9.03424e-02	4.80000e+02
991	4.83138e+02	9.91000e+02	9.02246e-02	4.81000e+02
992	4.84062e+02	9.92000e+02	9.01627e-02	4.82000e+02
993	4.85023e+02	9.93000e+02	9.00776e-02	4.83000e+02
994	4.85946e+02	9.94000e+02	8.99914e-02	4.84000e+02
995	4.86904e+02	9.95000e+02	8.99079e-02	4.85000e+02
996	4.87815e+02	9.96000e+02	8.98391e-02	4.86000e+02
997	4.88767e+02	9.97000e+02	8.97708e-02	4.87000e+02
998	4.89752e+02	9.98000e+02	8.97079e-02	4.88000e+02
999	4.90730e+02	9.99000e+02	8.96496e-02	4.89000e+02
1000	4.91655e+02	1.00000e+03	8.96121e-02	4.90000e+02
1001	4.92629e+02	1.00100e+03	8.95704e-02	4.91000e+02
1002	4.93584e+02	1.00200e+03	8.95284e-02	4.92000e+02
1003	4.94532e+02	1.00300e+03	8.94861e-02	4.93000e+02
1004	4.95477e+02	1.00400e+03	8.94531e-02	4.94000e+02
1005	4.96479e+02	1.00500e+03	8.94112e-02	4.95000e+02
1006	4.97473e+02	1.00600e+03	8.93645e-02	4.96000e+02
1007	4.98430e+02	1.00700e+03	8.93149e-02	4.97000e+02
1008	4.99406e+02	1.00800e+03	8.92524e-02	4.98000e+02
1009	5.00430e+02	1.00900e+03	8.91955e-02	4.99000e+02
1010	5.01349e+02	1.01000e+03	8.91398e-02	5.00000e+02
1011	5.02286e+02	1.01100e+03	8.90849e-02	5.01000e+02
1012	5.03217e+02	1.01200e+03	8.90335e-02	5.02000e+02
1013	5.04160e+02	1.01300e+03	8.89895e-02	5.03000e+02
1014	5.05107e+02	1.01400e+03	8.89512e-02	5.04000e+02
1015	5.06064e+02	1.01500e+03	8.89161e-02	5.05000e+02
1016	5.07049e+02	1.01600e+03	8.88974e-02	5.06000e+02
1017	5.08037e+02	1.01700e+03	8.88703e-02	5.07000e+02
1018	5.09031e+02	1.01800e+03	8.88402e-02	5.08000e+02
1019	5.10027e+02	1.01900e+03	8.88085e-02	5.09000e+02
1020	5.11007e+02	1.02000e+03	8.87769e-02	5.10000e+02
1021	5.12003e+02	1.02100e+03	8.87452e-02	5.11000e+02
1022	5.12996e+02	1.02200e+03	8.87142e-02	5.12000e+02
1023	5.13984e+02	1.02300e+03	8.86840e-02	5.13000e+02
1024	5.14976e+02	1.02400e+03	8.86533e-02	5.14000e+02
1025	5.15954e+02	1.02500e+03	8.86250e-02	5.15000e+02
1026	5.16945e+02	1.02600e+03	8.85980e-02	5.16000e+02
1027	5.17924e+02	1.02700e+03	8.85713e-02	5.17000e+02
1028	5.18931e+02	1.02800e+03	8.85461e-02	5.18000e+02
1029	5.19932e+02	1.02900e+03	8.85171e-02	5.19000e+02
1030	5.20923e+02	1.03000e+03	8.84856e-02	5.20000e+02
1031	5.21900e+02	1.03100e+03	8.84526e-02	5.21000e+02
1032	5.22862e+02	1.03200e+03	8.84127e-02	5.22000e+02
1033	5.23865e+02	1.03300e+03	8.83758e-02	5.23000e+02
1034	5.24855e+02	1.03400e+03	8.83396e-02	5.24000e+02
1035	5.25860e+02	1.03500e+03	8.83037e-02	5.25000e+02
1036	5.26876e+02	1.03600e+03	8.82698e-02	5.26000e+02
1037	5.27936e+02	1.03700e+03	8.82408e-02	5.27000e+02
1038	5.28967e+02	1.03800e+03	8.82177e-02	5.28000e+02
1039	5.29937e+02	1.03900e+03	8.81985e-02	5.29000e+02
1040	5.30913e+02	1.04000e+03	8.81936e-02	5.30000e+02
1041	5.31900e+02	1.04100e+03	8.81851e-02	5.31000e+02
1042	5.32879e+02	1.04200e+03	8.81749e-02	5.32000e+02
1043	5.33838e+02	1.04300e+03	8.81626e-02	5.33000e+02
1044	5.34820e+02	1.04400e+03	8.81471e-02	5.34000e+02
1045	5.35830e+02	1.04500e+03	8.81220e-02	5.35000e+02
1046	5.36839e+02	1.04600e+03	8.80914e-02	5.36000e+02
1047	5.37881e+02	1.04700e+03	8.80584e-02	5.37000e+02
1048	5.39016e+02	1.04800e+03	8.80063e-02	5.38000e+02
1049	5.40004e+02	1.04900e+03	8.79676e-02	5.39000e+02
1050	5.40991e+02	1.05000e+03	8.79352e-02	5.40000e+02
1051	5.41971e+02	1.05100e+03	8.79063e-02	5.41000e+02
1052	5.42961e+02	1.05200e+03	8.78899e-02	5.42000e+02
1053	5.43958e+02	1.05300e+03	8.78724e-02	5.43000e+02
1054	5.44989e+02	1.05400e+03	8.78564e-02	5.44000e+02
1055	5.46072e+02	1.05500e+03	8.78415e-02	5.45000e+02
1056	5.47136e+02	1.05600e+03	8.78359e-02	5.46000e+02
1057	5.48047e+02	1.05700e+03	8.78227e-02	5.47000e+02
1058	5.48981e+02	1.05800e+03	8.78072e-02	5.48000e+02
1059	5.49927e+02	1.05900e+03	8.77912e-02	5.49000e+02
1060	5.50889e+02	1.06000e+03	8.77754e-02	5.50000e+02
1061	5.51835e+02	1.06100e+03	8.77657e-02	5.51000e+02
1062	5.52790e+02	1.06200e+03	8.77607e-02	5.52000e+02
1063	5.53764e+02	1.06300e+03	8.77594e-02	5.53000e+02
1064	5.54722e+02	1.06400e+03	8.77780e-02	5.54000e+02
1065	5.55702e+02	1.06500e+03	8.77958e-02	5.55000e+02
1066	5.56664e+02	1.06600e+03	8.78172e-02	5.56000e+02
1067	5.57643e+02	1.06700e+03	8.78413e-02	5.57000e+02
1068	5.58626e+02	1.06800e+03	8.78805e-02	5.58000e+02
1069	5.59605e+02	1.06900e+03	8.79092e-02	5.59000e+02
1070	5.60595e+02	1.07000e+03	8.79332e-02	5.60000e+02
1071	5.61592e+02	1.07100e+03	8.79541e-02	5.61000e+02
1072	5.62591e+02	1.07200e+03	8.79600e-02	5.62000e+02
1073	5.63587e+02	1.07300e+03	8.79644e-02	5.63000e+02
1074	5.64574e+02	1.07400e+03	8.79633e-02	5.64000e+02
1075	5.65584e+02	1.07500e+03	8.79576e-02	5.65000e+02
1076	5.66606e+02	1.07600e+03	8.79289e-02	5.66000e+02
1077	5.67650e+02	1.07700e+03	8.79085e-02	5.67000e+02
1078	5.68632e+02	1.07800e+03	8.78892e-02	5.68000e+02
1079	5.69767e+02	1.07900e+03	8.78701e-02	5.69000e+02
1080	5.70877e+02	1.08000e+03	8.78488e-02	5.70000e+02
1081	5.71904e+02	1.08100e+03	8.78348e-02	5.71000e+02
1082	5.72882e+02	1.08200e+03	8.78262e-02	5.72000e+02
1083	5.73852e+02	1.08300e+03	8.78205e-02	5.73000e+02
1084	5.74895e+02	1.08400e+03	8.78280e-02	5.74000e+02
1085	5.75896e+02	1.08500e+03	8.78309e-02	5.75000e+02
1086	5.76877e+02	1.08600e+03	8.78336e-02	5.76000e+02
1087	5.77900e+02	1.08700e+03	8.78359e-02	5.77000e+02
1088	5.78935e+02	1.08800e+03	8.78368e-02	5.78000e+02
1089	5.79944e+02	1.08900e+03	8.78322e-02	5.79000e+02
1090	5.80918e+02	1.09000e+03	8.78240e-02	5.80000e+02
1091	5.81898e+02	1.09100e+03	8.78137e-02	5.81000e+02
1092	5.82887e+02	1.09200e+03	8.77905e-02	5.82000e+02
1093	5.83922e+02	1.09300e+03	8.77711e-02	5.83000e+02
1094	5.84954e+02	1.09400e+03	8.77520e-02	5.84000e+02
1095	5.85942e+02	1.09500e+03	8.77334e-02	5.85000e+02
1096	5.86971e+02	1.09600e+03	8.77135e-02	5.86000e+02
1097	5.88052e+02	1.09700e+03	8.76976e-02	5.87000e+02
1098	5.89060e+02	1.09800e+03	8.76852e-02	5.88000e+02
1099	5.90165e+02	1.09900e+03	8.76757e-02	5.89000e+02
1100	5.91543e+02	1.10000e+03	8.76765e-02	5.90000e+02
1101	5.92572e+02	1.10100e+03	8.76738e-02	5.91000e+02
1102	5.93590e+02	1.10200e+03	8.76705e-02	5.92000e+02
1103	5.94560e+02	1.10300e+03	8.76671e-02	5.93000e+02
1104	5.95544e+02	1.10400e+03	8.76670e-02	5.94000e+02
1105	5.96531e+02	1.10500e+03	8.76633e-02	5.95000e+02
1106	5.97477e+02	1.10600e+03	8.76583e-02	5.96000e+02
1107	5.98449e+02	1.10700e+03	8.76523e-02	5.97000e+02
1108	5.99427e+02	1.10800e+03	8.76408e-02	5.98000e+02
1109	6.00412e+02	1.10900e+03	8.76326e-02	5.99000e+02
1110	6.01419e+02	1.11000e+03	8.76249e-02	6.00000e+02
1111	6.02450e+02	1.11100e+03	8.76166e-02	6.01000e+02
1112	6.03489e+02	1.11200e+03	8.76061e-02	6.02000e+02
1113	6.04535e+02	1.11300e+03	8.75948e-02	6.03000e+02
1114	6.05576e+02	1.11400e+03	8.75829e-02	6.04000e+02
1115	6.06622e+02	1.11500e+03	8.75708e-02	6.05000e+02
1116	6.07855e+02	1.11600e+03	8.75564e-02	6.06000e+02
1117	6.09323e+02	1.11700e+03	8.75446e-02	6.07000e+02
1118	6.10332e+02	1.11800e+03	8.75347e-02	6.08000e+02
1119	6.11178e+02	1.11900e+03	8.75262e-02	6.09000e+02
1120	6.12145e+02	1.12000e+03	8.75249e-02	6.10000e+02
1121	6.13202e+02	1.12100e+03	8.75258e-02	6.11000e+02
1122	6.14284e+02	1.12200e+03	8.75287e-02	6.12000e+02
1123	6.15375e+02	1.12300e+03	8.75319e-02	6.13000e+02
1124	6.16341e+02	1.12400e+03	8.75407e-02	6.14000e+02
1125	6.17156e+02	1.12500e+03	8.75427e-02	6.15000e+02
1126	6.18066e+02	1.12600e+03	8.75422e-02	6.16000e+02
1127	6.19009e+02	1.12700e+03	8.75405e-02	6.17000e+02
1128	6.19958e+02	1.12800e+03	8.75310e-02	6.18000e+02
1129	6.20952e+02	1.12900e+03	8.75252e-02	6.19000e+02
1130	6.21953e+02	1.13000e+03	8.75209e-02	6.20000e+02
1131	6.22954e+02	1.13100e+03	8.75178e-02	6.21000e+02
1132	6.23923e+02	1.13200e+03	8.75160e-02	6.22000e+02
1133	6.24868e+02	1.13300e+03	8.75156e-02	6.23000e+02
1134	6.25855e+02	1.13400e+03	8.75187e-02	6.24000e+02
1135	6.26830e+02	1.13500e+03	8.75250e-02	6.25000e+02
1136	6.27811e+02	1.13600e+03	8.75424e-02	6.26000e+02
1137	6.28787e+02	1.13700e+03	8.75579e-02	6.27000e+02
1138	6.29811e+02	1.13800e+03	8.75724e-02	6.28000e+02
1139	6.30808e+02	1.13900e+03	8.75858e-02	6.29000e+02
1140	6.31783e+02	1.14000e+03	8.75988e-02	6.30000e+02
1141	6.32761e+02	1.14100e+03	8.76025e-02	6.31000e+02
1142	6.33755e+02	1.14200e+03	8.75993e-02	6.32000e+02
1143	6.34747e+02	1.14300e+03	8.75918e-02	6.33000e+02
1144	6.35749e+02	1.14400e+03	8.75625e-02	6.34000e+02
1145	6.36752e+02	1.14500e+03	8.75409e-02	6.35000e+02
1146	6.37780e+02	1.14600e+03	8.75197e-02	6.36000e+02
1147	6.38814e+02	1.14700e+03	8.74983e-02	6.37000e+02
1148	6.39856e+02	1.14800e+03	8.74742e-02	6.38000e+02
1149	6.40888e+02	1.14900e+03	8.74560e-02	6.39000e+02
1150	6.41927e+02	1.15000e+03	8.74414e-02	6.40000e+02
1151	6.42925e+02	1.15100e+03	8.74291e-02	6.41000e+02
1152	6.43974e+02	1.15200e+03	8.74311e-02	6.42000e+02
1153	6.44974e+02	1.15300e+03	8.74320e-02	6.43000e+02
1154	6.45950e+02	1.15400e+03	8.74349e-02	6.44000e+02
1155	6.46925e+02	1.15500e+03	8.74389e-02	6.45000e+02
1156	6.47906e+02	1.15600e+03	8.74522e-02	6.46000e+02
1157	6.48889e+02	1.15700e+03	8.74599e-02	6.47000e+02
1158	6.49864e+02	1.15800e+03	8.74669e-02	6.48000e+02
1159	6.50831e+02	1.15900e+03	8.74739e-02	6.49000e+02
1160	6.51815e+02	1.16000e+03	8.74783e-02	6.50000e+02
1161	6.52795e+02	1.16100e+03	8.74828e-02	6.51000e+02
1162	6.53766e+02	1.16200e+03	8.74857e-02	6.52000e+02
1163	6.54758e+02	1.16300e+03	8.74870e-02	6.53000e+02
1164	6.55778e+02	1.16400e+03	8.74805e-02	6.54000e+02
1165	6.56753e+02	1.16500e+03	8.74720e-02	6.55000e+02
1166	6.57740e+02	1.16600e+03	8.74605e-02	6.56000e+02
1167	6.58742e+02	1.16700e+03	8.74468e-02	6.57000e+02
1168	6.59680e+02	1.16800e+03	8.74201e-02	6.58000e+02
1169	6.60661e+02	1.16900e+03	8.73990e-02	6.59000e+02
1170	6.61674e+02	1.17000e+03	8.73809e-02	6.60000e+02
1171	6.62656e+02	1.17100e+03	8.73652e-02	6.61000e+02
1172	6.63679e+02	1.17200e+03	8.73558e-02	6.62000e+02
1173	6.64696e+02	1.17300e+03	8.73527e-02	6.63000e+02
1174	6.65679e+02	1.17400e+03	8.73551e-02	6.64000e+02
1175	6.66640e+02	1.17500e+03	8.73605e-02	6.65000e+02
1176	6.67629e+02	1.17600e+03	8.73828e-02	6.66000e+02
1177	6.68611e+02	1.17700e+03	8.73944e-02	6.67000e+02
1178	6.69589e+02	1.17800e+03	8.74026e-02	6.68000e+02
1179	6.70574e+02	1.17900e+03	8.74100e-02	6.69000e+02
1180	6.71553e+02	1.18000e+03	8.74140e-02	6.70000e+02
1181	6.72533e+02	1.18100e+03	8.74191e-02	6.71000e+02
1182	6.73522e+02	1.18200e+03	8.74239e-02	6.72000e+02
1183	6.74504e+02	1.18300e+03	8.74280e-02	6.73000e+02
1184	6.75509e+02	1.18400e+03	8.74338e-02	6.74000e+02
1185	6.75922e+02	1.18500e+03	8.74462e-02	6.75000e+02
1186	6.76315e+02	1.18600e+03	8.74640e-02	6.76000e+02
1187	6.76906e+02	1.18700e+03	8.74843e-02	6.77000e+02
1188	6.77605e+02	1.18800e+03	8.75273e-02	6.78000e+02
1189	6.78302e+02	1.18900e+03	8.75664e-02	6.79000e+02
1190	6.78946e+02	1.19000e+03	8.75997e-02	6.80000e+02
1191	6.79569e+02	1.19100e+03	8.76269e-02	6.81000e+02
1192	6.80203e+02	1.19200e+03	8.76630e-02	6.82000e+02
1193	6.80751e+02	1.19300e+03	8.76851e-02	6.83000e+02
1194	6.81284e+02	1.19400e+03	8.76968e-02	6.84000e+02
1195	6.81842e+02	1.19500e+03	8.77016e-02	6.85000e+02
1196	6.82421e+02	1.19600e+03	8.76805e-02	6.86000e+02
1197	6.82951e+02	1.19700e+03	8.76682e-02	6.87000e+02
1198	6.83452e+02	1.19800e+03	8.76556e-02	6.88000e+02
1199	6.83899e+02	1.19900e+03	8.76420e-02	6.89000e+02
1200	6.84392e+02	1.20000e+03	8.76217e-02	6.90000e+02
1201	6.84883e+02	1.20100e+03	8.76106e-02	6.91000e+02
1202	6.85312e+02	1.20200e+03	8.76052e-02	6.92000e+02
1203	6.85750e+02	1.20300e+03	8.76028e-02	6.93000e+02
1204	6.86179e+02	1.20400e+03	8.76112e-02	6.94000e+02
1205	6.86611e+02	1.20500e+03	8.76170e-02	6.95000e+02
1206	6.87033e+02	1.20600e+03	8.76255e-02	6.96000e+02
1207	6.87439e+02	1.20700e+03	8.76365e-02	6.97000e+02
1208	6.87847e+02	1.20800e+03	8.76585e-02	6.98000e+02
1209	6.88236e+02	1.20900e+03	8.76816e-02	6.99000e+02
1210	6.88595e+02	1.21000e+03	8.77099e-02	7.00000e+02