File: Experiments/TUBS/tga_nonisotherm/tga_dynamic_n2_dyn60_powder_6mg_r1.txt
index	ts	t	weight	tr
[#]	[°C]	[s]	[mg]	[°C]
643	1.30964e+02	6.43000e+02	5.97464e+00	1.33000e+02
644	1.32021e+02	6.44000e+02	5.97457e+00	1.34000e+02
645	1.33067e+02	6.45000e+02	5.97451e+00	1.35000e+02
646	1.34089e+02	6.46000e+02	5.97444e+00	1.36000e+02
647	1.35133e+02	6.47000e+02	5.97437e+00	1.37000e+02
648	1.36183e+02	6.48000e+02	5.97431e+00	1.38000e+02
649	1.37227e+02	6.49000e+02	5.97425e+00	1.39000e+02
650	1.38267e+02	6.50000e+02	5.97417e+00	1.40000e+02
651	1.39305e+02	6.51000e+02	5.97409e+00	1.41000e+02
652	1.40339e+02	6.52000e+02	5.97399e+00	1.42000e+02
653	1.41389e+02	6.53000e+02	5.97388e+00	1.43000e+02
654	1.42426e+02	6.54000e+02	5.97375e+00	1.44000e+02
655	1.43470e+02	6.55000e+02	5.97361e+00	1.45000e+02
656	1.44514e+02	6.56000e+02	5.97340e+00	1.46000e+02
657	1.45546e+02	6.57000e+02	5.97319e+00	1.47000e+02
658	1.46584e+02	6.58000e+02	5.97296e+00	1.48000e+02
659	1.47609e+02	6.59000e+02	5.97271e+00	1.49000e+02
660	1.48657e+02	6.60000e+02	5.97236e+00	1.50000e+02
661	1.49696e+02	6.61000e+02	5.97203e+00	1.51000e+02
662	1.50730e+02	6.62000e+02	5.97167e+00	1.52000e+02
663	1.51761e+02	6.63000e+02	5.97130e+00	1.53000e+02
664	1.52801e+02	6.64000e+02	5.97083e+00	1.54000e+02
665	1.53838e+02	6.65000e+02	5.97037e+00	1.55000e+02
666	1.54869e+02	6.66000e+02	5.96989e+00	1.56000e+02
667	1.55902e+02	6.67000e+02	5.96939e+00	1.57000e+02
668	1.56937e+02	6.68000e+02	5.96879e+00	1.58000e+02
669	1.57974e+02	6.69000e+02	5.96820e+00	1.59000e+02
670	1.58999e+02	6.70000e+02	5.96760e+00	1.60000e+02
671	1.60032e+02	6.71000e+02	5.96697e+00	1.61000e+02
672	1.61054e+02	6.72000e+02	5.96624e+00	1.62000e+02
673	1.62075e+02	6.73000e+02	5.96553e+00	1.63000e+02
674	1.63116e+02	6.74000e+02	5.96480e+00	1.64000e+02
675	1.64148e+02	6.75000e+02	5.96405e+00	1.65000e+02
676	1.65169e+02	6.76000e+02	5.96322e+00	1.66000e+02
677	1.66203e+02	6.77000e+02	5.96240e+00	1.67000e+02
678	1.67231e+02	6.78000e+02	5.96157e+00	1.68000e+02
679	1.68253e+02	6.79000e+02	5.96072e+00	1.69000e+02
680	1.69274e+02	6.80000e+02	5.95979e+00	1.70000e+02
681	1.70323e+02	6.81000e+02	5.95886e+00	1.71000e+02
682	1.71341e+02	6.82000e+02	5.95790e+00	1.72000e+02
683	1.72361e+02	6.83000e+02	5.95692e+00	1.73000e+02
684	1.73387e+02	6.84000e+02	5.95582e+00	1.74000e+02
685	1.74425e+02	6.85000e+02	5.95471e+00	1.75000e+02
686	1.75443e+02	6.86000e+02	5.95355e+00	1.76000e+02
687	1.76478e+02	6.87000e+02	5.95235e+00	1.77000e+02
688	1.77519e+02	6.88000e+02	5.95095e+00	1.78000e+02
689	1.78530e+02	6.89000e+02	5.94956e+00	1.79000e+02
690	1.79560e+02	6.90000e+02	5.94811e+00	1.80000e+02
691	1.80588e+02	6.91000e+02	5.94660e+00	1.81000e+02
692	1.81600e+02	6.92000e+02	5.94481e+00	1.82000e+02
693	1.82634e+02	6.93000e+02	5.94303e+00	1.83000e+02
694	1.83662e+02	6.94000e+02	5.94116e+00	1.84000e+02
695	1.84685e+02	6.95000e+02	5.93921e+00	1.85000e+02
696	1.85708e+02	6.96000e+02	5.93688e+00	1.86000e+02
697	1.86737e+02	6.97000e+02	5.93455e+00	1.87000e+02
698	1.87752e+02	6.98000e+02	5.93211e+00	1.88000e+02
699	1.88788e+02	6.99000e+02	5.92957e+00	1.89000e+02
700	1.89820e+02	7.00000e+02	5.92650e+00	1.90000e+02
701	1.90843e+02	7.01000e+02	5.92347e+00	1.91000e+02
702	1.91858e+02	7.02000e+02	5.92031e+00	1.92000e+02
703	1.92878e+02	7.03000e+02	5.91702e+00	1.93000e+02
704	1.93908e+02	7.04000e+02	5.91311e+00	1.94000e+02
705	1.94934e+02	7.05000e+02	5.90928e+00	1.95000e+02
706	1.95961e+02	7.06000e+02	5.90532e+00	1.96000e+02
707	1.96979e+02	7.07000e+02	5.90123e+00	1.97000e+02
708	1.97998e+02	7.08000e+02	5.89650e+00	1.98000e+02
709	1.99025e+02	7.09000e+02	5.89187e+00	1.99000e+02
710	2.00042e+02	7.10000e+02	5.88713e+00	2.00000e+02
711	2.01069e+02	7.11000e+02	5.88228e+00	2.01000e+02
712	2.02099e+02	7.12000e+02	5.87689e+00	2.02000e+02
713	2.03123e+02	7.13000e+02	5.87163e+00	2.03000e+02
714	2.04155e+02	7.14000e+02	5.86631e+00	2.04000e+02
715	2.05184e+02	7.15000e+02	5.86094e+00	2.05000e+02
716	2.06199e+02	7.16000e+02	5.85524e+00	2.06000e+02
717	2.07227e+02	7.17000e+02	5.84966e+00	2.07000e+02
718	2.08242e+02	7.18000e+02	5.84409e+00	2.08000e+02
719	2.09291e+02	7.19000e+02	5.83851e+00	2.09000e+02
720	2.10330e+02	7.20000e+02	5.83292e+00	2.10000e+02
721	2.11379e+02	7.21000e+02	5.82742e+00	2.11000e+02
722	2.12400e+02	7.22000e+02	5.82202e+00	2.12000e+02
723	2.13429e+02	7.23000e+02	5.81668e+00	2.13000e+02
724	2.14459e+02	7.24000e+02	5.81169e+00	2.14000e+02
725	2.15505e+02	7.25000e+02	5.80674e+00	2.15000e+02
726	2.16516e+02	7.26000e+02	5.80194e+00	2.16000e+02
727	2.17546e+02	7.27000e+02	5.79727e+00	2.17000e+02
728	2.18570e+02	7.28000e+02	5.79324e+00	2.18000e+02
729	2.19600e+02	7.29000e+02	5.78917e+00	2.19000e+02
730	2.20637e+02	7.30000e+02	5.78528e+00	2.20000e+02
731	2.21651e+02	7.31000e+02	5.78153e+00	2.21000e+02
732	2.22665e+02	7.32000e+02	5.77854e+00	2.22000e+02
733	2.23697e+02	7.33000e+02	5.77543e+00	2.23000e+02
734	2.24650e+02	7.34000e+02	5.77247e+00	2.24000e+02
735	2.25618e+02	7.35000e+02	5.76963e+00	2.25000e+02
736	2.26603e+02	7.36000e+02	5.76745e+00	2.26000e+02
737	2.27601e+02	7.37000e+02	5.76513e+00	2.27000e+02
738	2.28610e+02	7.38000e+02	5.76289e+00	2.28000e+02
739	2.29624e+02	7.39000e+02	5.76074e+00	2.29000e+02
740	2.30619e+02	7.40000e+02	5.75903e+00	2.30000e+02
741	2.31634e+02	7.41000e+02	5.75721e+00	2.31000e+02
742	2.32660e+02	7.42000e+02	5.75542e+00	2.32000e+02
743	2.33672e+02	7.43000e+02	5.75368e+00	2.33000e+02
744	2.34700e+02	7.44000e+02	5.75219e+00	2.34000e+02
745	2.35721e+02	7.45000e+02	5.75061e+00	2.35000e+02
746	2.36744e+02	7.46000e+02	5.74904e+00	2.36000e+02
747	2.37774e+02	7.47000e+02	5.74750e+00	2.37000e+02
748	2.38795e+02	7.48000e+02	5.74605e+00	2.38000e+02
749	2.39838e+02	7.49000e+02	5.74456e+00	2.39000e+02
750	2.40862e+02	7.50000e+02	5.74308e+00	2.40000e+02
751	2.41893e+02	7.51000e+02	5.74160e+00	2.41000e+02
752	2.42927e+02	7.52000e+02	5.74014e+00	2.42000e+02
753	2.43956e+02	7.53000e+02	5.73866e+00	2.43000e+02
754	2.44980e+02	7.54000e+02	5.73718e+00	2.44000e+02
755	2.45998e+02	7.55000e+02	5.73570e+00	2.45000e+02
756	2.47015e+02	7.56000e+02	5.73420e+00	2.46000e+02
757	2.48066e+02	7.57000e+02	5.73270e+00	2.47000e+02
758	2.49109e+02	7.58000e+02	5.73119e+00	2.48000e+02
759	2.50100e+02	7.59000e+02	5.72968e+00	2.49000e+02
760	2.51117e+02	7.60000e+02	5.72816e+00	2.50000e+02
761	2.52126e+02	7.61000e+02	5.72664e+00	2.51000e+02
762	2.53129e+02	7.62000e+02	5.72513e+00	2.52000e+02
763	2.54134e+02	7.63000e+02	5.72361e+00	2.53000e+02
764	2.55157e+02	7.64000e+02	5.72211e+00	2.54000e+02
765	2.56165e+02	7.65000e+02	5.72061e+00	2.55000e+02
766	2.57187e+02	7.66000e+02	5.71912e+00	2.56000e+02
767	2.58211e+02	7.67000e+02	5.71764e+00	2.57000e+02
768	2.59247e+02	7.68000e+02	5.71620e+00	2.58000e+02
769	2.60283e+02	7.69000e+02	5.71476e+00	2.59000e+02
770	2.61315e+02	7.70000e+02	5.71333e+00	2.60000e+02
771	2.62362e+02	7.71000e+02	5.71191e+00	2.61000e+02
772	2.63390e+02	7.72000e+02	5.71055e+00	2.62000e+02
773	2.64412e+02	7.73000e+02	5.70917e+00	2.63000e+02
774	2.65446e+02	7.74000e+02	5.70781e+00	2.64000e+02
775	2.66465e+02	7.75000e+02	5.70646e+00	2.65000e+02
776	2.67508e+02	7.76000e+02	5.70516e+00	2.66000e+02
777	2.68516e+02	7.77000e+02	5.70385e+00	2.67000e+02
778	2.69522e+02	7.78000e+02	5.70253e+00	2.68000e+02
779	2.70549e+02	7.79000e+02	5.70123e+00	2.69000e+02
780	2.71587e+02	7.80000e+02	5.69995e+00	2.70000e+02
781	2.72613e+02	7.81000e+02	5.69866e+00	2.71000e+02
782	2.73640e+02	7.82000e+02	5.69736e+00	2.72000e+02
783	2.74672e+02	7.83000e+02	5.69607e+00	2.73000e+02
784	2.75705e+02	7.84000e+02	5.69478e+00	2.74000e+02
785	2.76730e+02	7.85000e+02	5.69348e+00	2.75000e+02
786	2.77756e+02	7.86000e+02	5.69217e+00	2.76000e+02
787	2.78783e+02	7.87000e+02	5.69086e+00	2.77000e+02
788	2.79799e+02	7.88000e+02	5.68951e+00	2.78000e+02
789	2.80811e+02	7.89000e+02	5.68815e+00	2.79000e+02
790	2.81821e+02	7.90000e+02	5.68676e+00	2.80000e+02
791	2.82833e+02	7.91000e+02	5.68535e+00	2.81000e+02
792	2.83852e+02	7.92000e+02	5.68384e+00	2.82000e+02
793	2.84864e+02	7.93000e+02	5.68231e+00	2.83000e+02
794	2.85889e+02	7.94000e+02	5.68074e+00	2.84000e+02
795	2.86909e+02	7.95000e+02	5.67913e+00	2.85000e+02
796	2.87924e+02	7.96000e+02	5.67733e+00	2.86000e+02
797	2.88956e+02	7.97000e+02	5.67551e+00	2.87000e+02
798	2.89994e+02	7.98000e+02	5.67364e+00	2.88000e+02
799	2.91057e+02	7.99000e+02	5.67170e+00	2.89000e+02
800	2.92115e+02	8.00000e+02	5.66946e+00	2.90000e+02
801	2.93140e+02	8.01000e+02	5.66724e+00	2.91000e+02
802	2.94196e+02	8.02000e+02	5.66492e+00	2.92000e+02
803	2.95264e+02	8.03000e+02	5.66252e+00	2.93000e+02
804	2.96276e+02	8.04000e+02	5.65973e+00	2.94000e+02
805	2.97280e+02	8.05000e+02	5.65696e+00	2.95000e+02
806	2.98316e+02	8.06000e+02	5.65408e+00	2.96000e+02
807	2.99347e+02	8.07000e+02	5.65110e+00	2.97000e+02
808	3.00356e+02	8.08000e+02	5.64762e+00	2.98000e+02
809	3.01355e+02	8.09000e+02	5.64418e+00	2.99000e+02
810	3.02371e+02	8.10000e+02	5.64060e+00	3.00000e+02
811	3.03384e+02	8.11000e+02	5.63690e+00	3.01000e+02
812	3.04382e+02	8.12000e+02	5.63258e+00	3.02000e+02
813	3.05396e+02	8.13000e+02	5.62831e+00	3.03000e+02
814	3.06424e+02	8.14000e+02	5.62388e+00	3.04000e+02
815	3.07425e+02	8.15000e+02	5.61932e+00	3.05000e+02
816	3.08431e+02	8.16000e+02	5.61405e+00	3.06000e+02
817	3.09440e+02	8.17000e+02	5.60887e+00	3.07000e+02
818	3.10417e+02	8.18000e+02	5.60354e+00	3.08000e+02
819	3.11449e+02	8.19000e+02	5.59806e+00	3.09000e+02
820	3.12443e+02	8.20000e+02	5.59186e+00	3.10000e+02
821	3.13447e+02	8.21000e+02	5.58576e+00	3.11000e+02
822	3.14467e+02	8.22000e+02	5.57951e+00	3.12000e+02
823	3.15454e+02	8.23000e+02	5.57312e+00	3.13000e+02
824	3.16441e+02	8.24000e+02	5.56604e+00	3.14000e+02
825	3.17436e+02	8.25000e+02	5.55908e+00	3.15000e+02
826	3.18389e+02	8.26000e+02	5.55199e+00	3.16000e+02
827	3.19333e+02	8.27000e+02	5.54480e+00	3.17000e+02
828	3.20293e+02	8.28000e+02	5.53701e+00	3.18000e+02
829	3.21253e+02	8.29000e+02	5.52934e+00	3.19000e+02
830	3.22196e+02	8.30000e+02	5.52157e+00	3.20000e+02
831	3.23147e+02	8.31000e+02	5.51371e+00	3.21000e+02
832	3.24079e+02	8.32000e+02	5.50538e+00	3.22000e+02
833	3.24985e+02	8.33000e+02	5.49714e+00	3.23000e+02
834	3.25901e+02	8.34000e+02	5.48882e+00	3.24000e+02
835	3.26822e+02	8.35000e+02	5.48044e+00	3.25000e+02
836	3.27730e+02	8.36000e+02	5.47166e+00	3.26000e+02
837	3.28645e+02	8.37000e+02	5.46295e+00	3.27000e+02
838	3.29586e+02	8.38000e+02	5.45415e+00	3.28000e+02
839	3.30528e+02	8.39000e+02	5.44527e+00	3.29000e+02
840	3.31471e+02	8.40000e+02	5.43597e+00	3.30000e+02
841	3.32421e+02	8.41000e+02	5.42666e+00	3.31000e+02
842	3.33375e+02	8.42000e+02	5.41720e+00	3.32000e+02
843	3.34338e+02	8.43000e+02	5.40760e+00	3.33000e+02
844	3.35309e+02	8.44000e+02	5.39731e+00	3.34000e+02
845	3.36311e+02	8.45000e+02	5.38698e+00	3.35000e+02
846	3.37335e+02	8.46000e+02	5.37637e+00	3.36000e+02
847	3.38318e+02	8.47000e+02	5.36551e+00	3.37000e+02
848	3.39299e+02	8.48000e+02	5.35343e+00	3.38000e+02
849	3.40265e+02	8.49000e+02	5.34133e+00	3.39000e+02
850	3.41247e+02	8.50000e+02	5.32879e+00	3.40000e+02
851	3.42245e+02	8.51000e+02	5.31590e+00	3.41000e+02
852	3.43230e+02	8.52000e+02	5.30115e+00	3.42000e+02
853	3.44219e+02	8.53000e+02	5.28683e+00	3.43000e+02
854	3.45220e+02	8.54000e+02	5.27208e+00	3.44000e+02
855	3.46206e+02	8.55000e+02	5.25581e+00	3.45000e+02
856	3.47188e+02	8.56000e+02	5.23832e+00	3.46000e+02
857	3.48177e+02	8.57000e+02	5.22137e+00	3.47000e+02
858	3.49170e+02	8.58000e+02	5.20325e+00	3.48000e+02
859	3.50168e+02	8.59000e+02	5.18448e+00	3.49000e+02
860	3.51165e+02	8.60000e+02	5.16303e+00	3.50000e+02
861	3.52178e+02	8.61000e+02	5.14155e+00	3.51000e+02
862	3.53146e+02	8.62000e+02	5.11920e+00	3.52000e+02
863	3.54167e+02	8.63000e+02	5.09611e+00	3.53000e+02
864	3.55143e+02	8.64000e+02	5.07008e+00	3.54000e+02
865	3.56109e+02	8.65000e+02	5.04395e+00	3.55000e+02
866	3.57084e+02	8.66000e+02	5.01677e+00	3.56000e+02
867	3.58043e+02	8.67000e+02	4.98872e+00	3.57000e+02
868	3.59008e+02	8.68000e+02	4.95848e+00	3.58000e+02
869	3.59981e+02	8.69000e+02	4.92732e+00	3.59000e+02
870	3.60947e+02	8.70000e+02	4.89426e+00	3.60000e+02
871	3.61926e+02	8.71000e+02	4.85922e+00	3.61000e+02
872	3.62893e+02	8.72000e+02	4.82246e+00	3.62000e+02
873	3.63873e+02	8.73000e+02	4.78589e+00	3.63000e+02
874	3.64868e+02	8.74000e+02	4.74694e+00	3.64000e+02
875	3.65864e+02	8.75000e+02	4.70578e+00	3.65000e+02
876	3.66831e+02	8.76000e+02	4.66274e+00	3.66000e+02
877	3.67797e+02	8.77000e+02	4.61995e+00	3.67000e+02
878	3.68779e+02	8.78000e+02	4.57469e+00	3.68000e+02
879	3.69802e+02	8.79000e+02	4.52722e+00	3.69000e+02
880	3.70838e+02	8.80000e+02	4.47786e+00	3.70000e+02
881	3.71837e+02	8.81000e+02	4.42879e+00	3.71000e+02
882	3.73024e+02	8.82000e+02	4.37738e+00	3.72000e+02
883	3.74220e+02	8.83000e+02	4.32384e+00	3.73000e+02
884	3.75185e+02	8.84000e+02	4.26847e+00	3.74000e+02
885	3.76098e+02	8.85000e+02	4.21338e+00	3.75000e+02
886	3.77043e+02	8.86000e+02	4.15602e+00	3.76000e+02
887	3.77977e+02	8.87000e+02	4.09668e+00	3.77000e+02
888	3.78920e+02	8.88000e+02	4.03535e+00	3.78000e+02
889	3.79862e+02	8.89000e+02	3.97383e+00	3.79000e+02
890	3.80809e+02	8.90000e+02	3.91131e+00	3.80000e+02
891	3.81795e+02	8.91000e+02	3.84802e+00	3.81000e+02
892	3.82796e+02	8.92000e+02	3.78163e+00	3.82000e+02
893	3.83811e+02	8.93000e+02	3.71525e+00	3.83000e+02
894	3.84784e+02	8.94000e+02	3.64795e+00	3.84000e+02
895	3.85838e+02	8.95000e+02	3.57986e+00	3.85000e+02
896	3.87021e+02	8.96000e+02	3.50879e+00	3.86000e+02
897	3.87987e+02	8.97000e+02	3.43781e+00	3.87000e+02
898	3.88959e+02	8.98000e+02	3.36599e+00	3.88000e+02
899	3.89935e+02	8.99000e+02	3.29351e+00	3.89000e+02
900	3.90883e+02	9.00000e+02	3.21851e+00	3.90000e+02
901	3.91837e+02	9.01000e+02	3.14339e+00	3.91000e+02
902	3.92830e+02	9.02000e+02	3.06737e+00	3.92000e+02
903	3.93877e+02	9.03000e+02	2.99142e+00	3.93000e+02
904	3.94908e+02	9.04000e+02	2.91387e+00	3.94000e+02
905	3.95997e+02	9.05000e+02	2.83666e+00	3.95000e+02
906	3.96900e+02	9.06000e+02	2.75927e+00	3.96000e+02
907	3.97850e+02	9.07000e+02	2.68172e+00	3.97000e+02
908	3.98811e+02	9.08000e+02	2.60316e+00	3.98000e+02
909	4.00067e+02	9.09000e+02	2.52483e+00	3.99000e+02
910	4.01136e+02	9.10000e+02	2.44640e+00	4.00000e+02
911	4.02177e+02	9.11000e+02	2.36785e+00	4.01000e+02
912	4.03238e+02	9.12000e+02	2.28867e+00	4.02000e+02
913	4.04284e+02	9.13000e+02	2.20956e+00	4.03000e+02
914	4.05328e+02	9.14000e+02	2.13033e+00	4.04000e+02
915	4.06231e+02	9.15000e+02	2.05099e+00	4.05000e+02
916	4.07215e+02	9.16000e+02	1.97105e+00	4.06000e+02
917	4.08174e+02	9.17000e+02	1.89115e+00	4.07000e+02
918	4.09101e+02	9.18000e+02	1.81114e+00	4.08000e+02
919	4.10086e+02	9.19000e+02	1.73105e+00	4.09000e+02
920	4.11069e+02	9.20000e+02	1.65067e+00	4.10000e+02
921	4.12084e+02	9.21000e+02	1.57070e+00	4.11000e+02
922	4.13093e+02	9.22000e+02	1.49113e+00	4.12000e+02
923	4.14075e+02	9.23000e+02	1.41190e+00	4.13000e+02
924	4.15108e+02	9.24000e+02	1.33275e+00	4.14000e+02
925	4.16156e+02	9.25000e+02	1.25407e+00	4.15000e+02
926	4.17187e+02	9.26000e+02	1.17717e+00	4.16000e+02
927	4.18198e+02	9.27000e+02	1.10170e+00	4.17000e+02
928	4.19215e+02	9.28000e+02	1.02960e+00	4.18000e+02
929	4.20210e+02	9.29000e+02	9.58544e-01	4.19000e+02
930	4.21213e+02	9.30000e+02	8.90973e-01	4.20000e+02
931	4.22220e+02	9.31000e+02	8.23753e-01	4.21000e+02
932	4.23255e+02	9.32000e+02	7.62871e-01	4.22000e+02
933	4.24314e+02	9.33000e+02	7.04336e-01	4.23000e+02
934	4.25359e+02	9.34000e+02	6.49025e-01	4.24000e+02
935	4.26414e+02	9.35000e+02	5.95891e-01	4.25000e+02
936	4.27452e+02	9.36000e+02	5.48080e-01	4.26000e+02
937	4.28510e+02	9.37000e+02	5.02973e-01	4.27000e+02
938	4.29577e+02	9.38000e+02	4.61461e-01	4.28000e+02
939	4.30619e+02	9.39000e+02	4.21172e-01	4.29000e+02
940	4.31669e+02	9.40000e+02	3.84184e-01	4.30000e+02
941	4.32729e+02	9.41000e+02	3.50089e-01	4.31000e+02
942	4.33828e+02	9.42000e+02	3.19568e-01	4.32000e+02
943	4.34882e+02	9.43000e+02	2.90181e-01	4.33000e+02
944	4.35889e+02	9.44000e+02	2.64966e-01	4.34000e+02
945	4.36943e+02	9.45000e+02	2.40602e-01	4.35000e+02
946	4.37964e+02	9.46000e+02	2.18175e-01	4.36000e+02
947	4.39007e+02	9.47000e+02	1.97263e-01	4.37000e+02
948	4.40103e+02	9.48000e+02	1.79942e-01	4.38000e+02
949	4.41128e+02	9.49000e+02	1.63256e-01	4.39000e+02
950	4.42155e+02	9.50000e+02	1.48459e-01	4.40000e+02
951	4.43182e+02	9.51000e+02	1.35547e-01	4.41000e+02
952	4.44210e+02	9.52000e+02	1.24522e-01	4.42000e+02
953	4.45243e+02	9.53000e+02	1.13685e-01	4.43000e+02
954	4.46270e+02	9.54000e+02	1.03735e-01	4.44000e+02
955	4.47285e+02	9.55000e+02	9.44362e-02	4.45000e+02
956	4.48313e+02	9.56000e+02	8.77889e-02	4.46000e+02
957	4.49381e+02	9.57000e+02	8.12293e-02	4.47000e+02
958	4.50443e+02	9.58000e+02	7.55920e-02	4.48000e+02
959	4.51518e+02	9.59000e+02	6.99376e-02	4.49000e+02
960	4.52546e+02	9.60000e+02	6.60139e-02	4.50000e+02
961	4.53525e+02	9.61000e+02	6.18273e-02	4.51000e+02
962	4.54452e+02	9.62000e+02	5.79347e-02	4.52000e+02
963	4.55391e+02	9.63000e+02	5.42992e-02	4.53000e+02
964	4.56391e+02	9.64000e+02	5.20742e-02	4.54000e+02
965	4.57534e+02	9.65000e+02	4.95280e-02	4.55000e+02
966	4.58671e+02	9.66000e+02	4.71501e-02	4.56000e+02
967	4.59701e+02	9.67000e+02	4.49523e-02	4.57000e+02
968	4.60736e+02	9.68000e+02	4.36891e-02	4.58000e+02
969	4.61785e+02	9.69000e+02	4.21965e-02	4.59000e+02
970	4.62815e+02	9.70000e+02	4.08014e-02	4.60000e+02
971	4.63792e+02	9.71000e+02	3.95174e-02	4.61000e+02
972	4.64734e+02	9.72000e+02	3.88077e-02	4.62000e+02
973	4.65730e+02	9.73000e+02	3.79520e-02	4.63000e+02
974	4.66706e+02	9.74000e+02	3.71534e-02	4.64000e+02
975	4.67724e+02	9.75000e+02	3.64216e-02	4.65000e+02
976	4.68698e+02	9.76000e+02	3.60320e-02	4.66000e+02
977	4.69629e+02	9.77000e+02	3.55548e-02	4.67000e+02
978	4.70635e+02	9.78000e+02	3.51090e-02	4.68000e+02
979	4.71631e+02	9.79000e+02	3.47024e-02	4.69000e+02
980	4.72532e+02	9.80000e+02	3.44967e-02	4.70000e+02
981	4.73531e+02	9.81000e+02	3.42363e-02	4.71000e+02
982	4.74476e+02	9.82000e+02	3.39916e-02	4.72000e+02
983	4.75622e+02	9.83000e+02	3.37668e-02	4.73000e+02
984	4.76727e+02	9.84000e+02	3.36489e-02	4.74000e+02
985	4.77654e+02	9.85000e+02	3.34997e-02	4.75000e+02
986	4.78578e+02	9.86000e+02	3.33563e-02	4.76000e+02
987	4.79592e+02	9.87000e+02	3.32220e-02	4.77000e+02
988	4.80601e+02	9.88000e+02	3.31383e-02	4.78000e+02
989	4.81618e+02	9.89000e+02	3.30405e-02	4.79000e+02
990	4.82580e+02	9.90000e+02	3.29468e-02	4.80000e+02
991	4.83524e+02	9.91000e+02	3.28587e-02	4.81000e+02
992	4.84469e+02	9.92000e+02	3.27976e-02	4.82000e+02
993	4.85433e+02	9.93000e+02	3.27306e-02	4.83000e+02
994	4.86452e+02	9.94000e+02	3.26667e-02	4.84000e+02
995	4.87464e+02	9.95000e+02	3.26063e-02	4.85000e+02
996	4.88442e+02	9.96000e+02	3.25649e-02	4.86000e+02
997	4.89518e+02	9.97000e+02	3.25183e-02	4.87000e+02
998	4.90512e+02	9.98000e+02	3.24736e-02	4.88000e+02
999	4.91575e+02	9.99000e+02	3.24312e-02	4.89000e+02
1000	4.92620e+02	1.00000e+03	3.24024e-02	4.90000e+02
1001	4.93776e+02	1.00100e+03	3.23730e-02	4.91000e+02
1002	4.94734e+02	1.00200e+03	3.23479e-02	4.92000e+02
1003	4.95757e+02	1.00300e+03	3.23265e-02	4.93000e+02
1004	4.96728e+02	1.00400e+03	3.23206e-02	4.94000e+02
1005	4.97696e+02	1.00500e+03	3.23101e-02	4.95000e+02
1006	4.98628e+02	1.00600e+03	3.22985e-02	4.96000e+02
1007	4.99516e+02	1.00700e+03	3.22862e-02	4.97000e+02
1008	5.00415e+02	1.00800e+03	3.22742e-02	4.98000e+02
1009	5.01336e+02	1.00900e+03	3.22533e-02	4.99000e+02
1010	5.02293e+02	1.01000e+03	3.22266e-02	5.00000e+02
1011	5.03239e+02	1.01100e+03	3.21969e-02	5.01000e+02
1012	5.04185e+02	1.01200e+03	3.21485e-02	5.02000e+02
1013	5.05130e+02	1.01300e+03	3.21074e-02	5.03000e+02
1014	5.06119e+02	1.01400e+03	3.20687e-02	5.04000e+02
1015	5.07073e+02	1.01500e+03	3.20315e-02	5.05000e+02
1016	5.08015e+02	1.01600e+03	3.19943e-02	5.06000e+02
1017	5.08964e+02	1.01700e+03	3.19607e-02	5.07000e+02
1018	5.09926e+02	1.01800e+03	3.19301e-02	5.08000e+02
1019	5.10902e+02	1.01900e+03	3.19021e-02	5.09000e+02
1020	5.11873e+02	1.02000e+03	3.18880e-02	5.10000e+02
1021	5.12831e+02	1.02100e+03	3.18698e-02	5.11000e+02
1022	5.13820e+02	1.02200e+03	3.18510e-02	5.12000e+02
1023	5.14801e+02	1.02300e+03	3.18323e-02	5.13000e+02
1024	5.15760e+02	1.02400e+03	3.18145e-02	5.14000e+02
1025	5.16734e+02	1.02500e+03	3.17885e-02	5.15000e+02
1026	5.17702e+02	1.02600e+03	3.17561e-02	5.16000e+02
1027	5.18651e+02	1.02700e+03	3.17196e-02	5.17000e+02
1028	5.19625e+02	1.02800e+03	3.16642e-02	5.18000e+02
1029	5.20586e+02	1.02900e+03	3.16141e-02	5.19000e+02
1030	5.21551e+02	1.03000e+03	3.15655e-02	5.20000e+02
1031	5.22519e+02	1.03100e+03	3.15181e-02	5.21000e+02
1032	5.23486e+02	1.03200e+03	3.14657e-02	5.22000e+02
1033	5.24451e+02	1.03300e+03	3.14204e-02	5.23000e+02
1034	5.25421e+02	1.03400e+03	3.13777e-02	5.24000e+02
1035	5.26413e+02	1.03500e+03	3.13356e-02	5.25000e+02
1036	5.27370e+02	1.03600e+03	3.13033e-02	5.26000e+02
1037	5.28307e+02	1.03700e+03	3.12648e-02	5.27000e+02
1038	5.29283e+02	1.03800e+03	3.12244e-02	5.28000e+02
1039	5.30237e+02	1.03900e+03	3.11833e-02	5.29000e+02
1040	5.31182e+02	1.04000e+03	3.11375e-02	5.30000e+02
1041	5.32135e+02	1.04100e+03	3.10914e-02	5.31000e+02
1042	5.33096e+02	1.04200e+03	3.10446e-02	5.32000e+02
1043	5.34057e+02	1.04300e+03	3.09977e-02	5.33000e+02
1044	5.35028e+02	1.04400e+03	3.09498e-02	5.34000e+02
1045	5.35996e+02	1.04500e+03	3.09056e-02	5.35000e+02
1046	5.36954e+02	1.04600e+03	3.08632e-02	5.36000e+02
1047	5.37908e+02	1.04700e+03	3.08220e-02	5.37000e+02
1048	5.38859e+02	1.04800e+03	3.07876e-02	5.38000e+02
1049	5.39832e+02	1.04900e+03	3.07509e-02	5.39000e+02
1050	5.40774e+02	1.05000e+03	3.07147e-02	5.40000e+02
1051	5.41737e+02	1.05100e+03	3.06797e-02	5.41000e+02
1052	5.42709e+02	1.05200e+03	3.06464e-02	5.42000e+02
1053	5.43655e+02	1.05300e+03	3.06109e-02	5.43000e+02
1054	5.44601e+02	1.05400e+03	3.05731e-02	5.44000e+02
1055	5.45567e+02	1.05500e+03	3.05332e-02	5.45000e+02
1056	5.46526e+02	1.05600e+03	3.04889e-02	5.46000e+02
1057	5.47479e+02	1.05700e+03	3.04453e-02	5.47000e+02
1058	5.48438e+02	1.05800e+03	3.04024e-02	5.48000e+02
1059	5.49419e+02	1.05900e+03	3.03605e-02	5.49000e+02
1060	5.50400e+02	1.06000e+03	3.03219e-02	5.50000e+02
1061	5.51386e+02	1.06100e+03	3.02884e-02	5.51000e+02
1062	5.52365e+02	1.06200e+03	3.02576e-02	5.52000e+02
1063	5.53328e+02	1.06300e+03	3.02283e-02	5.53000e+02
1064	5.54298e+02	1.06400e+03	3.02168e-02	5.54000e+02
1065	5.55248e+02	1.06500e+03	3.02010e-02	5.55000e+02
1066	5.56205e+02	1.06600e+03	3.01861e-02	5.56000e+02
1067	5.57146e+02	1.06700e+03	3.01725e-02	5.57000e+02
1068	5.58107e+02	1.06800e+03	3.01634e-02	5.58000e+02
1069	5.59056e+02	1.06900e+03	3.01483e-02	5.59000e+02
1070	5.60054e+02	1.07000e+03	3.01295e-02	5.60000e+02
1071	5.61039e+02	1.07100e+03	3.01088e-02	5.61000e+02
1072	5.61997e+02	1.07200e+03	3.00782e-02	5.62000e+02
1073	5.62955e+02	1.07300e+03	3.00484e-02	5.63000e+02
1074	5.63951e+02	1.07400e+03	3.00173e-02	5.64000e+02
1075	5.64941e+02	1.07500e+03	2.99855e-02	5.65000e+02
1076	5.65917e+02	1.07600e+03	2.99490e-02	5.66000e+02
1077	5.66918e+02	1.07700e+03	2.99181e-02	5.67000e+02
1078	5.67956e+02	1.07800e+03	2.98896e-02	5.68000e+02
1079	5.69036e+02	1.07900e+03	2.98622e-02	5.69000e+02
1080	5.70082e+02	1.08000e+03	2.98414e-02	5.70000e+02
1081	5.71087e+02	1.08100e+03	2.98162e-02	5.71000e+02
1082	5.72046e+02	1.08200e+03	2.97885e-02	5.72000e+02
1083	5.73051e+02	1.08300e+03	2.97598e-02	5.73000e+02
1084	5.74043e+02	1.08400e+03	2.97272e-02	5.74000e+02
1085	5.75008e+02	1.08500e+03	2.96929e-02	5.75000e+02
1086	5.76024e+02	1.08600e+03	2.96573e-02	5.76000e+02
1087	5.77002e+02	1.08700e+03	2.96215e-02	5.77000e+02
1088	5.77961e+02	1.08800e+03	2.95808e-02	5.78000e+02
1089	5.78918e+02	1.08900e+03	2.95445e-02	5.79000e+02
1090	5.79906e+02	1.09000e+03	2.95101e-02	5.80000e+02
1091	5.80921e+02	1.09100e+03	2.94767e-02	5.81000e+02
1092	5.81911e+02	1.09200e+03	2.94496e-02	5.82000e+02
1093	5.82887e+02	1.09300e+03	2.94206e-02	5.83000e+02
1094	5.83904e+02	1.09400e+03	2.93912e-02	5.84000e+02
1095	5.84848e+02	1.09500e+03	2.93617e-02	5.85000e+02
1096	5.85809e+02	1.09600e+03	2.93329e-02	5.86000e+02
1097	5.86779e+02	1.09700e+03	2.93013e-02	5.87000e+02
1098	5.87755e+02	1.09800e+03	2.92683e-02	5.88000e+02
1099	5.88731e+02	1.09900e+03	2.92346e-02	5.89000e+02
1100	5.89761e+02	1.10000e+03	2.91967e-02	5.90000e+02
1101	5.90727e+02	1.10100e+03	2.91618e-02	5.91000e+02
1102	5.91688e+02	1.10200e+03	2.91280e-02	5.92000e+02
1103	5.92674e+02	1.10300e+03	2.90949e-02	5.93000e+02
1104	5.93701e+02	1.10400e+03	2.90659e-02	5.94000e+02
1105	5.94748e+02	1.10500e+03	2.90372e-02	5.95000e+02
1106	5.95726e+02	1.10600e+03	2.90091e-02	5.96000e+02
1107	5.96732e+02	1.10700e+03	2.89811e-02	5.97000e+02
1108	5.97700e+02	1.10800e+03	2.89575e-02	5.98000e+02
1109	5.98708e+02	1.10900e+03	2.89314e-02	5.99000e+02
1110	5.99634e+02	1.11000e+03	2.89049e-02	6.00000e+02
1111	6.00617e+02	1.11100e+03	2.88789e-02	6.01000e+02
1112	6.01578e+02	1.11200e+03	2.88549e-02	6.02000e+02
1113	6.02507e+02	1.11300e+03	2.88324e-02	6.03000e+02
1114	6.03486e+02	1.11400e+03	2.88108e-02	6.04000e+02
1115	6.04426e+02	1.11500e+03	2.87895e-02	6.05000e+02
1116	6.05421e+02	1.11600e+03	2.87713e-02	6.06000e+02
1117	6.06396e+02	1.11700e+03	2.87501e-02	6.07000e+02
1118	6.07364e+02	1.11800e+03	2.87272e-02	6.08000e+02
1119	6.08335e+02	1.11900e+03	2.87034e-02	6.09000e+02
1120	6.09276e+02	1.12000e+03	2.86757e-02	6.10000e+02
1121	6.10186e+02	1.12100e+03	2.86497e-02	6.11000e+02
1122	6.11122e+02	1.12200e+03	2.86245e-02	6.12000e+02
1123	6.12046e+02	1.12300e+03	2.86001e-02	6.13000e+02
1124	6.12955e+02	1.12400e+03	2.85763e-02	6.14000e+02
1125	6.13872e+02	1.12500e+03	2.85540e-02	6.15000e+02
1126	6.14805e+02	1.12600e+03	2.85322e-02	6.16000e+02
1127	6.15810e+02	1.12700e+03	2.85105e-02	6.17000e+02
1128	6.16719e+02	1.12800e+03	2.84931e-02	6.18000e+02
1129	6.17687e+02	1.12900e+03	2.84743e-02	6.19000e+02
1130	6.18643e+02	1.13000e+03	2.84551e-02	6.20000e+02
1131	6.19584e+02	1.13100e+03	2.84352e-02	6.21000e+02
1132	6.20575e+02	1.13200e+03	2.84127e-02	6.22000e+02
1133	6.21569e+02	1.13300e+03	2.83882e-02	6.23000e+02
1134	6.22513e+02	1.13400e+03	2.83624e-02	6.24000e+02
1135	6.23456e+02	1.13500e+03	2.83365e-02	6.25000e+02
1136	6.24424e+02	1.13600e+03	2.83088e-02	6.26000e+02
1137	6.25415e+02	1.13700e+03	2.82866e-02	6.27000e+02
1138	6.26397e+02	1.13800e+03	2.82688e-02	6.28000e+02
1139	6.27385e+02	1.13900e+03	2.82534e-02	6.29000e+02
1140	6.28360e+02	1.14000e+03	2.82478e-02	6.30000e+02
1141	6.29320e+02	1.14100e+03	2.82376e-02	6.31000e+02
1142	6.30292e+02	1.14200e+03	2.82236e-02	6.32000e+02
1143	6.31273e+02	1.14300e+03	2.82062e-02	6.33000e+02
1144	6.32239e+02	1.14400e+03	2.81796e-02	6.34000e+02
1145	6.33234e+02	1.14500e+03	2.81461e-02	6.35000e+02
1146	6.34209e+02	1.14600e+03	2.81065e-02	6.36000e+02
1147	6.35188e+02	1.14700e+03	2.80634e-02	6.37000e+02
1148	6.36170e+02	1.14800e+03	2.80009e-02	6.38000e+02
1149	6.37139e+02	1.14900e+03	2.79534e-02	6.39000e+02
1150	6.38100e+02	1.15000e+03	2.79111e-02	6.40000e+02
1151	6.39074e+02	1.15100e+03	2.78709e-02	6.41000e+02
1152	6.40058e+02	1.15200e+03	2.78435e-02	6.42000e+02
1153	6.41048e+02	1.15300e+03	2.78161e-02	6.43000e+02
1154	6.42038e+02	1.15400e+03	2.77919e-02	6.44000e+02
1155	6.43017e+02	1.15500e+03	2.77699e-02	6.45000e+02
1156	6.44001e+02	1.15600e+03	2.77629e-02	6.46000e+02
1157	6.44987e+02	1.15700e+03	2.77510e-02	6.47000e+02
1158	6.45969e+02	1.15800e+03	2.77383e-02	6.48000e+02
1159	6.46956e+02	1.15900e+03	2.77253e-02	6.49000e+02
1160	6.47945e+02	1.16000e+03	2.77147e-02	6.50000e+02
1161	6.48929e+02	1.16100e+03	2.77034e-02	6.51000e+02
1162	6.49917e+02	1.16200e+03	2.76945e-02	6.52000e+02
1163	6.50902e+02	1.16300e+03	2.76873e-02	6.53000e+02
1164	6.51885e+02	1.16400e+03	2.76822e-02	6.54000e+02
1165	6.52863e+02	1.16500e+03	2.76800e-02	6.55000e+02
1166	6.53851e+02	1.16600e+03	2.76792e-02	6.56000e+02
1167	6.54819e+02	1.16700e+03	2.76781e-02	6.57000e+02
1168	6.55807e+02	1.16800e+03	2.76787e-02	6.58000e+02
1169	6.56790e+02	1.16900e+03	2.76738e-02	6.59000e+02
1170	6.57778e+02	1.17000e+03	2.76664e-02	6.60000e+02
1171	6.58767e+02	1.17100e+03	2.76577e-02	6.61000e+02
1172	6.59760e+02	1.17200e+03	2.76376e-02	6.62000e+02
1173	6.60744e+02	1.17300e+03	2.76213e-02	6.63000e+02
1174	6.61743e+02	1.17400e+03	2.76061e-02	6.64000e+02
1175	6.62746e+02	1.17500e+03	2.75915e-02	6.65000e+02
1176	6.63758e+02	1.17600e+03	2.75767e-02	6.66000e+02
1177	6.64783e+02	1.17700e+03	2.75650e-02	6.67000e+02
1178	6.65802e+02	1.17800e+03	2.75569e-02	6.68000e+02
1179	6.66826e+02	1.17900e+03	2.75514e-02	6.69000e+02
1180	6.67820e+02	1.18000e+03	2.75555e-02	6.70000e+02
1181	6.68821e+02	1.18100e+03	2.75580e-02	6.71000e+02
1182	6.69829e+02	1.18200e+03	2.75620e-02	6.72000e+02
1183	6.70808e+02	1.18300e+03	2.75678e-02	6.73000e+02
1184	6.71827e+02	1.18400e+03	2.75861e-02	6.74000e+02
1185	6.72153e+02	1.18500e+03	2.76035e-02	6.75000e+02
1186	6.72471e+02	1.18600e+03	2.76231e-02	6.76000e+02
1187	6.73042e+02	1.18700e+03	2.76434e-02	6.77000e+02
1188	6.73759e+02	1.18800e+03	2.76818e-02	6.78000e+02
1189	6.74540e+02	1.18900e+03	2.77145e-02	6.79000e+02
1190	6.75367e+02	1.19000e+03	2.77392e-02	6.80000e+02
1191	6.76225e+02	1.19100e+03	2.77570e-02	6.81000e+02
1192	6.77006e+02	1.19200e+03	2.77753e-02	6.82000e+02
1193	6.77669e+02	1.19300e+03	2.77827e-02	6.83000e+02
1194	6.78368e+02	1.19400e+03	2.77797e-02	6.84000e+02
1195	6.79037e+02	1.19500e+03	2.77702e-02	6.85000e+02
1196	6.79703e+02	1.19600e+03	2.77352e-02	6.86000e+02
1197	6.80362e+02	1.19700e+03	2.77115e-02	6.87000e+02
1198	6.80979e+02	1.19800e+03	2.76906e-02	6.88000e+02
1199	6.81572e+02	1.19900e+03	2.76714e-02	6.89000e+02
1200	6.82153e+02	1.20000e+03	2.76545e-02	6.90000e+02
1201	6.82726e+02	1.20100e+03	2.76448e-02	6.91000e+02
1202	6.83307e+02	1.20200e+03	2.76412e-02	6.92000e+02
1203	6.83847e+02	1.20300e+03	2.76413e-02	6.93000e+02
1204	6.84374e+02	1.20400e+03	2.76568e-02	6.94000e+02
1205	6.84842e+02	1.20500e+03	2.76634e-02	6.95000e+02
1206	6.85361e+02	1.20600e+03	2.76694e-02	6.96000e+02
1207	6.85840e+02	1.20700e+03	2.76765e-02	6.97000e+02
1208	6.86347e+02	1.20800e+03	2.76828e-02	6.98000e+02
1209	6.86866e+02	1.20900e+03	2.76895e-02	6.99000e+02
1210	6.87322e+02	1.21000e+03	2.76972e-02	7.00000e+02