File: Experiments/TUBS/tga_nonisotherm/tga_dynamic_n2_dyn10_piece_3mg_r3.txt
index	ts	t	weight	tr
[#]	[°C]	[s]	[mg]	[°C]
843	1.30318e+02	8.43000e+02	2.98309e+00	1.30500e+02
847	1.31006e+02	8.47000e+02	2.98309e+00	1.31167e+02
851	1.31675e+02	8.51000e+02	2.98302e+00	1.31833e+02
855	1.32351e+02	8.55000e+02	2.98297e+00	1.32500e+02
859	1.33017e+02	8.59000e+02	2.98298e+00	1.33167e+02
863	1.33701e+02	8.63000e+02	2.98296e+00	1.33833e+02
867	1.34363e+02	8.67000e+02	2.98286e+00	1.34500e+02
871	1.35035e+02	8.71000e+02	2.98273e+00	1.35167e+02
875	1.35711e+02	8.75000e+02	2.98264e+00	1.35833e+02
879	1.36386e+02	8.79000e+02	2.98252e+00	1.36500e+02
883	1.37060e+02	8.83000e+02	2.98242e+00	1.37167e+02
887	1.37731e+02	8.87000e+02	2.98241e+00	1.37833e+02
891	1.38392e+02	8.91000e+02	2.98239e+00	1.38500e+02
895	1.39075e+02	8.95000e+02	2.98238e+00	1.39167e+02
899	1.39749e+02	8.99000e+02	2.98238e+00	1.39833e+02
903	1.40429e+02	9.03000e+02	2.98235e+00	1.40500e+02
907	1.41106e+02	9.07000e+02	2.98226e+00	1.41167e+02
911	1.41769e+02	9.11000e+02	2.98220e+00	1.41833e+02
915	1.42435e+02	9.15000e+02	2.98220e+00	1.42500e+02
919	1.43124e+02	9.19000e+02	2.98215e+00	1.43167e+02
923	1.43798e+02	9.23000e+02	2.98188e+00	1.43833e+02
927	1.44465e+02	9.27000e+02	2.98174e+00	1.44500e+02
931	1.45150e+02	9.31000e+02	2.98207e+00	1.45167e+02
935	1.45820e+02	9.35000e+02	2.98228e+00	1.45833e+02
939	1.46483e+02	9.39000e+02	2.98205e+00	1.46500e+02
943	1.47166e+02	9.43000e+02	2.98179e+00	1.47167e+02
947	1.47839e+02	9.47000e+02	2.98167e+00	1.47833e+02
951	1.48527e+02	9.51000e+02	2.98158e+00	1.48500e+02
955	1.49195e+02	9.55000e+02	2.98152e+00	1.49167e+02
959	1.49877e+02	9.59000e+02	2.98144e+00	1.49833e+02
963	1.50545e+02	9.63000e+02	2.98121e+00	1.50500e+02
967	1.51219e+02	9.67000e+02	2.98102e+00	1.51167e+02
971	1.51883e+02	9.71000e+02	2.98101e+00	1.51833e+02
975	1.52562e+02	9.75000e+02	2.98100e+00	1.52500e+02
979	1.53231e+02	9.79000e+02	2.98090e+00	1.53167e+02
983	1.53903e+02	9.83000e+02	2.98074e+00	1.53833e+02
987	1.54587e+02	9.87000e+02	2.98062e+00	1.54500e+02
991	1.55269e+02	9.91000e+02	2.98058e+00	1.55167e+02
995	1.55941e+02	9.95000e+02	2.98058e+00	1.55833e+02
999	1.56624e+02	9.99000e+02	2.98051e+00	1.56500e+02
1003	1.57301e+02	1.00300e+03	2.98037e+00	1.57167e+02
1007	1.57980e+02	1.00700e+03	2.98031e+00	1.57833e+02
1011	1.58664e+02	1.01100e+03	2.98026e+00	1.58500e+02
1015	1.59342e+02	1.01500e+03	2.98009e+00	1.59167e+02
1019	1.60003e+02	1.01900e+03	2.98001e+00	1.59833e+02
1023	1.60695e+02	1.02300e+03	2.98006e+00	1.60500e+02
1027	1.61373e+02	1.02700e+03	2.98009e+00	1.61167e+02
1031	1.62033e+02	1.03100e+03	2.98002e+00	1.61833e+02
1035	1.62732e+02	1.03500e+03	2.97981e+00	1.62500e+02
1039	1.63417e+02	1.03900e+03	2.97955e+00	1.63167e+02
1043	1.64082e+02	1.04300e+03	2.97944e+00	1.63833e+02
1047	1.64772e+02	1.04700e+03	2.97942e+00	1.64500e+02
1051	1.65441e+02	1.05100e+03	2.97935e+00	1.65167e+02
1055	1.66110e+02	1.05500e+03	2.97923e+00	1.65833e+02
1059	1.66799e+02	1.05900e+03	2.97910e+00	1.66500e+02
1063	1.67472e+02	1.06300e+03	2.97895e+00	1.67167e+02
1067	1.68152e+02	1.06700e+03	2.97884e+00	1.67833e+02
1071	1.68836e+02	1.07100e+03	2.97884e+00	1.68500e+02
1075	1.69522e+02	1.07500e+03	2.97885e+00	1.69167e+02
1079	1.70182e+02	1.07900e+03	2.97873e+00	1.69833e+02
1083	1.70864e+02	1.08300e+03	2.97852e+00	1.70500e+02
1087	1.71536e+02	1.08700e+03	2.97831e+00	1.71167e+02
1091	1.72222e+02	1.09100e+03	2.97809e+00	1.71833e+02
1095	1.72885e+02	1.09500e+03	2.97788e+00	1.72500e+02
1099	1.73562e+02	1.09900e+03	2.97778e+00	1.73167e+02
1103	1.74252e+02	1.10300e+03	2.97774e+00	1.73833e+02
1107	1.74911e+02	1.10700e+03	2.97759e+00	1.74500e+02
1111	1.75597e+02	1.11100e+03	2.97734e+00	1.75167e+02
1115	1.76275e+02	1.11500e+03	2.97709e+00	1.75833e+02
1119	1.76949e+02	1.11900e+03	2.97686e+00	1.76500e+02
1123	1.77624e+02	1.12300e+03	2.97670e+00	1.77167e+02
1127	1.78309e+02	1.12700e+03	2.97657e+00	1.77833e+02
1131	1.78975e+02	1.13100e+03	2.97633e+00	1.78500e+02
1135	1.79649e+02	1.13500e+03	2.97605e+00	1.79167e+02
1139	1.80335e+02	1.13900e+03	2.97576e+00	1.79833e+02
1143	1.81012e+02	1.14300e+03	2.97537e+00	1.80500e+02
1147	1.81685e+02	1.14700e+03	2.97500e+00	1.81167e+02
1151	1.82367e+02	1.15100e+03	2.97464e+00	1.81833e+02
1155	1.83049e+02	1.15500e+03	2.97421e+00	1.82500e+02
1159	1.83717e+02	1.15900e+03	2.97379e+00	1.83167e+02
1163	1.84385e+02	1.16300e+03	2.97344e+00	1.83833e+02
1167	1.85064e+02	1.16700e+03	2.97312e+00	1.84500e+02
1171	1.85743e+02	1.17100e+03	2.97271e+00	1.85167e+02
1175	1.86402e+02	1.17500e+03	2.97228e+00	1.85833e+02
1179	1.87080e+02	1.17900e+03	2.97189e+00	1.86500e+02
1183	1.87749e+02	1.18300e+03	2.97152e+00	1.87167e+02
1187	1.88426e+02	1.18700e+03	2.97109e+00	1.87833e+02
1191	1.89096e+02	1.19100e+03	2.97060e+00	1.88500e+02
1195	1.89772e+02	1.19500e+03	2.97014e+00	1.89167e+02
1199	1.90434e+02	1.19900e+03	2.96972e+00	1.89833e+02
1203	1.91098e+02	1.20300e+03	2.96933e+00	1.90500e+02
1207	1.91777e+02	1.20700e+03	2.96895e+00	1.91167e+02
1211	1.92445e+02	1.21100e+03	2.96839e+00	1.91833e+02
1215	1.93122e+02	1.21500e+03	2.96767e+00	1.92500e+02
1219	1.93787e+02	1.21900e+03	2.96703e+00	1.93167e+02
1223	1.94450e+02	1.22300e+03	2.96651e+00	1.93833e+02
1227	1.95138e+02	1.22700e+03	2.96595e+00	1.94500e+02
1231	1.95811e+02	1.23100e+03	2.96526e+00	1.95167e+02
1235	1.96469e+02	1.23500e+03	2.96453e+00	1.95833e+02
1239	1.97152e+02	1.23900e+03	2.96409e+00	1.96500e+02
1243	1.97813e+02	1.24300e+03	2.96384e+00	1.97167e+02
1247	1.98472e+02	1.24700e+03	2.96331e+00	1.97833e+02
1251	1.99152e+02	1.25100e+03	2.96260e+00	1.98500e+02
1255	1.99840e+02	1.25500e+03	2.96195e+00	1.99167e+02
1259	2.00506e+02	1.25900e+03	2.96130e+00	1.99833e+02
1263	2.01182e+02	1.26300e+03	2.96067e+00	2.00500e+02
1267	2.01841e+02	1.26700e+03	2.96010e+00	2.01167e+02
1271	2.02512e+02	1.27100e+03	2.95954e+00	2.01833e+02
1275	2.03190e+02	1.27500e+03	2.95899e+00	2.02500e+02
1279	2.03858e+02	1.27900e+03	2.95838e+00	2.03167e+02
1283	2.04537e+02	1.28300e+03	2.95777e+00	2.03833e+02
1287	2.05202e+02	1.28700e+03	2.95725e+00	2.04500e+02
1291	2.05881e+02	1.29100e+03	2.95666e+00	2.05167e+02
1295	2.06553e+02	1.29500e+03	2.95599e+00	2.05833e+02
1299	2.07232e+02	1.29900e+03	2.95537e+00	2.06500e+02
1303	2.07892e+02	1.30300e+03	2.95486e+00	2.07167e+02
1307	2.08562e+02	1.30700e+03	2.95435e+00	2.07833e+02
1311	2.09234e+02	1.31100e+03	2.95371e+00	2.08500e+02
1315	2.09903e+02	1.31500e+03	2.95291e+00	2.09167e+02
1319	2.10570e+02	1.31900e+03	2.95241e+00	2.09833e+02
1323	2.11245e+02	1.32300e+03	2.95221e+00	2.10500e+02
1327	2.11909e+02	1.32700e+03	2.95166e+00	2.11167e+02
1331	2.12583e+02	1.33100e+03	2.95080e+00	2.11833e+02
1335	2.13252e+02	1.33500e+03	2.95011e+00	2.12500e+02
1339	2.13931e+02	1.33900e+03	2.94960e+00	2.13167e+02
1343	2.14605e+02	1.34300e+03	2.94905e+00	2.13833e+02
1347	2.15271e+02	1.34700e+03	2.94843e+00	2.14500e+02
1351	2.15938e+02	1.35100e+03	2.94777e+00	2.15167e+02
1355	2.16588e+02	1.35500e+03	2.94712e+00	2.15833e+02
1359	2.17263e+02	1.35900e+03	2.94640e+00	2.16500e+02
1363	2.17913e+02	1.36300e+03	2.94564e+00	2.17167e+02
1367	2.18579e+02	1.36700e+03	2.94497e+00	2.17833e+02
1371	2.19227e+02	1.37100e+03	2.94436e+00	2.18500e+02
1375	2.19884e+02	1.37500e+03	2.94374e+00	2.19167e+02
1379	2.20557e+02	1.37900e+03	2.94306e+00	2.19833e+02
1383	2.21218e+02	1.38300e+03	2.94242e+00	2.20500e+02
1387	2.21878e+02	1.38700e+03	2.94188e+00	2.21167e+02
1391	2.22532e+02	1.39100e+03	2.94131e+00	2.21833e+02
1395	2.23188e+02	1.39500e+03	2.94059e+00	2.22500e+02
1399	2.23862e+02	1.39900e+03	2.93982e+00	2.23167e+02
1403	2.24533e+02	1.40300e+03	2.93912e+00	2.23833e+02
1407	2.25200e+02	1.40700e+03	2.93844e+00	2.24500e+02
1411	2.25864e+02	1.41100e+03	2.93776e+00	2.25167e+02
1415	2.26522e+02	1.41500e+03	2.93714e+00	2.25833e+02
1419	2.27203e+02	1.41900e+03	2.93647e+00	2.26500e+02
1423	2.27859e+02	1.42300e+03	2.93579e+00	2.27167e+02
1427	2.28530e+02	1.42700e+03	2.93513e+00	2.27833e+02
1431	2.29197e+02	1.43100e+03	2.93439e+00	2.28500e+02
1435	2.29865e+02	1.43500e+03	2.93364e+00	2.29167e+02
1439	2.30535e+02	1.43900e+03	2.93299e+00	2.29833e+02
1443	2.31210e+02	1.44300e+03	2.93245e+00	2.30500e+02
1447	2.31870e+02	1.44700e+03	2.93179e+00	2.31167e+02
1451	2.32544e+02	1.45100e+03	2.93106e+00	2.31833e+02
1455	2.33212e+02	1.45500e+03	2.93041e+00	2.32500e+02
1459	2.33888e+02	1.45900e+03	2.92969e+00	2.33167e+02
1463	2.34563e+02	1.46300e+03	2.92886e+00	2.33833e+02
1467	2.35224e+02	1.46700e+03	2.92811e+00	2.34500e+02
1471	2.35894e+02	1.47100e+03	2.92748e+00	2.35167e+02
1475	2.36583e+02	1.47500e+03	2.92680e+00	2.35833e+02
1479	2.37282e+02	1.47900e+03	2.92607e+00	2.36500e+02
1483	2.37941e+02	1.48300e+03	2.92530e+00	2.37167e+02
1487	2.38612e+02	1.48700e+03	2.92450e+00	2.37833e+02
1491	2.39272e+02	1.49100e+03	2.92374e+00	2.38500e+02
1495	2.39953e+02	1.49500e+03	2.92307e+00	2.39167e+02
1499	2.40633e+02	1.49900e+03	2.92242e+00	2.39833e+02
1503	2.41295e+02	1.50300e+03	2.92165e+00	2.40500e+02
1507	2.41983e+02	1.50700e+03	2.92084e+00	2.41167e+02
1511	2.42661e+02	1.51100e+03	2.92007e+00	2.41833e+02
1515	2.43364e+02	1.51500e+03	2.91927e+00	2.42500e+02
1519	2.44050e+02	1.51900e+03	2.91847e+00	2.43167e+02
1523	2.44770e+02	1.52300e+03	2.91780e+00	2.43833e+02
1527	2.45461e+02	1.52700e+03	2.91722e+00	2.44500e+02
1531	2.46155e+02	1.53100e+03	2.91645e+00	2.45167e+02
1535	2.46850e+02	1.53500e+03	2.91557e+00	2.45833e+02
1539	2.47520e+02	1.53900e+03	2.91476e+00	2.46500e+02
1543	2.48199e+02	1.54300e+03	2.91388e+00	2.47167e+02
1547	2.48872e+02	1.54700e+03	2.91298e+00	2.47833e+02
1551	2.49546e+02	1.55100e+03	2.91218e+00	2.48500e+02
1555	2.50229e+02	1.55500e+03	2.91148e+00	2.49167e+02
1559	2.50909e+02	1.55900e+03	2.91077e+00	2.49833e+02
1563	2.51580e+02	1.56300e+03	2.90995e+00	2.50500e+02
1567	2.52245e+02	1.56700e+03	2.90914e+00	2.51167e+02
1571	2.52920e+02	1.57100e+03	2.90833e+00	2.51833e+02
1575	2.53594e+02	1.57500e+03	2.90750e+00	2.52500e+02
1579	2.54267e+02	1.57900e+03	2.90666e+00	2.53167e+02
1583	2.54972e+02	1.58300e+03	2.90581e+00	2.53833e+02
1587	2.55634e+02	1.58700e+03	2.90497e+00	2.54500e+02
1591	2.56311e+02	1.59100e+03	2.90418e+00	2.55167e+02
1595	2.56976e+02	1.59500e+03	2.90348e+00	2.55833e+02
1599	2.57666e+02	1.59900e+03	2.90273e+00	2.56500e+02
1603	2.58334e+02	1.60300e+03	2.90182e+00	2.57167e+02
1607	2.59011e+02	1.60700e+03	2.90091e+00	2.57833e+02
1611	2.59695e+02	1.61100e+03	2.90011e+00	2.58500e+02
1615	2.60382e+02	1.61500e+03	2.89930e+00	2.59167e+02
1619	2.61063e+02	1.61900e+03	2.89846e+00	2.59833e+02
1623	2.61734e+02	1.62300e+03	2.89756e+00	2.60500e+02
1627	2.62424e+02	1.62700e+03	2.89664e+00	2.61167e+02
1631	2.63112e+02	1.63100e+03	2.89579e+00	2.61833e+02
1635	2.63863e+02	1.63500e+03	2.89496e+00	2.62500e+02
1639	2.64587e+02	1.63900e+03	2.89416e+00	2.63167e+02
1643	2.65313e+02	1.64300e+03	2.89332e+00	2.63833e+02
1647	2.66029e+02	1.64700e+03	2.89240e+00	2.64500e+02
1651	2.66711e+02	1.65100e+03	2.89146e+00	2.65167e+02
1655	2.67407e+02	1.65500e+03	2.89058e+00	2.65833e+02
1659	2.68094e+02	1.65900e+03	2.88969e+00	2.66500e+02
1663	2.68784e+02	1.66300e+03	2.88874e+00	2.67167e+02
1667	2.69477e+02	1.66700e+03	2.88777e+00	2.67833e+02
1671	2.70154e+02	1.67100e+03	2.88678e+00	2.68500e+02
1675	2.70828e+02	1.67500e+03	2.88573e+00	2.69167e+02
1679	2.71528e+02	1.67900e+03	2.88467e+00	2.69833e+02
1683	2.72209e+02	1.68300e+03	2.88368e+00	2.70500e+02
1687	2.72884e+02	1.68700e+03	2.88270e+00	2.71167e+02
1691	2.73573e+02	1.69100e+03	2.88173e+00	2.71833e+02
1695	2.74250e+02	1.69500e+03	2.88081e+00	2.72500e+02
1699	2.74944e+02	1.69900e+03	2.87984e+00	2.73167e+02
1703	2.75631e+02	1.70300e+03	2.87876e+00	2.73833e+02
1707	2.76316e+02	1.70700e+03	2.87765e+00	2.74500e+02
1711	2.77016e+02	1.71100e+03	2.87650e+00	2.75167e+02
1715	2.77694e+02	1.71500e+03	2.87526e+00	2.75833e+02
1719	2.78375e+02	1.71900e+03	2.87406e+00	2.76500e+02
1723	2.79060e+02	1.72300e+03	2.87296e+00	2.77167e+02
1727	2.79745e+02	1.72700e+03	2.87191e+00	2.77833e+02
1731	2.80442e+02	1.73100e+03	2.87084e+00	2.78500e+02
1735	2.81119e+02	1.73500e+03	2.86969e+00	2.79167e+02
1739	2.81842e+02	1.73900e+03	2.86846e+00	2.79833e+02
1743	2.82528e+02	1.74300e+03	2.86723e+00	2.80500e+02
1747	2.83192e+02	1.74700e+03	2.86600e+00	2.81167e+02
1751	2.83876e+02	1.75100e+03	2.86477e+00	2.81833e+02
1755	2.84554e+02	1.75500e+03	2.86347e+00	2.82500e+02
1759	2.85213e+02	1.75900e+03	2.86212e+00	2.83167e+02
1763	2.85875e+02	1.76300e+03	2.86079e+00	2.83833e+02
1767	2.86506e+02	1.76700e+03	2.85945e+00	2.84500e+02
1771	2.87168e+02	1.77100e+03	2.85806e+00	2.85167e+02
1775	2.87849e+02	1.77500e+03	2.85661e+00	2.85833e+02
1779	2.88493e+02	1.77900e+03	2.85511e+00	2.86500e+02
1783	2.89189e+02	1.78300e+03	2.85356e+00	2.87167e+02
1787	2.89841e+02	1.78700e+03	2.85201e+00	2.87833e+02
1791	2.90506e+02	1.79100e+03	2.85047e+00	2.88500e+02
1795	2.91180e+02	1.79500e+03	2.84886e+00	2.89167e+02
1799	2.91850e+02	1.79900e+03	2.84711e+00	2.89833e+02
1803	2.92509e+02	1.80300e+03	2.84540e+00	2.90500e+02
1807	2.93151e+02	1.80700e+03	2.84373e+00	2.91167e+02
1811	2.93822e+02	1.81100e+03	2.84195e+00	2.91833e+02
1815	2.94498e+02	1.81500e+03	2.84013e+00	2.92500e+02
1819	2.95181e+02	1.81900e+03	2.83846e+00	2.93167e+02
1823	2.95861e+02	1.82300e+03	2.83678e+00	2.93833e+02
1827	2.96539e+02	1.82700e+03	2.83485e+00	2.94500e+02
1831	2.97224e+02	1.83100e+03	2.83286e+00	2.95167e+02
1835	2.97896e+02	1.83500e+03	2.83088e+00	2.95833e+02
1839	2.98569e+02	1.83900e+03	2.82886e+00	2.96500e+02
1843	2.99251e+02	1.84300e+03	2.82685e+00	2.97167e+02
1847	2.99905e+02	1.84700e+03	2.82484e+00	2.97833e+02
1851	3.00555e+02	1.85100e+03	2.82287e+00	2.98500e+02
1855	3.01210e+02	1.85500e+03	2.82088e+00	2.99167e+02
1859	3.01885e+02	1.85900e+03	2.81877e+00	2.99833e+02
1863	3.02536e+02	1.86300e+03	2.81660e+00	3.00500e+02
1867	3.03199e+02	1.86700e+03	2.81446e+00	3.01167e+02
1871	3.03864e+02	1.87100e+03	2.81234e+00	3.01833e+02
1875	3.04536e+02	1.87500e+03	2.81010e+00	3.02500e+02
1879	3.05205e+02	1.87900e+03	2.80780e+00	3.03167e+02
1883	3.05880e+02	1.88300e+03	2.80554e+00	3.03833e+02
1887	3.06558e+02	1.88700e+03	2.80326e+00	3.04500e+02
1891	3.07227e+02	1.89100e+03	2.80097e+00	3.05167e+02
1895	3.07898e+02	1.89500e+03	2.79867e+00	3.05833e+02
1899	3.08531e+02	1.89900e+03	2.79635e+00	3.06500e+02
1903	3.09231e+02	1.90300e+03	2.79408e+00	3.07167e+02
1907	3.09913e+02	1.90700e+03	2.79179e+00	3.07833e+02
1911	3.10587e+02	1.91100e+03	2.78927e+00	3.08500e+02
1915	3.11262e+02	1.91500e+03	2.78674e+00	3.09167e+02
1919	3.11957e+02	1.91900e+03	2.78451e+00	3.09833e+02
1923	3.12626e+02	1.92300e+03	2.78230e+00	3.10500e+02
1927	3.13272e+02	1.92700e+03	2.77992e+00	3.11167e+02
1931	3.13912e+02	1.93100e+03	2.77744e+00	3.11833e+02
1935	3.14565e+02	1.93500e+03	2.77502e+00	3.12500e+02
1939	3.15208e+02	1.93900e+03	2.77269e+00	3.13167e+02
1943	3.15871e+02	1.94300e+03	2.77018e+00	3.13833e+02
1947	3.16556e+02	1.94700e+03	2.76753e+00	3.14500e+02
1951	3.17222e+02	1.95100e+03	2.76502e+00	3.15167e+02
1955	3.17895e+02	1.95500e+03	2.76253e+00	3.15833e+02
1959	3.18571e+02	1.95900e+03	2.75982e+00	3.16500e+02
1963	3.19232e+02	1.96300e+03	2.75701e+00	3.17167e+02
1967	3.19863e+02	1.96700e+03	2.75422e+00	3.17833e+02
1971	3.20516e+02	1.97100e+03	2.75143e+00	3.18500e+02
1975	3.21173e+02	1.97500e+03	2.74865e+00	3.19167e+02
1979	3.21808e+02	1.97900e+03	2.74572e+00	3.19833e+02
1983	3.22475e+02	1.98300e+03	2.74251e+00	3.20500e+02
1987	3.23127e+02	1.98700e+03	2.73921e+00	3.21167e+02
1991	3.23820e+02	1.99100e+03	2.73605e+00	3.21833e+02
1995	3.24426e+02	1.99500e+03	2.73289e+00	3.22500e+02
1999	3.25062e+02	1.99900e+03	2.72947e+00	3.23167e+02
2003	3.25690e+02	2.00300e+03	2.72593e+00	3.23833e+02
2007	3.26325e+02	2.00700e+03	2.72236e+00	3.24500e+02
2011	3.26975e+02	2.01100e+03	2.71863e+00	3.25167e+02
2015	3.27612e+02	2.01500e+03	2.71475e+00	3.25833e+02
2019	3.28276e+02	2.01900e+03	2.71082e+00	3.26500e+02
2023	3.28924e+02	2.02300e+03	2.70669e+00	3.27167e+02
2027	3.29578e+02	2.02700e+03	2.70236e+00	3.27833e+02
2031	3.30239e+02	2.03100e+03	2.69794e+00	3.28500e+02
2035	3.30890e+02	2.03500e+03	2.69328e+00	3.29167e+02
2039	3.31543e+02	2.03900e+03	2.68845e+00	3.29833e+02
2043	3.32209e+02	2.04300e+03	2.68378e+00	3.30500e+02
2047	3.32866e+02	2.04700e+03	2.67898e+00	3.31167e+02
2051	3.33521e+02	2.05100e+03	2.67349e+00	3.31833e+02
2055	3.34173e+02	2.05500e+03	2.66738e+00	3.32500e+02
2059	3.34836e+02	2.05900e+03	2.66131e+00	3.33167e+02
2063	3.35495e+02	2.06300e+03	2.65563e+00	3.33833e+02
2067	3.36167e+02	2.06700e+03	2.64974e+00	3.34500e+02
2071	3.36821e+02	2.07100e+03	2.64302e+00	3.35167e+02
2075	3.37500e+02	2.07500e+03	2.63562e+00	3.35833e+02
2079	3.38154e+02	2.07900e+03	2.62793e+00	3.36500e+02
2083	3.38819e+02	2.08300e+03	2.62009e+00	3.37167e+02
2087	3.39485e+02	2.08700e+03	2.61199e+00	3.37833e+02
2091	3.40152e+02	2.09100e+03	2.60352e+00	3.38500e+02
2095	3.40837e+02	2.09500e+03	2.59469e+00	3.39167e+02
2099	3.41522e+02	2.09900e+03	2.58532e+00	3.39833e+02
2103	3.42182e+02	2.10300e+03	2.57482e+00	3.40500e+02
2107	3.42846e+02	2.10700e+03	2.56282e+00	3.41167e+02
2111	3.43520e+02	2.11100e+03	2.54928e+00	3.41833e+02
2115	3.44189e+02	2.11500e+03	2.53452e+00	3.42500e+02
2119	3.44872e+02	2.11900e+03	2.51953e+00	3.43167e+02
2123	3.45544e+02	2.12300e+03	2.50478e+00	3.43833e+02
2127	3.46215e+02	2.12700e+03	2.48991e+00	3.44500e+02
2131	3.46906e+02	2.13100e+03	2.47470e+00	3.45167e+02
2135	3.47542e+02	2.13500e+03	2.45932e+00	3.45833e+02
2139	3.48213e+02	2.13900e+03	2.44370e+00	3.46500e+02
2143	3.48882e+02	2.14300e+03	2.42729e+00	3.47167e+02
2147	3.49544e+02	2.14700e+03	2.40946e+00	3.47833e+02
2151	3.50209e+02	2.15100e+03	2.39039e+00	3.48500e+02
2155	3.50893e+02	2.15500e+03	2.37061e+00	3.49167e+02
2159	3.51637e+02	2.15900e+03	2.35027e+00	3.49833e+02
2163	3.52339e+02	2.16300e+03	2.32932e+00	3.50500e+02
2167	3.53024e+02	2.16700e+03	2.30763e+00	3.51167e+02
2171	3.53676e+02	2.17100e+03	2.28482e+00	3.51833e+02
2175	3.54360e+02	2.17500e+03	2.26095e+00	3.52500e+02
2179	3.55065e+02	2.17900e+03	2.23658e+00	3.53167e+02
2183	3.55798e+02	2.18300e+03	2.21181e+00	3.53833e+02
2187	3.56497e+02	2.18700e+03	2.18649e+00	3.54500e+02
2191	3.57213e+02	2.19100e+03	2.16056e+00	3.55167e+02
2195	3.57889e+02	2.19500e+03	2.13395e+00	3.55833e+02
2199	3.58592e+02	2.19900e+03	2.10667e+00	3.56500e+02
2203	3.59256e+02	2.20300e+03	2.07852e+00	3.57167e+02
2207	3.59923e+02	2.20700e+03	2.04937e+00	3.57833e+02
2211	3.60595e+02	2.21100e+03	2.01934e+00	3.58500e+02
2215	3.61252e+02	2.21500e+03	1.98871e+00	3.59167e+02
2219	3.61927e+02	2.21900e+03	1.95746e+00	3.59833e+02
2223	3.62633e+02	2.22300e+03	1.92544e+00	3.60500e+02
2227	3.63330e+02	2.22700e+03	1.89251e+00	3.61167e+02
2231	3.63999e+02	2.23100e+03	1.85881e+00	3.61833e+02
2235	3.64653e+02	2.23500e+03	1.82458e+00	3.62500e+02
2239	3.65325e+02	2.23900e+03	1.78985e+00	3.63167e+02
2243	3.65978e+02	2.24300e+03	1.75471e+00	3.63833e+02
2247	3.66646e+02	2.24700e+03	1.71904e+00	3.64500e+02
2251	3.67285e+02	2.25100e+03	1.68263e+00	3.65167e+02
2255	3.67943e+02	2.25500e+03	1.64577e+00	3.65833e+02
2259	3.68596e+02	2.25900e+03	1.60898e+00	3.66500e+02
2263	3.69261e+02	2.26300e+03	1.57201e+00	3.67167e+02
2267	3.69963e+02	2.26700e+03	1.53437e+00	3.67833e+02
2271	3.70621e+02	2.27100e+03	1.49616e+00	3.68500e+02
2275	3.71271e+02	2.27500e+03	1.45776e+00	3.69167e+02
2279	3.71908e+02	2.27900e+03	1.41941e+00	3.69833e+02
2283	3.72590e+02	2.28300e+03	1.38102e+00	3.70500e+02
2287	3.73279e+02	2.28700e+03	1.34243e+00	3.71167e+02
2291	3.73953e+02	2.29100e+03	1.30389e+00	3.71833e+02
2295	3.74614e+02	2.29500e+03	1.26580e+00	3.72500e+02
2299	3.75307e+02	2.29900e+03	1.22842e+00	3.73167e+02
2303	3.75988e+02	2.30300e+03	1.19220e+00	3.73833e+02
2307	3.76682e+02	2.30700e+03	1.15724e+00	3.74500e+02
2311	3.77410e+02	2.31100e+03	1.12227e+00	3.75167e+02
2315	3.78189e+02	2.31500e+03	1.08569e+00	3.75833e+02
2319	3.78924e+02	2.31900e+03	1.04772e+00	3.76500e+02
2323	3.79623e+02	2.32300e+03	1.00965e+00	3.77167e+02
2327	3.80394e+02	2.32700e+03	9.72102e-01	3.77833e+02
2331	3.81109e+02	2.33100e+03	9.35067e-01	3.78500e+02
2335	3.81795e+02	2.33500e+03	8.98160e-01	3.79167e+02
2339	3.82464e+02	2.33900e+03	8.61149e-01	3.79833e+02
2343	3.83103e+02	2.34300e+03	8.24327e-01	3.80500e+02
2347	3.83790e+02	2.34700e+03	7.88004e-01	3.81167e+02
2351	3.84450e+02	2.35100e+03	7.51976e-01	3.81833e+02
2355	3.85191e+02	2.35500e+03	7.16377e-01	3.82500e+02
2359	3.85916e+02	2.35900e+03	6.81616e-01	3.83167e+02
2363	3.86582e+02	2.36300e+03	6.47533e-01	3.83833e+02
2367	3.87259e+02	2.36700e+03	6.13775e-01	3.84500e+02
2371	3.87927e+02	2.37100e+03	5.81082e-01	3.85167e+02
2375	3.88575e+02	2.37500e+03	5.50095e-01	3.85833e+02
2379	3.89234e+02	2.37900e+03	5.20185e-01	3.86500e+02
2383	3.89913e+02	2.38300e+03	4.91013e-01	3.87167e+02
2387	3.90537e+02	2.38700e+03	4.63091e-01	3.87833e+02
2391	3.91155e+02	2.39100e+03	4.36498e-01	3.88500e+02
2395	3.91871e+02	2.39500e+03	4.10852e-01	3.89167e+02
2399	3.92540e+02	2.39900e+03	3.86293e-01	3.89833e+02
2403	3.93190e+02	2.40300e+03	3.62908e-01	3.90500e+02
2407	3.93810e+02	2.40700e+03	3.40660e-01	3.91167e+02
2411	3.94406e+02	2.41100e+03	3.19642e-01	3.91833e+02
2415	3.95034e+02	2.41500e+03	2.99760e-01	3.92500e+02
2419	3.95632e+02	2.41900e+03	2.80843e-01	3.93167e+02
2423	3.96251e+02	2.42300e+03	2.62927e-01	3.93833e+02
2427	3.96891e+02	2.42700e+03	2.46084e-01	3.94500e+02
2431	3.97534e+02	2.43100e+03	2.30256e-01	3.95167e+02
2435	3.98186e+02	2.43500e+03	2.15289e-01	3.95833e+02
2439	3.98862e+02	2.43900e+03	2.01148e-01	3.96500e+02
2443	3.99533e+02	2.44300e+03	1.87936e-01	3.97167e+02
2447	4.00167e+02	2.44700e+03	1.75576e-01	3.97833e+02
2451	4.00839e+02	2.45100e+03	1.64053e-01	3.98500e+02
2455	4.01537e+02	2.45500e+03	1.53444e-01	3.99167e+02
2459	4.02165e+02	2.45900e+03	1.43703e-01	3.99833e+02
2463	4.02826e+02	2.46300e+03	1.34580e-01	4.00500e+02
2467	4.03551e+02	2.46700e+03	1.25849e-01	4.01167e+02
2471	4.04261e+02	2.47100e+03	1.17714e-01	4.01833e+02
2475	4.04877e+02	2.47500e+03	1.10415e-01	4.02500e+02
2479	4.05546e+02	2.47900e+03	1.03744e-01	4.03167e+02
2483	4.06212e+02	2.48300e+03	9.74222e-02	4.03833e+02
2487	4.06811e+02	2.48700e+03	9.14212e-02	4.04500e+02
2491	4.07407e+02	2.49100e+03	8.58195e-02	4.05167e+02
2495	4.08073e+02	2.49500e+03	8.06594e-02	4.05833e+02
2499	4.08772e+02	2.49900e+03	7.58570e-02	4.06500e+02
2503	4.09393e+02	2.50300e+03	7.13057e-02	4.07167e+02
2507	4.10063e+02	2.50700e+03	6.70020e-02	4.07833e+02
2511	4.10711e+02	2.51100e+03	6.29765e-02	4.08500e+02
2515	4.11300e+02	2.51500e+03	5.91946e-02	4.09167e+02
2519	4.11994e+02	2.51900e+03	5.56464e-02	4.09833e+02
2523	4.12620e+02	2.52300e+03	5.23449e-02	4.10500e+02
2527	4.13201e+02	2.52700e+03	4.92783e-02	4.11167e+02
2531	4.13810e+02	2.53100e+03	4.64063e-02	4.11833e+02
2535	4.14431e+02	2.53500e+03	4.37038e-02	4.12500e+02
2539	4.15259e+02	2.53900e+03	4.11853e-02	4.13167e+02
2543	4.15937e+02	2.54300e+03	3.88208e-02	4.13833e+02
2547	4.16565e+02	2.54700e+03	3.65654e-02	4.14500e+02
2551	4.17260e+02	2.55100e+03	3.44286e-02	4.15167e+02
2555	4.17951e+02	2.55500e+03	3.23943e-02	4.15833e+02
2559	4.18560e+02	2.55900e+03	3.04451e-02	4.16500e+02
2563	4.19221e+02	2.56300e+03	2.85618e-02	4.17167e+02
2567	4.19762e+02	2.56700e+03	2.67719e-02	4.17833e+02
2571	4.20360e+02	2.57100e+03	2.50903e-02	4.18500e+02
2575	4.20923e+02	2.57500e+03	2.34520e-02	4.19167e+02
2579	4.21574e+02	2.57900e+03	2.18774e-02	4.19833e+02
2583	4.22235e+02	2.58300e+03	2.03956e-02	4.20500e+02
2587	4.22905e+02	2.58700e+03	1.89442e-02	4.21167e+02
2591	4.23566e+02	2.59100e+03	1.75239e-02	4.21833e+02
2595	4.24199e+02	2.59500e+03	1.61842e-02	4.22500e+02
2599	4.24794e+02	2.59900e+03	1.48708e-02	4.23167e+02
2603	4.25398e+02	2.60300e+03	1.35408e-02	4.23833e+02
2607	4.26003e+02	2.60700e+03	1.22492e-02	4.24500e+02
2611	4.26689e+02	2.61100e+03	1.10355e-02	4.25167e+02
2615	4.27299e+02	2.61500e+03	9.91132e-03	4.25833e+02
2619	4.27902e+02	2.61900e+03	8.94583e-03	4.26500e+02
2623	4.28508e+02	2.62300e+03	8.13572e-03	4.27167e+02
2627	4.29145e+02	2.62700e+03	7.33647e-03	4.27833e+02
2631	4.29786e+02	2.63100e+03	6.52354e-03	4.28500e+02
2635	4.30427e+02	2.63500e+03	5.74786e-03	4.29167e+02
2639	4.31063e+02	2.63900e+03	4.99279e-03	4.29833e+02
2643	4.31707e+02	2.64300e+03	4.24434e-03	4.30500e+02
2647	4.32357e+02	2.64700e+03	3.55944e-03	4.31167e+02
2651	4.33006e+02	2.65100e+03	3.01600e-03	4.31833e+02
2655	4.33650e+02	2.65500e+03	2.56993e-03	4.32500e+02
2659	4.34315e+02	2.65900e+03	2.15505e-03	4.33167e+02
2663	4.34968e+02	2.66300e+03	1.77020e-03	4.33833e+02
2667	4.35621e+02	2.66700e+03	1.42554e-03	4.34500e+02
2671	4.36266e+02	2.67100e+03	1.14369e-03	4.35167e+02
2675	4.36924e+02	2.67500e+03	9.01500e-04	4.35833e+02
2679	4.37576e+02	2.67900e+03	6.67659e-04	4.36500e+02
2683	4.38231e+02	2.68300e+03	4.33928e-04	4.37167e+02
2687	4.38895e+02	2.68700e+03	2.45009e-04	4.37833e+02
2691	4.39545e+02	2.69100e+03	1.14120e-04	4.38500e+02
2695	4.40201e+02	2.69500e+03	-3.63713e-05	4.39167e+02
2699	4.40860e+02	2.69900e+03	-1.85961e-04	4.39833e+02
2703	4.41524e+02	2.70300e+03	-2.88973e-04	4.40500e+02
2707	4.42192e+02	2.70700e+03	-3.92435e-04	4.41167e+02
2711	4.42851e+02	2.71100e+03	-5.72923e-04	4.41833e+02
2715	4.43517e+02	2.71500e+03	-7.98229e-04	4.42500e+02
2719	4.44183e+02	2.71900e+03	-9.68592e-04	4.43167e+02
2723	4.44830e+02	2.72300e+03	-1.01524e-03	4.43833e+02
2727	4.45501e+02	2.72700e+03	-1.03534e-03	4.44500e+02
2731	4.46180e+02	2.73100e+03	-1.07600e-03	4.45167e+02
2735	4.46842e+02	2.73500e+03	-1.06921e-03	4.45833e+02
2739	4.47515e+02	2.73900e+03	-1.09489e-03	4.46500e+02
2743	4.48193e+02	2.74300e+03	-1.22844e-03	4.47167e+02
2747	4.48879e+02	2.74700e+03	-1.36594e-03	4.47833e+02
2751	4.49574e+02	2.75100e+03	-1.42535e-03	4.48500e+02
2755	4.50253e+02	2.75500e+03	-1.51426e-03	4.49167e+02
2759	4.50932e+02	2.75900e+03	-1.64227e-03	4.49833e+02
2763	4.51609e+02	2.76300e+03	-1.70603e-03	4.50500e+02
2767	4.52271e+02	2.76700e+03	-1.71527e-03	4.51167e+02
2771	4.52933e+02	2.77100e+03	-1.73521e-03	4.51833e+02
2775	4.53596e+02	2.77500e+03	-1.82964e-03	4.52500e+02
2779	4.54272e+02	2.77900e+03	-1.99037e-03	4.53167e+02
2783	4.54959e+02	2.78300e+03	-2.13524e-03	4.53833e+02
2787	4.55632e+02	2.78700e+03	-2.22166e-03	4.54500e+02
2791	4.56304e+02	2.79100e+03	-2.23030e-03	4.55167e+02
2795	4.56936e+02	2.79500e+03	-2.23723e-03	4.55833e+02
2799	4.57578e+02	2.79900e+03	-2.29443e-03	4.56500e+02
2803	4.58216e+02	2.80300e+03	-2.39477e-03	4.57167e+02
2807	4.58853e+02	2.80700e+03	-2.48162e-03	4.57833e+02
2811	4.59486e+02	2.81100e+03	-2.50517e-03	4.58500e+02
2815	4.60144e+02	2.81500e+03	-2.55841e-03	4.59167e+02
2819	4.60789e+02	2.81900e+03	-2.65028e-03	4.59833e+02
2823	4.61438e+02	2.82300e+03	-2.69516e-03	4.60500e+02
2827	4.62118e+02	2.82700e+03	-2.70608e-03	4.61167e+02
2831	4.62769e+02	2.83100e+03	-2.73803e-03	4.61833e+02
2835	4.63417e+02	2.83500e+03	-2.80766e-03	4.62500e+02
2839	4.64089e+02	2.83900e+03	-2.91511e-03	4.63167e+02
2843	4.64738e+02	2.84300e+03	-2.98489e-03	4.63833e+02
2847	4.65393e+02	2.84700e+03	-2.94169e-03	4.64500e+02
2851	4.66040e+02	2.85100e+03	-2.88472e-03	4.65167e+02
2855	4.66677e+02	2.85500e+03	-2.93418e-03	4.65833e+02
2859	4.67328e+02	2.85900e+03	-3.03157e-03	4.66500e+02
2863	4.67985e+02	2.86300e+03	-3.10261e-03	4.67167e+02
2867	4.68639e+02	2.86700e+03	-3.12341e-03	4.67833e+02
2871	4.69293e+02	2.87100e+03	-3.13876e-03	4.68500e+02
2875	4.69946e+02	2.87500e+03	-3.16602e-03	4.69167e+02
2879	4.70602e+02	2.87900e+03	-3.13620e-03	4.69833e+02
2883	4.71260e+02	2.88300e+03	-3.09045e-03	4.70500e+02
2887	4.71945e+02	2.88700e+03	-3.16734e-03	4.71167e+02
2891	4.72629e+02	2.89100e+03	-3.28731e-03	4.71833e+02
2895	4.73319e+02	2.89500e+03	-3.30843e-03	4.72500e+02
2899	4.73987e+02	2.89900e+03	-3.34908e-03	4.73167e+02
2903	4.74605e+02	2.90300e+03	-3.43526e-03	4.73833e+02
2907	4.75222e+02	2.90700e+03	-3.43623e-03	4.74500e+02
2911	4.75825e+02	2.91100e+03	-3.38076e-03	4.75167e+02
2915	4.76466e+02	2.91500e+03	-3.34915e-03	4.75833e+02
2919	4.77132e+02	2.91900e+03	-3.36545e-03	4.76500e+02
2923	4.77803e+02	2.92300e+03	-3.50372e-03	4.77167e+02
2927	4.78441e+02	2.92700e+03	-3.61822e-03	4.77833e+02
2931	4.79096e+02	2.93100e+03	-3.54838e-03	4.78500e+02
2935	4.79741e+02	2.93500e+03	-3.46731e-03	4.79167e+02
2939	4.80373e+02	2.93900e+03	-3.47612e-03	4.79833e+02
2943	4.81008e+02	2.94300e+03	-3.43780e-03	4.80500e+02
2947	4.81651e+02	2.94700e+03	-3.40135e-03	4.81167e+02
2951	4.82281e+02	2.95100e+03	-3.46011e-03	4.81833e+02
2955	4.82937e+02	2.95500e+03	-3.48107e-03	4.82500e+02
2959	4.83561e+02	2.95900e+03	-3.48632e-03	4.83167e+02
2963	4.84000e+02	2.96300e+03	-3.60201e-03	4.83833e+02
2967	4.84506e+02	2.96700e+03	-3.71616e-03	4.84500e+02
2971	4.85097e+02	2.97100e+03	-3.72754e-03	4.85167e+02
2975	4.85721e+02	2.97500e+03	-3.72383e-03	4.85833e+02
2979	4.86339e+02	2.97900e+03	-3.79674e-03	4.86500e+02
2983	4.86964e+02	2.98300e+03	-3.93311e-03	4.87167e+02
2987	4.87590e+02	2.98700e+03	-4.00378e-03	4.87833e+02
2991	4.88223e+02	2.99100e+03	-3.93685e-03	4.88500e+02
2995	4.88867e+02	2.99500e+03	-3.83715e-03	4.89167e+02
2999	4.89510e+02	2.99900e+03	-3.78702e-03	4.89833e+02
3003	4.90156e+02	3.00300e+03	-3.75432e-03	4.90500e+02
3007	4.90807e+02	3.00700e+03	-3.67081e-03	4.91167e+02
3011	4.91451e+02	3.01100e+03	-3.61646e-03	4.91833e+02
3015	4.92115e+02	3.01500e+03	-3.62524e-03	4.92500e+02
3019	4.92744e+02	3.01900e+03	-3.63068e-03	4.93167e+02
3023	4.93414e+02	3.02300e+03	-3.64926e-03	4.93833e+02
3027	4.94054e+02	3.02700e+03	-3.64366e-03	4.94500e+02
3031	4.94719e+02	3.03100e+03	-3.69466e-03	4.95167e+02
3035	4.95371e+02	3.03500e+03	-3.87766e-03	4.95833e+02
3039	4.96020e+02	3.03900e+03	-3.97174e-03	4.96500e+02
3043	4.96679e+02	3.04300e+03	-3.91407e-03	4.97167e+02
3047	4.97331e+02	3.04700e+03	-3.91365e-03	4.97833e+02
3051	4.97993e+02	3.05100e+03	-3.97947e-03	4.98500e+02
3055	4.98643e+02	3.05500e+03	-4.00888e-03	4.99167e+02
3059	4.99294e+02	3.05900e+03	-3.98075e-03	4.99833e+02
3063	4.99944e+02	3.06300e+03	-3.96909e-03	5.00500e+02
3067	5.00608e+02	3.06700e+03	-3.98614e-03	5.01167e+02
3071	5.01263e+02	3.07100e+03	-3.94686e-03	5.01833e+02
3075	5.01910e+02	3.07500e+03	-3.90343e-03	5.02500e+02
3079	5.02568e+02	3.07900e+03	-3.97827e-03	5.03167e+02
3083	5.03226e+02	3.08300e+03	-4.06082e-03	5.03833e+02
3087	5.03881e+02	3.08700e+03	-4.03201e-03	5.04500e+02
3091	5.04532e+02	3.09100e+03	-4.02313e-03	5.05167e+02
3095	5.05182e+02	3.09500e+03	-4.04314e-03	5.05833e+02
3099	5.05841e+02	3.09900e+03	-4.00305e-03	5.06500e+02
3103	5.06502e+02	3.10300e+03	-3.95704e-03	5.07167e+02
3107	5.07143e+02	3.10700e+03	-3.92066e-03	5.07833e+02
3111	5.07809e+02	3.11100e+03	-3.90341e-03	5.08500e+02
3115	5.08459e+02	3.11500e+03	-3.93167e-03	5.09167e+02
3119	5.09109e+02	3.11900e+03	-4.00556e-03	5.09833e+02
3123	5.09765e+02	3.12300e+03	-4.08955e-03	5.10500e+02
3127	5.10425e+02	3.12700e+03	-4.10205e-03	5.11167e+02
3131	5.11081e+02	3.13100e+03	-4.04185e-03	5.11833e+02
3135	5.11729e+02	3.13500e+03	-3.98852e-03	5.12500e+02
3139	5.12392e+02	3.13900e+03	-3.94548e-03	5.13167e+02
3143	5.13043e+02	3.14300e+03	-3.91236e-03	5.13833e+02
3147	5.13703e+02	3.14700e+03	-3.91780e-03	5.14500e+02
3151	5.14356e+02	3.15100e+03	-3.89434e-03	5.15167e+02
3155	5.15013e+02	3.15500e+03	-3.84529e-03	5.15833e+02
3159	5.15661e+02	3.15900e+03	-3.88915e-03	5.16500e+02
3163	5.16316e+02	3.16300e+03	-4.01829e-03	5.17167e+02
3167	5.16974e+02	3.16700e+03	-4.11896e-03	5.17833e+02
3171	5.17634e+02	3.17100e+03	-4.13349e-03	5.18500e+02
3175	5.18281e+02	3.17500e+03	-4.08466e-03	5.19167e+02
3179	5.18924e+02	3.17900e+03	-4.06940e-03	5.19833e+02
3183	5.19581e+02	3.18300e+03	-4.11597e-03	5.20500e+02
3187	5.20234e+02	3.18700e+03	-4.15740e-03	5.21167e+02
3191	5.20891e+02	3.19100e+03	-4.19033e-03	5.21833e+02
3195	5.21542e+02	3.19500e+03	-4.23241e-03	5.22500e+02
3199	5.22205e+02	3.19900e+03	-4.24511e-03	5.23167e+02
3203	5.22846e+02	3.20300e+03	-4.21885e-03	5.23833e+02
3207	5.23507e+02	3.20700e+03	-4.12988e-03	5.24500e+02
3211	5.24168e+02	3.21100e+03	-4.00586e-03	5.25167e+02
3215	5.24809e+02	3.21500e+03	-4.02416e-03	5.25833e+02
3219	5.25469e+02	3.21900e+03	-4.13038e-03	5.26500e+02
3223	5.26128e+02	3.22300e+03	-4.15218e-03	5.27167e+02
3227	5.26784e+02	3.22700e+03	-4.17945e-03	5.27833e+02
3231	5.27437e+02	3.23100e+03	-4.24065e-03	5.28500e+02
3235	5.28113e+02	3.23500e+03	-4.26998e-03	5.29167e+02
3239	5.28763e+02	3.23900e+03	-4.25659e-03	5.29833e+02
3243	5.29411e+02	3.24300e+03	-4.22716e-03	5.30500e+02
3247	5.30071e+02	3.24700e+03	-4.22146e-03	5.31167e+02
3251	5.30736e+02	3.25100e+03	-4.24794e-03	5.31833e+02
3255	5.31388e+02	3.25500e+03	-4.26587e-03	5.32500e+02
3259	5.32048e+02	3.25900e+03	-4.24630e-03	5.33167e+02
3263	5.32705e+02	3.26300e+03	-4.20860e-03	5.33833e+02
3267	5.33365e+02	3.26700e+03	-4.17963e-03	5.34500e+02
3271	5.34024e+02	3.27100e+03	-4.16682e-03	5.35167e+02
3275	5.34676e+02	3.27500e+03	-4.23323e-03	5.35833e+02
3279	5.35333e+02	3.27900e+03	-4.37471e-03	5.36500e+02
3283	5.36003e+02	3.28300e+03	-4.45965e-03	5.37167e+02
3287	5.36653e+02	3.28700e+03	-4.45034e-03	5.37833e+02
3291	5.37316e+02	3.29100e+03	-4.36701e-03	5.38500e+02
3295	5.37972e+02	3.29500e+03	-4.29722e-03	5.39167e+02
3299	5.38622e+02	3.29900e+03	-4.27961e-03	5.39833e+02
3303	5.39289e+02	3.30300e+03	-4.27177e-03	5.40500e+02
3307	5.39943e+02	3.30700e+03	-4.26129e-03	5.41167e+02
3311	5.40596e+02	3.31100e+03	-4.26090e-03	5.41833e+02
3315	5.41248e+02	3.31500e+03	-4.38101e-03	5.42500e+02
3319	5.41896e+02	3.31900e+03	-4.60878e-03	5.43167e+02
3323	5.42557e+02	3.32300e+03	-4.64293e-03	5.43833e+02
3327	5.43201e+02	3.32700e+03	-4.33274e-03	5.44500e+02
3331	5.43875e+02	3.33100e+03	-4.00693e-03	5.45167e+02
3335	5.44514e+02	3.33500e+03	-4.00812e-03	5.45833e+02
3339	5.45185e+02	3.33900e+03	-4.22263e-03	5.46500e+02
3343	5.45854e+02	3.34300e+03	-4.37539e-03	5.47167e+02
3347	5.46520e+02	3.34700e+03	-4.39303e-03	5.47833e+02
3351	5.47180e+02	3.35100e+03	-4.34744e-03	5.48500e+02
3355	5.47842e+02	3.35500e+03	-4.30073e-03	5.49167e+02
3359	5.48498e+02	3.35900e+03	-4.28687e-03	5.49833e+02
3363	5.49175e+02	3.36300e+03	-4.30486e-03	5.50500e+02
3367	5.49823e+02	3.36700e+03	-4.31165e-03	5.51167e+02
3371	5.50491e+02	3.37100e+03	-4.34244e-03	5.51833e+02
3375	5.51158e+02	3.37500e+03	-4.41380e-03	5.52500e+02
3379	5.51819e+02	3.37900e+03	-4.43672e-03	5.53167e+02
3383	5.52490e+02	3.38300e+03	-4.38546e-03	5.53833e+02
3387	5.53173e+02	3.38700e+03	-4.32201e-03	5.54500e+02
3391	5.53870e+02	3.39100e+03	-4.28211e-03	5.55167e+02
3395	5.54532e+02	3.39500e+03	-4.31780e-03	5.55833e+02
3399	5.55190e+02	3.39900e+03	-4.45728e-03	5.56500e+02
3403	5.55855e+02	3.40300e+03	-4.54490e-03	5.57167e+02
3407	5.56529e+02	3.40700e+03	-4.49988e-03	5.57833e+02
3411	5.57174e+02	3.41100e+03	-4.44086e-03	5.58500e+02
3415	5.57833e+02	3.41500e+03	-4.48300e-03	5.59167e+02
3419	5.58498e+02	3.41900e+03	-4.50079e-03	5.59833e+02
3423	5.59152e+02	3.42300e+03	-4.41499e-03	5.60500e+02
3427	5.59827e+02	3.42700e+03	-4.38709e-03	5.61167e+02
3431	5.60534e+02	3.43100e+03	-4.49917e-03	5.61833e+02
3435	5.61222e+02	3.43500e+03	-4.62731e-03	5.62500e+02
3439	5.61918e+02	3.43900e+03	-4.63016e-03	5.63167e+02
3443	5.62593e+02	3.44300e+03	-4.55133e-03	5.63833e+02
3447	5.63253e+02	3.44700e+03	-4.45662e-03	5.64500e+02
3451	5.63914e+02	3.45100e+03	-4.42679e-03	5.65167e+02
3455	5.64591e+02	3.45500e+03	-4.49876e-03	5.65833e+02
3459	5.65260e+02	3.45900e+03	-4.54059e-03	5.66500e+02
3463	5.65932e+02	3.46300e+03	-4.52852e-03	5.67167e+02
3467	5.66579e+02	3.46700e+03	-4.52758e-03	5.67833e+02
3471	5.67206e+02	3.47100e+03	-4.54811e-03	5.68500e+02
3475	5.67846e+02	3.47500e+03	-4.60556e-03	5.69167e+02
3479	5.68493e+02	3.47900e+03	-4.63775e-03	5.69833e+02
3483	5.69168e+02	3.48300e+03	-4.63259e-03	5.70500e+02
3487	5.69831e+02	3.48700e+03	-4.58514e-03	5.71167e+02
3491	5.70497e+02	3.49100e+03	-4.51912e-03	5.71833e+02
3495	5.71158e+02	3.49500e+03	-4.53453e-03	5.72500e+02
3499	5.71809e+02	3.49900e+03	-4.58536e-03	5.73167e+02
3503	5.72474e+02	3.50300e+03	-4.56193e-03	5.73833e+02
3507	5.73135e+02	3.50700e+03	-4.55893e-03	5.74500e+02
3511	5.73796e+02	3.51100e+03	-4.70476e-03	5.75167e+02
3515	5.74457e+02	3.51500e+03	-4.84243e-03	5.75833e+02
3519	5.75139e+02	3.51900e+03	-4.82910e-03	5.76500e+02
3523	5.75805e+02	3.52300e+03	-4.73206e-03	5.77167e+02
3527	5.76450e+02	3.52700e+03	-4.67300e-03	5.77833e+02
3531	5.77111e+02	3.53100e+03	-4.72932e-03	5.78500e+02
3535	5.77764e+02	3.53500e+03	-4.78745e-03	5.79167e+02
3539	5.78417e+02	3.53900e+03	-4.77031e-03	5.79833e+02
3543	5.79073e+02	3.54300e+03	-4.73577e-03	5.80500e+02
3547	5.79714e+02	3.54700e+03	-4.71348e-03	5.81167e+02
3551	5.80378e+02	3.55100e+03	-4.68723e-03	5.81833e+02
3555	5.81049e+02	3.55500e+03	-4.70500e-03	5.82500e+02
3559	5.81702e+02	3.55900e+03	-4.75518e-03	5.83167e+02
3563	5.82350e+02	3.56300e+03	-4.74401e-03	5.83833e+02
3567	5.83026e+02	3.56700e+03	-4.71143e-03	5.84500e+02
3571	5.83698e+02	3.57100e+03	-4.69152e-03	5.85167e+02
3575	5.84346e+02	3.57500e+03	-4.74914e-03	5.85833e+02
3579	5.84998e+02	3.57900e+03	-4.79958e-03	5.86500e+02
3583	5.85677e+02	3.58300e+03	-4.74405e-03	5.87167e+02
3587	5.86346e+02	3.58700e+03	-4.67463e-03	5.87833e+02
3591	5.87003e+02	3.59100e+03	-4.68371e-03	5.88500e+02
3595	5.87667e+02	3.59500e+03	-4.81475e-03	5.89167e+02
3599	5.88319e+02	3.59900e+03	-4.98125e-03	5.89833e+02
3603	5.88983e+02	3.60300e+03	-5.09952e-03	5.90500e+02
3607	5.89638e+02	3.60700e+03	-5.10023e-03	5.91167e+02
3611	5.90311e+02	3.61100e+03	-4.99248e-03	5.91833e+02
3615	5.90974e+02	3.61500e+03	-4.85869e-03	5.92500e+02
3619	5.91637e+02	3.61900e+03	-4.76381e-03	5.93167e+02
3623	5.92301e+02	3.62300e+03	-4.71093e-03	5.93833e+02
3627	5.92961e+02	3.62700e+03	-4.67582e-03	5.94500e+02
3631	5.93625e+02	3.63100e+03	-4.65326e-03	5.95167e+02
3635	5.94282e+02	3.63500e+03	-4.63024e-03	5.95833e+02
3639	5.94946e+02	3.63900e+03	-4.62720e-03	5.96500e+02
3643	5.95615e+02	3.64300e+03	-4.65837e-03	5.97167e+02
3647	5.96275e+02	3.64700e+03	-4.70757e-03	5.97833e+02
3651	5.96937e+02	3.65100e+03	-4.71586e-03	5.98500e+02
3655	5.97593e+02	3.65500e+03	-4.67799e-03	5.99167e+02
3659	5.98254e+02	3.65900e+03	-4.63460e-03	5.99833e+02
3663	5.98924e+02	3.66300e+03	-4.72582e-03	6.00500e+02
3667	5.99583e+02	3.66700e+03	-4.93160e-03	6.01167e+02
3671	6.00250e+02	3.67100e+03	-5.04482e-03	6.01833e+02
3675	6.00926e+02	3.67500e+03	-5.02441e-03	6.02500e+02
3679	6.01589e+02	3.67900e+03	-4.97270e-03	6.03167e+02
3683	6.02240e+02	3.68300e+03	-4.97982e-03	6.03833e+02
3687	6.02910e+02	3.68700e+03	-4.99073e-03	6.04500e+02
3691	6.03590e+02	3.69100e+03	-4.97312e-03	6.05167e+02
3695	6.04260e+02	3.69500e+03	-4.96012e-03	6.05833e+02
3699	6.04919e+02	3.69900e+03	-4.99558e-03	6.06500e+02
3703	6.05579e+02	3.70300e+03	-5.07051e-03	6.07167e+02
3707	6.06232e+02	3.70700e+03	-5.06371e-03	6.07833e+02
3711	6.06887e+02	3.71100e+03	-5.04223e-03	6.08500e+02
3715	6.07544e+02	3.71500e+03	-5.03976e-03	6.09167e+02
3719	6.08206e+02	3.71900e+03	-4.97340e-03	6.09833e+02
3723	6.08871e+02	3.72300e+03	-4.90891e-03	6.10500e+02
3727	6.09540e+02	3.72700e+03	-4.91823e-03	6.11167e+02
3731	6.10200e+02	3.73100e+03	-4.97699e-03	6.11833e+02
3735	6.10871e+02	3.73500e+03	-5.01845e-03	6.12500e+02
3739	6.11523e+02	3.73900e+03	-4.98633e-03	6.13167e+02
3743	6.12183e+02	3.74300e+03	-4.95460e-03	6.13833e+02
3747	6.12841e+02	3.74700e+03	-5.02576e-03	6.14500e+02
3751	6.13515e+02	3.75100e+03	-5.12772e-03	6.15167e+02
3755	6.14165e+02	3.75500e+03	-5.16604e-03	6.15833e+02
3759	6.14835e+02	3.75900e+03	-5.16904e-03	6.16500e+02
3763	6.15484e+02	3.76300e+03	-5.19013e-03	6.17167e+02
3767	6.16157e+02	3.76700e+03	-5.20520e-03	6.17833e+02
3771	6.16795e+02	3.77100e+03	-5.18945e-03	6.18500e+02
3775	6.17460e+02	3.77500e+03	-5.18563e-03	6.19167e+02
3779	6.18123e+02	3.77900e+03	-5.24204e-03	6.19833e+02
3783	6.18778e+02	3.78300e+03	-5.29862e-03	6.20500e+02
3787	6.19444e+02	3.78700e+03	-5.28585e-03	6.21167e+02
3791	6.20115e+02	3.79100e+03	-5.25598e-03	6.21833e+02
3795	6.20788e+02	3.79500e+03	-5.25624e-03	6.22500e+02
3799	6.21457e+02	3.79900e+03	-5.28417e-03	6.23167e+02
3803	6.22117e+02	3.80300e+03	-5.29801e-03	6.23833e+02
3807	6.22790e+02	3.80700e+03	-5.27546e-03	6.24500e+02
3811	6.23449e+02	3.81100e+03	-5.28882e-03	6.25167e+02
3815	6.24121e+02	3.81500e+03	-5.27118e-03	6.25833e+02
3819	6.24786e+02	3.81900e+03	-5.20956e-03	6.26500e+02
3823	6.25460e+02	3.82300e+03	-5.23034e-03	6.27167e+02
3827	6.26125e+02	3.82700e+03	-5.27437e-03	6.27833e+02
3831	6.26780e+02	3.83100e+03	-5.27901e-03	6.28500e+02
3835	6.27440e+02	3.83500e+03	-5.26633e-03	6.29167e+02
3839	6.28102e+02	3.83900e+03	-5.22524e-03	6.29833e+02
3843	6.28773e+02	3.84300e+03	-5.19285e-03	6.30500e+02
3847	6.29444e+02	3.84700e+03	-5.21594e-03	6.31167e+02
3851	6.30097e+02	3.85100e+03	-5.25745e-03	6.31833e+02
3855	6.30768e+02	3.85500e+03	-5.25469e-03	6.32500e+02
3859	6.31420e+02	3.85900e+03	-5.21965e-03	6.33167e+02
3863	6.32094e+02	3.86300e+03	-5.23018e-03	6.33833e+02
3867	6.32760e+02	3.86700e+03	-5.28049e-03	6.34500e+02
3871	6.33427e+02	3.87100e+03	-5.36106e-03	6.35167e+02
3875	6.34103e+02	3.87500e+03	-5.40007e-03	6.35833e+02
3879	6.34777e+02	3.87900e+03	-5.35372e-03	6.36500e+02
3883	6.35454e+02	3.88300e+03	-5.33350e-03	6.37167e+02
3887	6.36128e+02	3.88700e+03	-5.33353e-03	6.37833e+02
3891	6.36799e+02	3.89100e+03	-5.35879e-03	6.38500e+02
3895	6.37483e+02	3.89500e+03	-5.43514e-03	6.39167e+02
3899	6.38150e+02	3.89900e+03	-5.46894e-03	6.39833e+02
3903	6.38820e+02	3.90300e+03	-5.43656e-03	6.40500e+02
3907	6.39480e+02	3.90700e+03	-5.38995e-03	6.41167e+02
3911	6.40153e+02	3.91100e+03	-5.34156e-03	6.41833e+02
3915	6.40814e+02	3.91500e+03	-5.32393e-03	6.42500e+02
3919	6.41471e+02	3.91900e+03	-5.36412e-03	6.43167e+02
3923	6.42140e+02	3.92300e+03	-5.44072e-03	6.43833e+02
3927	6.42831e+02	3.92700e+03	-5.51286e-03	6.44500e+02
3931	6.43511e+02	3.93100e+03	-5.56891e-03	6.45167e+02
3935	6.44192e+02	3.93500e+03	-5.58480e-03	6.45833e+02
3939	6.44882e+02	3.93900e+03	-5.60013e-03	6.46500e+02
3943	6.45574e+02	3.94300e+03	-5.58719e-03	6.47167e+02
3947	6.46233e+02	3.94700e+03	-5.48663e-03	6.47833e+02
3951	6.46872e+02	3.95100e+03	-5.39815e-03	6.48500e+02
3955	6.47550e+02	3.95500e+03	-5.38481e-03	6.49167e+02
3959	6.48202e+02	3.95900e+03	-5.40544e-03	6.49833e+02
3963	6.48875e+02	3.96300e+03	-5.42978e-03	6.50500e+02
3967	6.49523e+02	3.96700e+03	-5.46113e-03	6.51167e+02
3971	6.50176e+02	3.97100e+03	-5.44252e-03	6.51833e+02
3975	6.50834e+02	3.97500e+03	-5.37281e-03	6.52500e+02
3979	6.51475e+02	3.97900e+03	-5.37656e-03	6.53167e+02
3983	6.52131e+02	3.98300e+03	-5.44915e-03	6.53833e+02
3987	6.52781e+02	3.98700e+03	-5.51323e-03	6.54500e+02
3991	6.53423e+02	3.99100e+03	-5.52484e-03	6.55167e+02
3995	6.54079e+02	3.99500e+03	-5.47849e-03	6.55833e+02
3999	6.54734e+02	3.99900e+03	-5.48886e-03	6.56500e+02
4003	6.55388e+02	4.00300e+03	-5.58341e-03	6.57167e+02
4007	6.56031e+02	4.00700e+03	-5.61619e-03	6.57833e+02
4011	6.56689e+02	4.01100e+03	-5.58998e-03	6.58500e+02
4015	6.57333e+02	4.01500e+03	-5.63433e-03	6.59167e+02
4019	6.57994e+02	4.01900e+03	-5.71712e-03	6.59833e+02
4023	6.58647e+02	4.02300e+03	-5.78300e-03	6.60500e+02
4027	6.59296e+02	4.02700e+03	-5.80432e-03	6.61167e+02
4031	6.59961e+02	4.03100e+03	-5.78751e-03	6.61833e+02
4035	6.60619e+02	4.03500e+03	-5.78989e-03	6.62500e+02
4039	6.61274e+02	4.03900e+03	-5.80500e-03	6.63167e+02
4043	6.61915e+02	4.04300e+03	-5.81999e-03	6.63833e+02
4047	6.62582e+02	4.04700e+03	-5.84677e-03	6.64500e+02
4051	6.63247e+02	4.05100e+03	-5.86618e-03	6.65167e+02
4055	6.63893e+02	4.05500e+03	-5.87339e-03	6.65833e+02
4059	6.64561e+02	4.05900e+03	-5.86939e-03	6.66500e+02
4063	6.65211e+02	4.06300e+03	-5.89001e-03	6.67167e+02
4067	6.65878e+02	4.06700e+03	-5.92704e-03	6.67833e+02
4071	6.66531e+02	4.07100e+03	-5.92170e-03	6.68500e+02
4075	6.67181e+02	4.07500e+03	-5.90400e-03	6.69167e+02
4079	6.67837e+02	4.07900e+03	-5.92142e-03	6.69833e+02
4083	6.68494e+02	4.08300e+03	-5.97105e-03	6.70500e+02
4087	6.69153e+02	4.08700e+03	-5.99450e-03	6.71167e+02
4091	6.69810e+02	4.09100e+03	-5.98420e-03	6.71833e+02
4095	6.70471e+02	4.09500e+03	-5.98292e-03	6.72500e+02
4099	6.71129e+02	4.09900e+03	-5.93419e-03	6.73167e+02
4103	6.71785e+02	4.10300e+03	-5.86982e-03	6.73833e+02
4107	6.72444e+02	4.10700e+03	-5.85445e-03	6.74500e+02
4111	6.73101e+02	4.11100e+03	-5.91075e-03	6.75167e+02
4115	6.73755e+02	4.11500e+03	-6.01444e-03	6.75833e+02
4119	6.74416e+02	4.11900e+03	-6.08562e-03	6.76500e+02
4123	6.75086e+02	4.12300e+03	-6.12545e-03	6.77167e+02
4127	6.75738e+02	4.12700e+03	-6.13758e-03	6.77833e+02
4131	6.76400e+02	4.13100e+03	-6.17242e-03	6.78500e+02
4135	6.77058e+02	4.13500e+03	-6.21021e-03	6.79167e+02
4139	6.77720e+02	4.13900e+03	-6.23505e-03	6.79833e+02
4143	6.78380e+02	4.14300e+03	-6.28549e-03	6.80500e+02
4147	6.79049e+02	4.14700e+03	-6.33701e-03	6.81167e+02
4151	6.79709e+02	4.15100e+03	-6.35870e-03	6.81833e+02
4155	6.80377e+02	4.15500e+03	-6.30277e-03	6.82500e+02
4159	6.81032e+02	4.15900e+03	-6.24037e-03	6.83167e+02
4163	6.81684e+02	4.16300e+03	-6.22592e-03	6.83833e+02
4167	6.82348e+02	4.16700e+03	-6.20001e-03	6.84500e+02
4171	6.83008e+02	4.17100e+03	-6.17507e-03	6.85167e+02
4175	6.83665e+02	4.17500e+03	-6.17860e-03	6.85833e+02
4179	6.84335e+02	4.17900e+03	-6.19431e-03	6.86500e+02
4183	6.84994e+02	4.18300e+03	-6.20429e-03	6.87167e+02
4187	6.85652e+02	4.18700e+03	-6.22485e-03	6.87833e+02
4191	6.86320e+02	4.19100e+03	-6.21613e-03	6.88500e+02
4195	6.86987e+02	4.19500e+03	-6.15640e-03	6.89167e+02
4199	6.87643e+02	4.19900e+03	-6.06981e-03	6.89833e+02
4203	6.88300e+02	4.20300e+03	-5.99917e-03	6.90500e+02
4207	6.88974e+02	4.20700e+03	-5.96901e-03	6.91167e+02
4211	6.89628e+02	4.21100e+03	-5.96663e-03	6.91833e+02
4215	6.90288e+02	4.21500e+03	-5.99579e-03	6.92500e+02
4219	6.90956e+02	4.21900e+03	-6.02168e-03	6.93167e+02
4223	6.91618e+02	4.22300e+03	-6.05867e-03	6.93833e+02
4227	6.92283e+02	4.22700e+03	-6.10753e-03	6.94500e+02
4231	6.92948e+02	4.23100e+03	-6.12389e-03	6.95167e+02
4235	6.93525e+02	4.23500e+03	-6.16449e-03	6.95833e+02
4239	6.93948e+02	4.23900e+03	-6.21870e-03	6.96500e+02
4243	6.94417e+02	4.24300e+03	-6.21098e-03	6.97167e+02
4247	6.94807e+02	4.24700e+03	-6.20135e-03	6.97833e+02
4251	6.95167e+02	4.25100e+03	-6.19828e-03	6.98500e+02
4255	6.95490e+02	4.25500e+03	-6.19001e-03	6.99167e+02
4259	6.95770e+02	4.25900e+03	-6.22817e-03	6.99833e+02
4260	6.95832e+02	4.26000e+03	-6.25033e-03	7.00000e+02