File: Experiments/TUBS/tga_nonisotherm/tga_dynamic_n2_dyn20_piece_3mg_r3.txt
index	ts	t	weight	tr
[#]	[°C]	[s]	[mg]	[°C]
723	1.29762e+02	7.23000e+02	2.97334e+00	1.31000e+02
725	1.30416e+02	7.25000e+02	2.97329e+00	1.31667e+02
727	1.31087e+02	7.27000e+02	2.97325e+00	1.32333e+02
729	1.31742e+02	7.29000e+02	2.97321e+00	1.33000e+02
731	1.32407e+02	7.31000e+02	2.97319e+00	1.33667e+02
733	1.33083e+02	7.33000e+02	2.97320e+00	1.34333e+02
735	1.33738e+02	7.35000e+02	2.97321e+00	1.35000e+02
737	1.34402e+02	7.37000e+02	2.97322e+00	1.35667e+02
739	1.35053e+02	7.39000e+02	2.97321e+00	1.36333e+02
741	1.35729e+02	7.41000e+02	2.97317e+00	1.37000e+02
743	1.36397e+02	7.43000e+02	2.97313e+00	1.37667e+02
745	1.37065e+02	7.45000e+02	2.97306e+00	1.38333e+02
747	1.37724e+02	7.47000e+02	2.97301e+00	1.39000e+02
749	1.38386e+02	7.49000e+02	2.97296e+00	1.39667e+02
751	1.39073e+02	7.51000e+02	2.97292e+00	1.40333e+02
753	1.39734e+02	7.53000e+02	2.97290e+00	1.41000e+02
755	1.40400e+02	7.55000e+02	2.97289e+00	1.41667e+02
757	1.41071e+02	7.57000e+02	2.97290e+00	1.42333e+02
759	1.41729e+02	7.59000e+02	2.97290e+00	1.43000e+02
761	1.42401e+02	7.61000e+02	2.97290e+00	1.43667e+02
763	1.43085e+02	7.63000e+02	2.97289e+00	1.44333e+02
765	1.43743e+02	7.65000e+02	2.97286e+00	1.45000e+02
767	1.44406e+02	7.67000e+02	2.97284e+00	1.45667e+02
769	1.45077e+02	7.69000e+02	2.97282e+00	1.46333e+02
771	1.45752e+02	7.71000e+02	2.97280e+00	1.47000e+02
773	1.46416e+02	7.73000e+02	2.97278e+00	1.47667e+02
775	1.47072e+02	7.75000e+02	2.97275e+00	1.48333e+02
777	1.47752e+02	7.77000e+02	2.97270e+00	1.49000e+02
779	1.48423e+02	7.79000e+02	2.97266e+00	1.49667e+02
781	1.49087e+02	7.81000e+02	2.97261e+00	1.50333e+02
783	1.49761e+02	7.83000e+02	2.97257e+00	1.51000e+02
785	1.50444e+02	7.85000e+02	2.97252e+00	1.51667e+02
787	1.51111e+02	7.87000e+02	2.97249e+00	1.52333e+02
789	1.51787e+02	7.89000e+02	2.97246e+00	1.53000e+02
791	1.52437e+02	7.91000e+02	2.97243e+00	1.53667e+02
793	1.53118e+02	7.93000e+02	2.97239e+00	1.54333e+02
795	1.53795e+02	7.95000e+02	2.97234e+00	1.55000e+02
797	1.54460e+02	7.97000e+02	2.97228e+00	1.55667e+02
799	1.55141e+02	7.99000e+02	2.97223e+00	1.56333e+02
801	1.55808e+02	8.01000e+02	2.97216e+00	1.57000e+02
803	1.56472e+02	8.03000e+02	2.97210e+00	1.57667e+02
805	1.57146e+02	8.05000e+02	2.97206e+00	1.58333e+02
807	1.57810e+02	8.07000e+02	2.97201e+00	1.59000e+02
809	1.58494e+02	8.09000e+02	2.97197e+00	1.59667e+02
811	1.59170e+02	8.11000e+02	2.97192e+00	1.60333e+02
813	1.59841e+02	8.13000e+02	2.97187e+00	1.61000e+02
815	1.60521e+02	8.15000e+02	2.97183e+00	1.61667e+02
817	1.61183e+02	8.17000e+02	2.97180e+00	1.62333e+02
819	1.61850e+02	8.19000e+02	2.97176e+00	1.63000e+02
821	1.62531e+02	8.21000e+02	2.97170e+00	1.63667e+02
823	1.63223e+02	8.23000e+02	2.97162e+00	1.64333e+02
825	1.63889e+02	8.25000e+02	2.97154e+00	1.65000e+02
827	1.64569e+02	8.27000e+02	2.97147e+00	1.65667e+02
829	1.65225e+02	8.29000e+02	2.97142e+00	1.66333e+02
831	1.65901e+02	8.31000e+02	2.97138e+00	1.67000e+02
833	1.66580e+02	8.33000e+02	2.97137e+00	1.67667e+02
835	1.67247e+02	8.35000e+02	2.97134e+00	1.68333e+02
837	1.67927e+02	8.37000e+02	2.97132e+00	1.69000e+02
839	1.68610e+02	8.39000e+02	2.97129e+00	1.69667e+02
841	1.69293e+02	8.41000e+02	2.97125e+00	1.70333e+02
843	1.69959e+02	8.43000e+02	2.97121e+00	1.71000e+02
845	1.70641e+02	8.45000e+02	2.97115e+00	1.71667e+02
847	1.71315e+02	8.47000e+02	2.97108e+00	1.72333e+02
849	1.71987e+02	8.49000e+02	2.97098e+00	1.73000e+02
851	1.72675e+02	8.51000e+02	2.97089e+00	1.73667e+02
853	1.73344e+02	8.53000e+02	2.97081e+00	1.74333e+02
855	1.74015e+02	8.55000e+02	2.97072e+00	1.75000e+02
857	1.74696e+02	8.57000e+02	2.97062e+00	1.75667e+02
859	1.75369e+02	8.59000e+02	2.97049e+00	1.76333e+02
861	1.76047e+02	8.61000e+02	2.97033e+00	1.77000e+02
863	1.76721e+02	8.63000e+02	2.97017e+00	1.77667e+02
865	1.77401e+02	8.65000e+02	2.97000e+00	1.78333e+02
867	1.78078e+02	8.67000e+02	2.96985e+00	1.79000e+02
869	1.78759e+02	8.69000e+02	2.96972e+00	1.79667e+02
871	1.79425e+02	8.71000e+02	2.96959e+00	1.80333e+02
873	1.80105e+02	8.73000e+02	2.96946e+00	1.81000e+02
875	1.80792e+02	8.75000e+02	2.96930e+00	1.81667e+02
877	1.81466e+02	8.77000e+02	2.96911e+00	1.82333e+02
879	1.82135e+02	8.79000e+02	2.96892e+00	1.83000e+02
881	1.82818e+02	8.81000e+02	2.96871e+00	1.83667e+02
883	1.83505e+02	8.83000e+02	2.96849e+00	1.84333e+02
885	1.84176e+02	8.85000e+02	2.96828e+00	1.85000e+02
887	1.84860e+02	8.87000e+02	2.96807e+00	1.85667e+02
889	1.85537e+02	8.89000e+02	2.96784e+00	1.86333e+02
891	1.86210e+02	8.91000e+02	2.96756e+00	1.87000e+02
893	1.86888e+02	8.93000e+02	2.96723e+00	1.87667e+02
895	1.87558e+02	8.95000e+02	2.96689e+00	1.88333e+02
897	1.88229e+02	8.97000e+02	2.96654e+00	1.89000e+02
899	1.88908e+02	8.99000e+02	2.96621e+00	1.89667e+02
901	1.89594e+02	9.01000e+02	2.96589e+00	1.90333e+02
903	1.90276e+02	9.03000e+02	2.96556e+00	1.91000e+02
905	1.90951e+02	9.05000e+02	2.96523e+00	1.91667e+02
907	1.91619e+02	9.07000e+02	2.96487e+00	1.92333e+02
909	1.92295e+02	9.09000e+02	2.96447e+00	1.93000e+02
911	1.92987e+02	9.11000e+02	2.96406e+00	1.93667e+02
913	1.93658e+02	9.13000e+02	2.96364e+00	1.94333e+02
915	1.94330e+02	9.15000e+02	2.96322e+00	1.95000e+02
917	1.95016e+02	9.17000e+02	2.96277e+00	1.95667e+02
919	1.95691e+02	9.19000e+02	2.96230e+00	1.96333e+02
921	1.96377e+02	9.21000e+02	2.96181e+00	1.97000e+02
923	1.97051e+02	9.23000e+02	2.96133e+00	1.97667e+02
925	1.97730e+02	9.25000e+02	2.96085e+00	1.98333e+02
927	1.98394e+02	9.27000e+02	2.96035e+00	1.99000e+02
929	1.99081e+02	9.29000e+02	2.95982e+00	1.99667e+02
931	1.99750e+02	9.31000e+02	2.95929e+00	2.00333e+02
933	2.00433e+02	9.33000e+02	2.95874e+00	2.01000e+02
935	2.01106e+02	9.35000e+02	2.95819e+00	2.01667e+02
937	2.01789e+02	9.37000e+02	2.95764e+00	2.02333e+02
939	2.02459e+02	9.39000e+02	2.95708e+00	2.03000e+02
941	2.03145e+02	9.41000e+02	2.95650e+00	2.03667e+02
943	2.03821e+02	9.43000e+02	2.95591e+00	2.04333e+02
945	2.04504e+02	9.45000e+02	2.95530e+00	2.05000e+02
947	2.05170e+02	9.47000e+02	2.95470e+00	2.05667e+02
949	2.05859e+02	9.49000e+02	2.95411e+00	2.06333e+02
951	2.06532e+02	9.51000e+02	2.95351e+00	2.07000e+02
953	2.07217e+02	9.53000e+02	2.95290e+00	2.07667e+02
955	2.07892e+02	9.55000e+02	2.95230e+00	2.08333e+02
957	2.08575e+02	9.57000e+02	2.95170e+00	2.09000e+02
959	2.09252e+02	9.59000e+02	2.95110e+00	2.09667e+02
961	2.09926e+02	9.61000e+02	2.95052e+00	2.10333e+02
963	2.10598e+02	9.63000e+02	2.94996e+00	2.11000e+02
965	2.11281e+02	9.65000e+02	2.94944e+00	2.11667e+02
967	2.11971e+02	9.67000e+02	2.94890e+00	2.12333e+02
969	2.12640e+02	9.69000e+02	2.94835e+00	2.13000e+02
971	2.13321e+02	9.71000e+02	2.94778e+00	2.13667e+02
973	2.14001e+02	9.73000e+02	2.94718e+00	2.14333e+02
975	2.14686e+02	9.75000e+02	2.94660e+00	2.15000e+02
977	2.15362e+02	9.77000e+02	2.94603e+00	2.15667e+02
979	2.16039e+02	9.79000e+02	2.94548e+00	2.16333e+02
981	2.16723e+02	9.81000e+02	2.94494e+00	2.17000e+02
983	2.17399e+02	9.83000e+02	2.94439e+00	2.17667e+02
985	2.18071e+02	9.85000e+02	2.94384e+00	2.18333e+02
987	2.18752e+02	9.87000e+02	2.94329e+00	2.19000e+02
989	2.19429e+02	9.89000e+02	2.94274e+00	2.19667e+02
991	2.20121e+02	9.91000e+02	2.94219e+00	2.20333e+02
993	2.20803e+02	9.93000e+02	2.94166e+00	2.21000e+02
995	2.21468e+02	9.95000e+02	2.94113e+00	2.21667e+02
997	2.22129e+02	9.97000e+02	2.94060e+00	2.22333e+02
999	2.22801e+02	9.99000e+02	2.94005e+00	2.23000e+02
1001	2.23489e+02	1.00100e+03	2.93946e+00	2.23667e+02
1003	2.24168e+02	1.00300e+03	2.93888e+00	2.24333e+02
1005	2.24850e+02	1.00500e+03	2.93827e+00	2.25000e+02
1007	2.25519e+02	1.00700e+03	2.93767e+00	2.25667e+02
1009	2.26205e+02	1.00900e+03	2.93707e+00	2.26333e+02
1011	2.26878e+02	1.01100e+03	2.93648e+00	2.27000e+02
1013	2.27568e+02	1.01300e+03	2.93590e+00	2.27667e+02
1015	2.28229e+02	1.01500e+03	2.93532e+00	2.28333e+02
1017	2.28909e+02	1.01700e+03	2.93474e+00	2.29000e+02
1019	2.29588e+02	1.01900e+03	2.93415e+00	2.29667e+02
1021	2.30266e+02	1.02100e+03	2.93356e+00	2.30333e+02
1023	2.30926e+02	1.02300e+03	2.93298e+00	2.31000e+02
1025	2.31626e+02	1.02500e+03	2.93239e+00	2.31667e+02
1027	2.32295e+02	1.02700e+03	2.93180e+00	2.32333e+02
1029	2.32981e+02	1.02900e+03	2.93121e+00	2.33000e+02
1031	2.33666e+02	1.03100e+03	2.93063e+00	2.33667e+02
1033	2.34334e+02	1.03300e+03	2.93005e+00	2.34333e+02
1035	2.35010e+02	1.03500e+03	2.92946e+00	2.35000e+02
1037	2.35678e+02	1.03700e+03	2.92887e+00	2.35667e+02
1039	2.36351e+02	1.03900e+03	2.92828e+00	2.36333e+02
1041	2.37022e+02	1.04100e+03	2.92770e+00	2.37000e+02
1043	2.37701e+02	1.04300e+03	2.92711e+00	2.37667e+02
1045	2.38363e+02	1.04500e+03	2.92653e+00	2.38333e+02
1047	2.39038e+02	1.04700e+03	2.92594e+00	2.39000e+02
1049	2.39709e+02	1.04900e+03	2.92534e+00	2.39667e+02
1051	2.40379e+02	1.05100e+03	2.92474e+00	2.40333e+02
1053	2.41070e+02	1.05300e+03	2.92413e+00	2.41000e+02
1055	2.41745e+02	1.05500e+03	2.92352e+00	2.41667e+02
1057	2.42437e+02	1.05700e+03	2.92291e+00	2.42333e+02
1059	2.43122e+02	1.05900e+03	2.92231e+00	2.43000e+02
1061	2.43804e+02	1.06100e+03	2.92173e+00	2.43667e+02
1063	2.44484e+02	1.06300e+03	2.92115e+00	2.44333e+02
1065	2.45172e+02	1.06500e+03	2.92057e+00	2.45000e+02
1067	2.45852e+02	1.06700e+03	2.91997e+00	2.45667e+02
1069	2.46538e+02	1.06900e+03	2.91937e+00	2.46333e+02
1071	2.47216e+02	1.07100e+03	2.91877e+00	2.47000e+02
1073	2.47893e+02	1.07300e+03	2.91817e+00	2.47667e+02
1075	2.48554e+02	1.07500e+03	2.91756e+00	2.48333e+02
1077	2.49223e+02	1.07700e+03	2.91695e+00	2.49000e+02
1079	2.49906e+02	1.07900e+03	2.91634e+00	2.49667e+02
1081	2.50592e+02	1.08100e+03	2.91573e+00	2.50333e+02
1083	2.51261e+02	1.08300e+03	2.91512e+00	2.51000e+02
1085	2.51948e+02	1.08500e+03	2.91451e+00	2.51667e+02
1087	2.52620e+02	1.08700e+03	2.91389e+00	2.52333e+02
1089	2.53296e+02	1.08900e+03	2.91325e+00	2.53000e+02
1091	2.53970e+02	1.09100e+03	2.91262e+00	2.53667e+02
1093	2.54651e+02	1.09300e+03	2.91199e+00	2.54333e+02
1095	2.55330e+02	1.09500e+03	2.91137e+00	2.55000e+02
1097	2.56006e+02	1.09700e+03	2.91076e+00	2.55667e+02
1099	2.56673e+02	1.09900e+03	2.91015e+00	2.56333e+02
1101	2.57361e+02	1.10100e+03	2.90954e+00	2.57000e+02
1103	2.58038e+02	1.10300e+03	2.90894e+00	2.57667e+02
1105	2.58711e+02	1.10500e+03	2.90833e+00	2.58333e+02
1107	2.59380e+02	1.10700e+03	2.90773e+00	2.59000e+02
1109	2.60050e+02	1.10900e+03	2.90712e+00	2.59667e+02
1111	2.60731e+02	1.11100e+03	2.90652e+00	2.60333e+02
1113	2.61410e+02	1.11300e+03	2.90591e+00	2.61000e+02
1115	2.62080e+02	1.11500e+03	2.90530e+00	2.61667e+02
1117	2.62757e+02	1.11700e+03	2.90467e+00	2.62333e+02
1119	2.63423e+02	1.11900e+03	2.90404e+00	2.63000e+02
1121	2.64108e+02	1.12100e+03	2.90339e+00	2.63667e+02
1123	2.64783e+02	1.12300e+03	2.90274e+00	2.64333e+02
1125	2.65443e+02	1.12500e+03	2.90207e+00	2.65000e+02
1127	2.66133e+02	1.12700e+03	2.90141e+00	2.65667e+02
1129	2.66803e+02	1.12900e+03	2.90075e+00	2.66333e+02
1131	2.67475e+02	1.13100e+03	2.90009e+00	2.67000e+02
1133	2.68140e+02	1.13300e+03	2.89942e+00	2.67667e+02
1135	2.68829e+02	1.13500e+03	2.89874e+00	2.68333e+02
1137	2.69506e+02	1.13700e+03	2.89806e+00	2.69000e+02
1139	2.70190e+02	1.13900e+03	2.89738e+00	2.69667e+02
1141	2.70858e+02	1.14100e+03	2.89669e+00	2.70333e+02
1143	2.71540e+02	1.14300e+03	2.89601e+00	2.71000e+02
1145	2.72215e+02	1.14500e+03	2.89533e+00	2.71667e+02
1147	2.72882e+02	1.14700e+03	2.89463e+00	2.72333e+02
1149	2.73562e+02	1.14900e+03	2.89389e+00	2.73000e+02
1151	2.74231e+02	1.15100e+03	2.89312e+00	2.73667e+02
1153	2.74909e+02	1.15300e+03	2.89224e+00	2.74333e+02
1155	2.75594e+02	1.15500e+03	2.89131e+00	2.75000e+02
1157	2.76261e+02	1.15700e+03	2.89026e+00	2.75667e+02
1159	2.76947e+02	1.15900e+03	2.88923e+00	2.76333e+02
1161	2.77631e+02	1.16100e+03	2.88818e+00	2.77000e+02
1163	2.78299e+02	1.16300e+03	2.88717e+00	2.77667e+02
1165	2.78986e+02	1.16500e+03	2.88622e+00	2.78333e+02
1167	2.79672e+02	1.16700e+03	2.88528e+00	2.79000e+02
1169	2.80321e+02	1.16900e+03	2.88436e+00	2.79667e+02
1171	2.81005e+02	1.17100e+03	2.88345e+00	2.80333e+02
1173	2.81670e+02	1.17300e+03	2.88254e+00	2.81000e+02
1175	2.82365e+02	1.17500e+03	2.88163e+00	2.81667e+02
1177	2.83070e+02	1.17700e+03	2.88071e+00	2.82333e+02
1179	2.83753e+02	1.17900e+03	2.87976e+00	2.83000e+02
1181	2.84469e+02	1.18100e+03	2.87875e+00	2.83667e+02
1183	2.85167e+02	1.18300e+03	2.87770e+00	2.84333e+02
1185	2.85841e+02	1.18500e+03	2.87657e+00	2.85000e+02
1187	2.86540e+02	1.18700e+03	2.87544e+00	2.85667e+02
1189	2.87212e+02	1.18900e+03	2.87430e+00	2.86333e+02
1191	2.87891e+02	1.19100e+03	2.87318e+00	2.87000e+02
1193	2.88618e+02	1.19300e+03	2.87208e+00	2.87667e+02
1195	2.89291e+02	1.19500e+03	2.87097e+00	2.88333e+02
1197	2.89982e+02	1.19700e+03	2.86987e+00	2.89000e+02
1199	2.90699e+02	1.19900e+03	2.86876e+00	2.89667e+02
1201	2.91402e+02	1.20100e+03	2.86764e+00	2.90333e+02
1203	2.92071e+02	1.20300e+03	2.86649e+00	2.91000e+02
1205	2.92755e+02	1.20500e+03	2.86530e+00	2.91667e+02
1207	2.93434e+02	1.20700e+03	2.86411e+00	2.92333e+02
1209	2.94134e+02	1.20900e+03	2.86290e+00	2.93000e+02
1211	2.94837e+02	1.21100e+03	2.86168e+00	2.93667e+02
1213	2.95517e+02	1.21300e+03	2.86042e+00	2.94333e+02
1215	2.96181e+02	1.21500e+03	2.85913e+00	2.95000e+02
1217	2.96851e+02	1.21700e+03	2.85778e+00	2.95667e+02
1219	2.97533e+02	1.21900e+03	2.85642e+00	2.96333e+02
1221	2.98214e+02	1.22100e+03	2.85500e+00	2.97000e+02
1223	2.98874e+02	1.22300e+03	2.85355e+00	2.97667e+02
1225	2.99565e+02	1.22500e+03	2.85204e+00	2.98333e+02
1227	3.00265e+02	1.22700e+03	2.85053e+00	2.99000e+02
1229	3.00966e+02	1.22900e+03	2.84898e+00	2.99667e+02
1231	3.01629e+02	1.23100e+03	2.84742e+00	3.00333e+02
1233	3.02295e+02	1.23300e+03	2.84582e+00	3.01000e+02
1235	3.02978e+02	1.23500e+03	2.84419e+00	3.01667e+02
1237	3.03646e+02	1.23700e+03	2.84249e+00	3.02333e+02
1239	3.04323e+02	1.23900e+03	2.84078e+00	3.03000e+02
1241	3.05003e+02	1.24100e+03	2.83900e+00	3.03667e+02
1243	3.05702e+02	1.24300e+03	2.83722e+00	3.04333e+02
1245	3.06393e+02	1.24500e+03	2.83539e+00	3.05000e+02
1247	3.07089e+02	1.24700e+03	2.83354e+00	3.05667e+02
1249	3.07757e+02	1.24900e+03	2.83164e+00	3.06333e+02
1251	3.08418e+02	1.25100e+03	2.82973e+00	3.07000e+02
1253	3.09080e+02	1.25300e+03	2.82776e+00	3.07667e+02
1255	3.09756e+02	1.25500e+03	2.82579e+00	3.08333e+02
1257	3.10445e+02	1.25700e+03	2.82378e+00	3.09000e+02
1259	3.11117e+02	1.25900e+03	2.82175e+00	3.09667e+02
1261	3.11808e+02	1.26100e+03	2.81968e+00	3.10333e+02
1263	3.12497e+02	1.26300e+03	2.81760e+00	3.11000e+02
1265	3.13164e+02	1.26500e+03	2.81549e+00	3.11667e+02
1267	3.13831e+02	1.26700e+03	2.81337e+00	3.12333e+02
1269	3.14505e+02	1.26900e+03	2.81119e+00	3.13000e+02
1271	3.15193e+02	1.27100e+03	2.80899e+00	3.13667e+02
1273	3.15964e+02	1.27300e+03	2.80670e+00	3.14333e+02
1275	3.16676e+02	1.27500e+03	2.80441e+00	3.15000e+02
1277	3.17341e+02	1.27700e+03	2.80205e+00	3.15667e+02
1279	3.18108e+02	1.27900e+03	2.79969e+00	3.16333e+02
1281	3.18791e+02	1.28100e+03	2.79729e+00	3.17000e+02
1283	3.19444e+02	1.28300e+03	2.79490e+00	3.17667e+02
1285	3.20111e+02	1.28500e+03	2.79250e+00	3.18333e+02
1287	3.20777e+02	1.28700e+03	2.79011e+00	3.19000e+02
1289	3.21434e+02	1.28900e+03	2.78771e+00	3.19667e+02
1291	3.22101e+02	1.29100e+03	2.78532e+00	3.20333e+02
1293	3.22736e+02	1.29300e+03	2.78293e+00	3.21000e+02
1295	3.23407e+02	1.29500e+03	2.78054e+00	3.21667e+02
1297	3.24069e+02	1.29700e+03	2.77811e+00	3.22333e+02
1299	3.24709e+02	1.29900e+03	2.77565e+00	3.23000e+02
1301	3.25348e+02	1.30100e+03	2.77312e+00	3.23667e+02
1303	3.25999e+02	1.30300e+03	2.77058e+00	3.24333e+02
1305	3.26668e+02	1.30500e+03	2.76795e+00	3.25000e+02
1307	3.27333e+02	1.30700e+03	2.76530e+00	3.25667e+02
1309	3.27995e+02	1.30900e+03	2.76257e+00	3.26333e+02
1311	3.28653e+02	1.31100e+03	2.75980e+00	3.27000e+02
1313	3.29296e+02	1.31300e+03	2.75694e+00	3.27667e+02
1315	3.29959e+02	1.31500e+03	2.75403e+00	3.28333e+02
1317	3.30614e+02	1.31700e+03	2.75100e+00	3.29000e+02
1319	3.31288e+02	1.31900e+03	2.74792e+00	3.29667e+02
1321	3.31954e+02	1.32100e+03	2.74468e+00	3.30333e+02
1323	3.32592e+02	1.32300e+03	2.74141e+00	3.31000e+02
1325	3.33244e+02	1.32500e+03	2.73797e+00	3.31667e+02
1327	3.33900e+02	1.32700e+03	2.73449e+00	3.32333e+02
1329	3.34542e+02	1.32900e+03	2.73082e+00	3.33000e+02
1331	3.35195e+02	1.33100e+03	2.72703e+00	3.33667e+02
1333	3.35879e+02	1.33300e+03	2.72285e+00	3.34333e+02
1335	3.36549e+02	1.33500e+03	2.71848e+00	3.35000e+02
1337	3.37191e+02	1.33700e+03	2.71363e+00	3.35667e+02
1339	3.37839e+02	1.33900e+03	2.70875e+00	3.36333e+02
1341	3.38487e+02	1.34100e+03	2.70358e+00	3.37000e+02
1343	3.39146e+02	1.34300e+03	2.69839e+00	3.37667e+02
1345	3.39806e+02	1.34500e+03	2.69297e+00	3.38333e+02
1347	3.40460e+02	1.34700e+03	2.68749e+00	3.39000e+02
1349	3.41125e+02	1.34900e+03	2.68174e+00	3.39667e+02
1351	3.41780e+02	1.35100e+03	2.67589e+00	3.40333e+02
1353	3.42423e+02	1.35300e+03	2.66970e+00	3.41000e+02
1355	3.43103e+02	1.35500e+03	2.66342e+00	3.41667e+02
1357	3.43776e+02	1.35700e+03	2.65674e+00	3.42333e+02
1359	3.44410e+02	1.35900e+03	2.64992e+00	3.43000e+02
1361	3.45060e+02	1.36100e+03	2.64261e+00	3.43667e+02
1363	3.45700e+02	1.36300e+03	2.63510e+00	3.44333e+02
1365	3.46350e+02	1.36500e+03	2.62691e+00	3.45000e+02
1367	3.46993e+02	1.36700e+03	2.61855e+00	3.45667e+02
1369	3.47673e+02	1.36900e+03	2.60950e+00	3.46333e+02
1371	3.48316e+02	1.37100e+03	2.60035e+00	3.47000e+02
1373	3.48959e+02	1.37300e+03	2.59063e+00	3.47667e+02
1375	3.49603e+02	1.37500e+03	2.58077e+00	3.48333e+02
1377	3.50262e+02	1.37700e+03	2.57031e+00	3.49000e+02
1379	3.50901e+02	1.37900e+03	2.55967e+00	3.49667e+02
1381	3.51521e+02	1.38100e+03	2.54837e+00	3.50333e+02
1383	3.52164e+02	1.38300e+03	2.53687e+00	3.51000e+02
1385	3.52826e+02	1.38500e+03	2.52461e+00	3.51667e+02
1387	3.53451e+02	1.38700e+03	2.51213e+00	3.52333e+02
1389	3.54107e+02	1.38900e+03	2.49878e+00	3.53000e+02
1391	3.54764e+02	1.39100e+03	2.48517e+00	3.53667e+02
1393	3.55401e+02	1.39300e+03	2.47062e+00	3.54333e+02
1395	3.56044e+02	1.39500e+03	2.45585e+00	3.55000e+02
1397	3.56694e+02	1.39700e+03	2.44011e+00	3.55667e+02
1399	3.57340e+02	1.39900e+03	2.42413e+00	3.56333e+02
1401	3.57970e+02	1.40100e+03	2.40710e+00	3.57000e+02
1403	3.58616e+02	1.40300e+03	2.38973e+00	3.57667e+02
1405	3.59300e+02	1.40500e+03	2.37110e+00	3.58333e+02
1407	3.59976e+02	1.40700e+03	2.35205e+00	3.59000e+02
1409	3.60645e+02	1.40900e+03	2.33149e+00	3.59667e+02
1411	3.61293e+02	1.41100e+03	2.31057e+00	3.60333e+02
1413	3.61935e+02	1.41300e+03	2.28821e+00	3.61000e+02
1415	3.62626e+02	1.41500e+03	2.26562e+00	3.61667e+02
1417	3.63315e+02	1.41700e+03	2.24174e+00	3.62333e+02
1419	3.63977e+02	1.41900e+03	2.21753e+00	3.63000e+02
1421	3.64655e+02	1.42100e+03	2.19205e+00	3.63667e+02
1423	3.65333e+02	1.42300e+03	2.16635e+00	3.64333e+02
1425	3.65994e+02	1.42500e+03	2.13950e+00	3.65000e+02
1427	3.66655e+02	1.42700e+03	2.11237e+00	3.65667e+02
1429	3.67308e+02	1.42900e+03	2.08413e+00	3.66333e+02
1431	3.67981e+02	1.43100e+03	2.05571e+00	3.67000e+02
1433	3.68654e+02	1.43300e+03	2.02633e+00	3.67667e+02
1435	3.69333e+02	1.43500e+03	1.99673e+00	3.68333e+02
1437	3.70018e+02	1.43700e+03	1.96618e+00	3.69000e+02
1439	3.70711e+02	1.43900e+03	1.93539e+00	3.69667e+02
1441	3.71376e+02	1.44100e+03	1.90364e+00	3.70333e+02
1443	3.72031e+02	1.44300e+03	1.87178e+00	3.71000e+02
1445	3.72695e+02	1.44500e+03	1.83922e+00	3.71667e+02
1447	3.73353e+02	1.44700e+03	1.80661e+00	3.72333e+02
1449	3.74029e+02	1.44900e+03	1.77348e+00	3.73000e+02
1451	3.74666e+02	1.45100e+03	1.74024e+00	3.73667e+02
1453	3.75276e+02	1.45300e+03	1.70653e+00	3.74333e+02
1455	3.75931e+02	1.45500e+03	1.67279e+00	3.75000e+02
1457	3.76561e+02	1.45700e+03	1.63878e+00	3.75667e+02
1459	3.77173e+02	1.45900e+03	1.60476e+00	3.76333e+02
1461	3.77800e+02	1.46100e+03	1.57047e+00	3.77000e+02
1463	3.78446e+02	1.46300e+03	1.53600e+00	3.77667e+02
1465	3.79108e+02	1.46500e+03	1.50102e+00	3.78333e+02
1467	3.79762e+02	1.46700e+03	1.46586e+00	3.79000e+02
1469	3.80420e+02	1.46900e+03	1.43006e+00	3.79667e+02
1471	3.81071e+02	1.47100e+03	1.39416e+00	3.80333e+02
1473	3.81717e+02	1.47300e+03	1.35784e+00	3.81000e+02
1475	3.82376e+02	1.47500e+03	1.32166e+00	3.81667e+02
1477	3.83012e+02	1.47700e+03	1.28545e+00	3.82333e+02
1479	3.83674e+02	1.47900e+03	1.24927e+00	3.83000e+02
1481	3.84316e+02	1.48100e+03	1.21310e+00	3.83667e+02
1483	3.84984e+02	1.48300e+03	1.17681e+00	3.84333e+02
1485	3.85678e+02	1.48500e+03	1.14024e+00	3.85000e+02
1487	3.86350e+02	1.48700e+03	1.10343e+00	3.85667e+02
1489	3.87003e+02	1.48900e+03	1.06623e+00	3.86333e+02
1491	3.87655e+02	1.49100e+03	1.02919e+00	3.87000e+02
1493	3.88316e+02	1.49300e+03	9.92371e-01	3.87667e+02
1495	3.88977e+02	1.49500e+03	9.55937e-01	3.88333e+02
1497	3.89660e+02	1.49700e+03	9.20203e-01	3.89000e+02
1499	3.90325e+02	1.49900e+03	8.84532e-01	3.89667e+02
1501	3.91001e+02	1.50100e+03	8.49256e-01	3.90333e+02
1503	3.91664e+02	1.50300e+03	8.13896e-01	3.91000e+02
1505	3.92336e+02	1.50500e+03	7.78689e-01	3.91667e+02
1507	3.92980e+02	1.50700e+03	7.43666e-01	3.92333e+02
1509	3.93632e+02	1.50900e+03	7.09174e-01	3.93000e+02
1511	3.94312e+02	1.51100e+03	6.75055e-01	3.93667e+02
1513	3.95001e+02	1.51300e+03	6.41885e-01	3.94333e+02
1515	3.95675e+02	1.51500e+03	6.09034e-01	3.95000e+02
1517	3.96358e+02	1.51700e+03	5.77379e-01	3.95667e+02
1519	3.97027e+02	1.51900e+03	5.46157e-01	3.96333e+02
1521	3.97736e+02	1.52100e+03	5.16408e-01	3.97000e+02
1523	3.98431e+02	1.52300e+03	4.87070e-01	3.97667e+02
1525	3.99097e+02	1.52500e+03	4.59394e-01	3.98333e+02
1527	3.99793e+02	1.52700e+03	4.32183e-01	3.99000e+02
1529	4.00491e+02	1.52900e+03	4.06755e-01	3.99667e+02
1531	4.01178e+02	1.53100e+03	3.81741e-01	4.00333e+02
1533	4.01857e+02	1.53300e+03	3.58518e-01	4.01000e+02
1535	4.02559e+02	1.53500e+03	3.35708e-01	4.01667e+02
1537	4.03244e+02	1.53700e+03	3.14676e-01	4.02333e+02
1539	4.03960e+02	1.53900e+03	2.94047e-01	4.03000e+02
1541	4.04671e+02	1.54100e+03	2.75159e-01	4.03667e+02
1543	4.05354e+02	1.54300e+03	2.56645e-01	4.04333e+02
1545	4.06046e+02	1.54500e+03	2.39791e-01	4.05000e+02
1547	4.06740e+02	1.54700e+03	2.23271e-01	4.05667e+02
1549	4.07451e+02	1.54900e+03	2.08280e-01	4.06333e+02
1551	4.08130e+02	1.55100e+03	1.93581e-01	4.07000e+02
1553	4.08833e+02	1.55300e+03	1.80289e-01	4.07667e+02
1555	4.09532e+02	1.55500e+03	1.67284e-01	4.08333e+02
1557	4.10191e+02	1.55700e+03	1.55581e-01	4.09000e+02
1559	4.10846e+02	1.55900e+03	1.44130e-01	4.09667e+02
1561	4.11520e+02	1.56100e+03	1.33881e-01	4.10333e+02
1563	4.12151e+02	1.56300e+03	1.23882e-01	4.11000e+02
1565	4.12837e+02	1.56500e+03	1.15004e-01	4.11667e+02
1567	4.13487e+02	1.56700e+03	1.06335e-01	4.12333e+02
1569	4.14159e+02	1.56900e+03	9.86856e-02	4.13000e+02
1571	4.14802e+02	1.57100e+03	9.12436e-02	4.13667e+02
1573	4.15455e+02	1.57300e+03	8.47213e-02	4.14333e+02
1575	4.16124e+02	1.57500e+03	7.83570e-02	4.15000e+02
1577	4.16775e+02	1.57700e+03	7.27979e-02	4.15667e+02
1579	4.17442e+02	1.57900e+03	6.73853e-02	4.16333e+02
1581	4.18112e+02	1.58100e+03	6.26770e-02	4.17000e+02
1583	4.18784e+02	1.58300e+03	5.80799e-02	4.17667e+02
1585	4.19424e+02	1.58500e+03	5.40713e-02	4.18333e+02
1587	4.20074e+02	1.58700e+03	5.01497e-02	4.19000e+02
1589	4.20739e+02	1.58900e+03	4.67170e-02	4.19667e+02
1591	4.21427e+02	1.59100e+03	4.33714e-02	4.20333e+02
1593	4.22107e+02	1.59300e+03	4.04491e-02	4.21000e+02
1595	4.22797e+02	1.59500e+03	3.76016e-02	4.21667e+02
1597	4.23487e+02	1.59700e+03	3.51265e-02	4.22333e+02
1599	4.24154e+02	1.59900e+03	3.27184e-02	4.23000e+02
1601	4.24835e+02	1.60100e+03	3.06296e-02	4.23667e+02
1603	4.25507e+02	1.60300e+03	2.85865e-02	4.24333e+02
1605	4.26183e+02	1.60500e+03	2.68018e-02	4.25000e+02
1607	4.26863e+02	1.60700e+03	2.50526e-02	4.25667e+02
1609	4.27556e+02	1.60900e+03	2.35002e-02	4.26333e+02
1611	4.28278e+02	1.61100e+03	2.19711e-02	4.27000e+02
1613	4.28984e+02	1.61300e+03	2.06037e-02	4.27667e+02
1615	4.29654e+02	1.61500e+03	1.92796e-02	4.28333e+02
1617	4.30405e+02	1.61700e+03	1.81215e-02	4.29000e+02
1619	4.31130e+02	1.61900e+03	1.69950e-02	4.29667e+02
1621	4.31748e+02	1.62100e+03	1.60200e-02	4.30333e+02
1623	4.32403e+02	1.62300e+03	1.50704e-02	4.31000e+02
1625	4.33048e+02	1.62500e+03	1.42361e-02	4.31667e+02
1627	4.33697e+02	1.62700e+03	1.34044e-02	4.32333e+02
1629	4.34370e+02	1.62900e+03	1.26604e-02	4.33000e+02
1631	4.35051e+02	1.63100e+03	1.19341e-02	4.33667e+02
1633	4.35714e+02	1.63300e+03	1.12771e-02	4.34333e+02
1635	4.36403e+02	1.63500e+03	1.06241e-02	4.35000e+02
1637	4.37082e+02	1.63700e+03	1.00335e-02	4.35667e+02
1639	4.37727e+02	1.63900e+03	9.46451e-03	4.36333e+02
1641	4.38403e+02	1.64100e+03	8.95778e-03	4.37000e+02
1643	4.39087e+02	1.64300e+03	8.45503e-03	4.37667e+02
1645	4.39722e+02	1.64500e+03	8.00239e-03	4.38333e+02
1647	4.40394e+02	1.64700e+03	7.55599e-03	4.39000e+02
1649	4.41082e+02	1.64900e+03	7.14319e-03	4.39667e+02
1651	4.41784e+02	1.65100e+03	6.73207e-03	4.40333e+02
1653	4.42473e+02	1.65300e+03	6.36514e-03	4.41000e+02
1655	4.43167e+02	1.65500e+03	6.01735e-03	4.41667e+02
1657	4.43817e+02	1.65700e+03	5.72067e-03	4.42333e+02
1659	4.44446e+02	1.65900e+03	5.41329e-03	4.43000e+02
1661	4.45133e+02	1.66100e+03	5.12923e-03	4.43667e+02
1663	4.45832e+02	1.66300e+03	4.85255e-03	4.44333e+02
1665	4.46558e+02	1.66500e+03	4.59797e-03	4.45000e+02
1667	4.47288e+02	1.66700e+03	4.35466e-03	4.45667e+02
1669	4.47953e+02	1.66900e+03	4.15069e-03	4.46333e+02
1671	4.48578e+02	1.67100e+03	3.95735e-03	4.47000e+02
1673	4.49227e+02	1.67300e+03	3.80645e-03	4.47667e+02
1675	4.49857e+02	1.67500e+03	3.66609e-03	4.48333e+02
1677	4.50475e+02	1.67700e+03	3.56784e-03	4.49000e+02
1679	4.51119e+02	1.67900e+03	3.47086e-03	4.49667e+02
1681	4.51732e+02	1.68100e+03	3.40064e-03	4.50333e+02
1683	4.52366e+02	1.68300e+03	3.32427e-03	4.51000e+02
1685	4.53013e+02	1.68500e+03	3.25103e-03	4.51667e+02
1687	4.53670e+02	1.68700e+03	3.17730e-03	4.52333e+02
1689	4.54293e+02	1.68900e+03	3.12013e-03	4.53000e+02
1691	4.54910e+02	1.69100e+03	3.07749e-03	4.53667e+02
1693	4.55521e+02	1.69300e+03	3.07135e-03	4.54333e+02
1695	4.56159e+02	1.69500e+03	3.07027e-03	4.55000e+02
1697	4.56834e+02	1.69700e+03	3.08929e-03	4.55667e+02
1699	4.57492e+02	1.69900e+03	3.09656e-03	4.56333e+02
1701	4.58152e+02	1.70100e+03	3.09443e-03	4.57000e+02
1703	4.58852e+02	1.70300e+03	3.08390e-03	4.57667e+02
1705	4.59492e+02	1.70500e+03	3.06103e-03	4.58333e+02
1707	4.60139e+02	1.70700e+03	3.04597e-03	4.59000e+02
1709	4.60791e+02	1.70900e+03	3.02841e-03	4.59667e+02
1711	4.61424e+02	1.71100e+03	2.99927e-03	4.60333e+02
1713	4.62048e+02	1.71300e+03	2.94931e-03	4.61000e+02
1715	4.62679e+02	1.71500e+03	2.90198e-03	4.61667e+02
1717	4.63327e+02	1.71700e+03	2.84717e-03	4.62333e+02
1719	4.63977e+02	1.71900e+03	2.80554e-03	4.63000e+02
1721	4.64630e+02	1.72100e+03	2.77844e-03	4.63667e+02
1723	4.65295e+02	1.72300e+03	2.75155e-03	4.64333e+02
1725	4.65998e+02	1.72500e+03	2.73830e-03	4.65000e+02
1727	4.66747e+02	1.72700e+03	2.72788e-03	4.65667e+02
1729	4.67449e+02	1.72900e+03	2.71917e-03	4.66333e+02
1731	4.68129e+02	1.73100e+03	2.69442e-03	4.67000e+02
1733	4.68803e+02	1.73300e+03	2.64876e-03	4.67667e+02
1735	4.69498e+02	1.73500e+03	2.61446e-03	4.68333e+02
1737	4.70208e+02	1.73700e+03	2.58475e-03	4.69000e+02
1739	4.70901e+02	1.73900e+03	2.56653e-03	4.69667e+02
1741	4.71534e+02	1.74100e+03	2.56477e-03	4.70333e+02
1743	4.72225e+02	1.74300e+03	2.55815e-03	4.71000e+02
1745	4.72893e+02	1.74500e+03	2.55281e-03	4.71667e+02
1747	4.73458e+02	1.74700e+03	2.54702e-03	4.72333e+02
1749	4.74056e+02	1.74900e+03	2.53423e-03	4.73000e+02
1751	4.74673e+02	1.75100e+03	2.51548e-03	4.73667e+02
1753	4.75311e+02	1.75300e+03	2.48584e-03	4.74333e+02
1755	4.75949e+02	1.75500e+03	2.46350e-03	4.75000e+02
1757	4.76588e+02	1.75700e+03	2.44393e-03	4.75667e+02
1759	4.77241e+02	1.75900e+03	2.42117e-03	4.76333e+02
1761	4.77872e+02	1.76100e+03	2.38686e-03	4.77000e+02
1763	4.78527e+02	1.76300e+03	2.34163e-03	4.77667e+02
1765	4.79206e+02	1.76500e+03	2.28963e-03	4.78333e+02
1767	4.79831e+02	1.76700e+03	2.24986e-03	4.79000e+02
1769	4.80492e+02	1.76900e+03	2.22661e-03	4.79667e+02
1771	4.81154e+02	1.77100e+03	2.20862e-03	4.80333e+02
1773	4.81813e+02	1.77300e+03	2.21384e-03	4.81000e+02
1775	4.82478e+02	1.77500e+03	2.21907e-03	4.81667e+02
1777	4.83121e+02	1.77700e+03	2.23449e-03	4.82333e+02
1779	4.83795e+02	1.77900e+03	2.23943e-03	4.83000e+02
1781	4.84574e+02	1.78100e+03	2.23784e-03	4.83667e+02
1783	4.85249e+02	1.78300e+03	2.23711e-03	4.84333e+02
1785	4.85892e+02	1.78500e+03	2.22881e-03	4.85000e+02
1787	4.86581e+02	1.78700e+03	2.21449e-03	4.85667e+02
1789	4.87235e+02	1.78900e+03	2.18910e-03	4.86333e+02
1791	4.87868e+02	1.79100e+03	2.15424e-03	4.87000e+02
1793	4.88497e+02	1.79300e+03	2.11626e-03	4.87667e+02
1795	4.89136e+02	1.79500e+03	2.09231e-03	4.88333e+02
1797	4.89764e+02	1.79700e+03	2.08186e-03	4.89000e+02
1799	4.90420e+02	1.79900e+03	2.07287e-03	4.89667e+02
1801	4.91079e+02	1.80100e+03	2.08296e-03	4.90333e+02
1803	4.91741e+02	1.80300e+03	2.09024e-03	4.91000e+02
1805	4.92384e+02	1.80500e+03	2.08967e-03	4.91667e+02
1807	4.93041e+02	1.80700e+03	2.06866e-03	4.92333e+02
1809	4.93680e+02	1.80900e+03	2.03080e-03	4.93000e+02
1811	4.94321e+02	1.81100e+03	2.00948e-03	4.93667e+02
1813	4.94985e+02	1.81300e+03	2.00010e-03	4.94333e+02
1815	4.95647e+02	1.81500e+03	1.99569e-03	4.95000e+02
1817	4.96299e+02	1.81700e+03	2.00159e-03	4.95667e+02
1819	4.96949e+02	1.81900e+03	1.98763e-03	4.96333e+02
1821	4.97588e+02	1.82100e+03	1.95090e-03	4.97000e+02
1823	4.98229e+02	1.82300e+03	1.91868e-03	4.97667e+02
1825	4.98869e+02	1.82500e+03	1.88075e-03	4.98333e+02
1827	4.99508e+02	1.82700e+03	1.85467e-03	4.99000e+02
1829	5.00151e+02	1.82900e+03	1.83757e-03	4.99667e+02
1831	5.00815e+02	1.83100e+03	1.80953e-03	5.00333e+02
1833	5.01478e+02	1.83300e+03	1.77923e-03	5.01000e+02
1835	5.02162e+02	1.83500e+03	1.75634e-03	5.01667e+02
1837	5.02833e+02	1.83700e+03	1.74396e-03	5.02333e+02
1839	5.03499e+02	1.83900e+03	1.72731e-03	5.03000e+02
1841	5.04166e+02	1.84100e+03	1.70906e-03	5.03667e+02
1843	5.04821e+02	1.84300e+03	1.68550e-03	5.04333e+02
1845	5.05478e+02	1.84500e+03	1.65766e-03	5.05000e+02
1847	5.06128e+02	1.84700e+03	1.64052e-03	5.05667e+02
1849	5.06797e+02	1.84900e+03	1.63730e-03	5.06333e+02
1851	5.07487e+02	1.85100e+03	1.63694e-03	5.07000e+02
1853	5.08141e+02	1.85300e+03	1.64940e-03	5.07667e+02
1855	5.08761e+02	1.85500e+03	1.65942e-03	5.08333e+02
1857	5.09357e+02	1.85700e+03	1.67230e-03	5.09000e+02
1859	5.09989e+02	1.85900e+03	1.67726e-03	5.09667e+02
1861	5.10618e+02	1.86100e+03	1.66845e-03	5.10333e+02
1863	5.11252e+02	1.86300e+03	1.64516e-03	5.11000e+02
1865	5.11886e+02	1.86500e+03	1.59747e-03	5.11667e+02
1867	5.12517e+02	1.86700e+03	1.55989e-03	5.12333e+02
1869	5.13142e+02	1.86900e+03	1.52961e-03	5.13000e+02
1871	5.13749e+02	1.87100e+03	1.51375e-03	5.13667e+02
1873	5.14388e+02	1.87300e+03	1.52184e-03	5.14333e+02
1875	5.15013e+02	1.87500e+03	1.52179e-03	5.15000e+02
1877	5.15647e+02	1.87700e+03	1.51790e-03	5.15667e+02
1879	5.16276e+02	1.87900e+03	1.50515e-03	5.16333e+02
1881	5.16910e+02	1.88100e+03	1.48172e-03	5.17000e+02
1883	5.17531e+02	1.88300e+03	1.46082e-03	5.17667e+02
1885	5.18146e+02	1.88500e+03	1.44211e-03	5.18333e+02
1887	5.18768e+02	1.88700e+03	1.42918e-03	5.19000e+02
1889	5.19375e+02	1.88900e+03	1.42663e-03	5.19667e+02
1891	5.19993e+02	1.89100e+03	1.42604e-03	5.20333e+02
1893	5.20606e+02	1.89300e+03	1.43340e-03	5.21000e+02
1895	5.21231e+02	1.89500e+03	1.43654e-03	5.21667e+02
1897	5.21858e+02	1.89700e+03	1.43202e-03	5.22333e+02
1899	5.22487e+02	1.89900e+03	1.42314e-03	5.23000e+02
1901	5.23137e+02	1.90100e+03	1.40352e-03	5.23667e+02
1903	5.23769e+02	1.90300e+03	1.38139e-03	5.24333e+02
1905	5.24403e+02	1.90500e+03	1.34642e-03	5.25000e+02
1907	5.25029e+02	1.90700e+03	1.32012e-03	5.25667e+02
1909	5.25655e+02	1.90900e+03	1.30460e-03	5.26333e+02
1911	5.26284e+02	1.91100e+03	1.30376e-03	5.27000e+02
1913	5.26905e+02	1.91300e+03	1.32623e-03	5.27667e+02
1915	5.27543e+02	1.91500e+03	1.33894e-03	5.28333e+02
1917	5.28198e+02	1.91700e+03	1.34491e-03	5.29000e+02
1919	5.28812e+02	1.91900e+03	1.34270e-03	5.29667e+02
1921	5.29453e+02	1.92100e+03	1.32508e-03	5.30333e+02
1923	5.30076e+02	1.92300e+03	1.30745e-03	5.31000e+02
1925	5.30719e+02	1.92500e+03	1.28620e-03	5.31667e+02
1927	5.31360e+02	1.92700e+03	1.27807e-03	5.32333e+02
1929	5.31999e+02	1.92900e+03	1.28627e-03	5.33000e+02
1931	5.32649e+02	1.93100e+03	1.29958e-03	5.33667e+02
1933	5.33297e+02	1.93300e+03	1.32353e-03	5.34333e+02
1935	5.33940e+02	1.93500e+03	1.34477e-03	5.35000e+02
1937	5.34592e+02	1.93700e+03	1.36884e-03	5.35667e+02
1939	5.35246e+02	1.93900e+03	1.38726e-03	5.36333e+02
1941	5.35892e+02	1.94100e+03	1.38344e-03	5.37000e+02
1943	5.36540e+02	1.94300e+03	1.36401e-03	5.37667e+02
1945	5.37187e+02	1.94500e+03	1.32206e-03	5.38333e+02
1947	5.37831e+02	1.94700e+03	1.29019e-03	5.39000e+02
1949	5.38491e+02	1.94900e+03	1.26376e-03	5.39667e+02
1951	5.39143e+02	1.95100e+03	1.23738e-03	5.40333e+02
1953	5.39804e+02	1.95300e+03	1.22132e-03	5.41000e+02
1955	5.40451e+02	1.95500e+03	1.21567e-03	5.41667e+02
1957	5.41116e+02	1.95700e+03	1.22446e-03	5.42333e+02
1959	5.41759e+02	1.95900e+03	1.22434e-03	5.43000e+02
1961	5.42409e+02	1.96100e+03	1.21916e-03	5.43667e+02
1963	5.43053e+02	1.96300e+03	1.22112e-03	5.44333e+02
1965	5.43719e+02	1.96500e+03	1.22806e-03	5.45000e+02
1967	5.44373e+02	1.96700e+03	1.24363e-03	5.45667e+02
1969	5.45026e+02	1.96900e+03	1.25931e-03	5.46333e+02
1971	5.45683e+02	1.97100e+03	1.25132e-03	5.47000e+02
1973	5.46355e+02	1.97300e+03	1.22245e-03	5.47667e+02
1975	5.47006e+02	1.97500e+03	1.20210e-03	5.48333e+02
1977	5.47671e+02	1.97700e+03	1.18808e-03	5.49000e+02
1979	5.48322e+02	1.97900e+03	1.18152e-03	5.49667e+02
1981	5.48979e+02	1.98100e+03	1.18512e-03	5.50333e+02
1983	5.49643e+02	1.98300e+03	1.17724e-03	5.51000e+02
1985	5.50304e+02	1.98500e+03	1.15308e-03	5.51667e+02
1987	5.50971e+02	1.98700e+03	1.12419e-03	5.52333e+02
1989	5.51642e+02	1.98900e+03	1.09123e-03	5.53000e+02
1991	5.52305e+02	1.99100e+03	1.06786e-03	5.53667e+02
1993	5.52967e+02	1.99300e+03	1.05755e-03	5.54333e+02
1995	5.53618e+02	1.99500e+03	1.04665e-03	5.55000e+02
1997	5.54269e+02	1.99700e+03	1.05020e-03	5.55667e+02
1999	5.54931e+02	1.99900e+03	1.06147e-03	5.56333e+02
2001	5.55591e+02	2.00100e+03	1.08903e-03	5.57000e+02
2003	5.56254e+02	2.00300e+03	1.10525e-03	5.57667e+02
2005	5.56916e+02	2.00500e+03	1.10615e-03	5.58333e+02
2007	5.57568e+02	2.00700e+03	1.09670e-03	5.59000e+02
2009	5.58227e+02	2.00900e+03	1.07440e-03	5.59667e+02
2011	5.58883e+02	2.01100e+03	1.06568e-03	5.60333e+02
2013	5.59530e+02	2.01300e+03	1.06548e-03	5.61000e+02
2015	5.60188e+02	2.01500e+03	1.06675e-03	5.61667e+02
2017	5.60845e+02	2.01700e+03	1.07559e-03	5.62333e+02
2019	5.61492e+02	2.01900e+03	1.08449e-03	5.63000e+02
2021	5.62148e+02	2.02100e+03	1.09770e-03	5.63667e+02
2023	5.62814e+02	2.02300e+03	1.10885e-03	5.64333e+02
2025	5.63477e+02	2.02500e+03	1.12512e-03	5.65000e+02
2027	5.64131e+02	2.02700e+03	1.14617e-03	5.65667e+02
2029	5.64798e+02	2.02900e+03	1.16264e-03	5.66333e+02
2031	5.65450e+02	2.03100e+03	1.16206e-03	5.67000e+02
2033	5.66108e+02	2.03300e+03	1.15389e-03	5.67667e+02
2035	5.66768e+02	2.03500e+03	1.15571e-03	5.68333e+02
2037	5.67426e+02	2.03700e+03	1.16188e-03	5.69000e+02
2039	5.68088e+02	2.03900e+03	1.16403e-03	5.69667e+02
2041	5.68745e+02	2.04100e+03	1.15506e-03	5.70333e+02
2043	5.69402e+02	2.04300e+03	1.13503e-03	5.71000e+02
2045	5.70051e+02	2.04500e+03	1.10275e-03	5.71667e+02
2047	5.70723e+02	2.04700e+03	1.07026e-03	5.72333e+02
2049	5.71383e+02	2.04900e+03	1.04597e-03	5.73000e+02
2051	5.72042e+02	2.05100e+03	1.02712e-03	5.73667e+02
2053	5.72700e+02	2.05300e+03	1.01240e-03	5.74333e+02
2055	5.73370e+02	2.05500e+03	9.85210e-04	5.75000e+02
2057	5.74016e+02	2.05700e+03	9.55768e-04	5.75667e+02
2059	5.74673e+02	2.05900e+03	9.39873e-04	5.76333e+02
2061	5.75320e+02	2.06100e+03	9.35282e-04	5.77000e+02
2063	5.75981e+02	2.06300e+03	9.29296e-04	5.77667e+02
2065	5.76632e+02	2.06500e+03	9.38140e-04	5.78333e+02
2067	5.77290e+02	2.06700e+03	9.52774e-04	5.79000e+02
2069	5.77948e+02	2.06900e+03	9.71933e-04	5.79667e+02
2071	5.78610e+02	2.07100e+03	9.75741e-04	5.80333e+02
2073	5.79279e+02	2.07300e+03	9.65770e-04	5.81000e+02
2075	5.79934e+02	2.07500e+03	9.58315e-04	5.81667e+02
2077	5.80603e+02	2.07700e+03	9.40459e-04	5.82333e+02
2079	5.81274e+02	2.07900e+03	9.27636e-04	5.83000e+02
2081	5.81923e+02	2.08100e+03	9.13338e-04	5.83667e+02
2083	5.82590e+02	2.08300e+03	8.87912e-04	5.84333e+02
2085	5.83256e+02	2.08500e+03	8.57971e-04	5.85000e+02
2087	5.83905e+02	2.08700e+03	8.40443e-04	5.85667e+02
2089	5.84560e+02	2.08900e+03	8.38000e-04	5.86333e+02
2091	5.85215e+02	2.09100e+03	8.41120e-04	5.87000e+02
2093	5.85858e+02	2.09300e+03	8.65863e-04	5.87667e+02
2095	5.86520e+02	2.09500e+03	8.95163e-04	5.88333e+02
2097	5.87182e+02	2.09700e+03	9.40929e-04	5.89000e+02
2099	5.87841e+02	2.09900e+03	9.77154e-04	5.89667e+02
2101	5.88507e+02	2.10100e+03	9.85425e-04	5.90333e+02
2103	5.89174e+02	2.10300e+03	9.71963e-04	5.91000e+02
2105	5.89849e+02	2.10500e+03	9.17093e-04	5.91667e+02
2107	5.90528e+02	2.10700e+03	8.78277e-04	5.92333e+02
2109	5.91223e+02	2.10900e+03	8.36080e-04	5.93000e+02
2111	5.91910e+02	2.11100e+03	7.98606e-04	5.93667e+02
2113	5.92575e+02	2.11300e+03	7.76745e-04	5.94333e+02
2115	5.93246e+02	2.11500e+03	7.65575e-04	5.95000e+02
2117	5.93907e+02	2.11700e+03	7.79951e-04	5.95667e+02
2119	5.94549e+02	2.11900e+03	7.93455e-04	5.96333e+02
2121	5.95224e+02	2.12100e+03	8.13054e-04	5.97000e+02
2123	5.95914e+02	2.12300e+03	8.16348e-04	5.97667e+02
2125	5.96578e+02	2.12500e+03	8.05815e-04	5.98333e+02
2127	5.97245e+02	2.12700e+03	7.97461e-04	5.99000e+02
2129	5.97896e+02	2.12900e+03	7.97682e-04	5.99667e+02
2131	5.98534e+02	2.13100e+03	8.17138e-04	6.00333e+02
2133	5.99194e+02	2.13300e+03	8.63394e-04	6.01000e+02
2135	5.99872e+02	2.13500e+03	8.94588e-04	6.01667e+02
2137	6.00535e+02	2.13700e+03	9.14055e-04	6.02333e+02
2139	6.01183e+02	2.13900e+03	9.22526e-04	6.03000e+02
2141	6.01847e+02	2.14100e+03	8.96064e-04	6.03667e+02
2143	6.02523e+02	2.14300e+03	8.64767e-04	6.04333e+02
2145	6.03195e+02	2.14500e+03	8.21178e-04	6.05000e+02
2147	6.03884e+02	2.14700e+03	7.95589e-04	6.05667e+02
2149	6.04553e+02	2.14900e+03	7.86111e-04	6.06333e+02
2151	6.05250e+02	2.15100e+03	7.70104e-04	6.07000e+02
2153	6.05929e+02	2.15300e+03	7.52534e-04	6.07667e+02
2155	6.06605e+02	2.15500e+03	7.37377e-04	6.08333e+02
2157	6.07257e+02	2.15700e+03	7.39264e-04	6.09000e+02
2159	6.07926e+02	2.15900e+03	7.58278e-04	6.09667e+02
2161	6.08584e+02	2.16100e+03	7.94384e-04	6.10333e+02
2163	6.09235e+02	2.16300e+03	8.17755e-04	6.11000e+02
2165	6.09910e+02	2.16500e+03	8.33479e-04	6.11667e+02
2167	6.10586e+02	2.16700e+03	8.51268e-04	6.12333e+02
2169	6.11240e+02	2.16900e+03	8.54136e-04	6.13000e+02
2171	6.11913e+02	2.17100e+03	8.44150e-04	6.13667e+02
2173	6.12579e+02	2.17300e+03	8.17172e-04	6.14333e+02
2175	6.13256e+02	2.17500e+03	8.10269e-04	6.15000e+02
2177	6.13928e+02	2.17700e+03	8.11627e-04	6.15667e+02
2179	6.14598e+02	2.17900e+03	8.06286e-04	6.16333e+02
2181	6.15275e+02	2.18100e+03	8.06663e-04	6.17000e+02
2183	6.15922e+02	2.18300e+03	8.07482e-04	6.17667e+02
2185	6.16583e+02	2.18500e+03	8.10071e-04	6.18333e+02
2187	6.17233e+02	2.18700e+03	8.10205e-04	6.19000e+02
2189	6.17881e+02	2.18900e+03	7.93993e-04	6.19667e+02
2191	6.18535e+02	2.19100e+03	7.68353e-04	6.20333e+02
2193	6.19201e+02	2.19300e+03	7.34383e-04	6.21000e+02
2195	6.19865e+02	2.19500e+03	7.16334e-04	6.21667e+02
2197	6.20513e+02	2.19700e+03	7.29668e-04	6.22333e+02
2199	6.21174e+02	2.19900e+03	7.52963e-04	6.23000e+02
2201	6.21840e+02	2.20100e+03	7.93030e-04	6.23667e+02
2203	6.22510e+02	2.20300e+03	8.05975e-04	6.24333e+02
2205	6.23181e+02	2.20500e+03	7.95304e-04	6.25000e+02
2207	6.23838e+02	2.20700e+03	7.89487e-04	6.25667e+02
2209	6.24518e+02	2.20900e+03	7.78139e-04	6.26333e+02
2211	6.25182e+02	2.21100e+03	7.68462e-04	6.27000e+02
2213	6.25847e+02	2.21300e+03	7.57436e-04	6.27667e+02
2215	6.26526e+02	2.21500e+03	7.44824e-04	6.28333e+02
2217	6.27192e+02	2.21700e+03	7.29121e-04	6.29000e+02
2219	6.27860e+02	2.21900e+03	7.11855e-04	6.29667e+02
2221	6.28522e+02	2.22100e+03	7.03607e-04	6.30333e+02
2223	6.29195e+02	2.22300e+03	7.02682e-04	6.31000e+02
2225	6.29855e+02	2.22500e+03	7.22511e-04	6.31667e+02
2227	6.30534e+02	2.22700e+03	7.44125e-04	6.32333e+02
2229	6.31203e+02	2.22900e+03	7.61768e-04	6.33000e+02
2231	6.31875e+02	2.23100e+03	7.61395e-04	6.33667e+02
2233	6.32528e+02	2.23300e+03	7.28438e-04	6.34333e+02
2235	6.33181e+02	2.23500e+03	6.98945e-04	6.35000e+02
2237	6.33851e+02	2.23700e+03	6.73582e-04	6.35667e+02
2239	6.34511e+02	2.23900e+03	6.66518e-04	6.36333e+02
2241	6.35185e+02	2.24100e+03	6.70405e-04	6.37000e+02
2243	6.35849e+02	2.24300e+03	6.58309e-04	6.37667e+02
2245	6.36545e+02	2.24500e+03	6.35376e-04	6.38333e+02
2247	6.37217e+02	2.24700e+03	6.13213e-04	6.39000e+02
2249	6.37900e+02	2.24900e+03	5.92058e-04	6.39667e+02
2251	6.38597e+02	2.25100e+03	5.86894e-04	6.40333e+02
2253	6.39297e+02	2.25300e+03	5.97158e-04	6.41000e+02
2255	6.39962e+02	2.25500e+03	5.99397e-04	6.41667e+02
2257	6.40642e+02	2.25700e+03	5.93219e-04	6.42333e+02
2259	6.41323e+02	2.25900e+03	5.84259e-04	6.43000e+02
2261	6.41988e+02	2.26100e+03	5.78634e-04	6.43667e+02
2263	6.42651e+02	2.26300e+03	5.80736e-04	6.44333e+02
2265	6.43327e+02	2.26500e+03	5.86053e-04	6.45000e+02
2267	6.44002e+02	2.26700e+03	5.85703e-04	6.45667e+02
2269	6.44668e+02	2.26900e+03	5.80091e-04	6.46333e+02
2271	6.45339e+02	2.27100e+03	5.77317e-04	6.47000e+02
2273	6.46014e+02	2.27300e+03	5.77383e-04	6.47667e+02
2275	6.46682e+02	2.27500e+03	5.73783e-04	6.48333e+02
2277	6.47344e+02	2.27700e+03	5.75234e-04	6.49000e+02
2279	6.47991e+02	2.27900e+03	5.91109e-04	6.49667e+02
2281	6.48653e+02	2.28100e+03	6.31330e-04	6.50333e+02
2283	6.49317e+02	2.28300e+03	6.64172e-04	6.51000e+02
2285	6.49995e+02	2.28500e+03	6.88340e-04	6.51667e+02
2287	6.50685e+02	2.28700e+03	6.97265e-04	6.52333e+02
2289	6.51402e+02	2.28900e+03	6.86994e-04	6.53000e+02
2291	6.52070e+02	2.29100e+03	6.99909e-04	6.53667e+02
2293	6.52771e+02	2.29300e+03	7.28510e-04	6.54333e+02
2295	6.53486e+02	2.29500e+03	7.48880e-04	6.55000e+02
2297	6.54137e+02	2.29700e+03	7.65094e-04	6.55667e+02
2299	6.54858e+02	2.29900e+03	7.74063e-04	6.56333e+02
2301	6.55551e+02	2.30100e+03	7.65148e-04	6.57000e+02
2303	6.56238e+02	2.30300e+03	7.60844e-04	6.57667e+02
2305	6.56885e+02	2.30500e+03	7.71703e-04	6.58333e+02
2307	6.57544e+02	2.30700e+03	7.95923e-04	6.59000e+02
2309	6.58224e+02	2.30900e+03	8.41222e-04	6.59667e+02
2311	6.58936e+02	2.31100e+03	8.70863e-04	6.60333e+02
2313	6.59581e+02	2.31300e+03	8.89648e-04	6.61000e+02
2315	6.60307e+02	2.31500e+03	9.04690e-04	6.61667e+02
2317	6.60943e+02	2.31700e+03	9.07100e-04	6.62333e+02
2319	6.61574e+02	2.31900e+03	9.07489e-04	6.63000e+02
2321	6.62222e+02	2.32100e+03	8.90793e-04	6.63667e+02
2323	6.62883e+02	2.32300e+03	8.67815e-04	6.64333e+02
2325	6.63547e+02	2.32500e+03	8.34110e-04	6.65000e+02
2327	6.64203e+02	2.32700e+03	8.05497e-04	6.65667e+02
2329	6.64883e+02	2.32900e+03	7.71119e-04	6.66333e+02
2331	6.65541e+02	2.33100e+03	7.30008e-04	6.67000e+02
2333	6.66225e+02	2.33300e+03	6.78937e-04	6.67667e+02
2335	6.66864e+02	2.33500e+03	6.39849e-04	6.68333e+02
2337	6.67525e+02	2.33700e+03	6.02053e-04	6.69000e+02
2339	6.68185e+02	2.33900e+03	5.67171e-04	6.69667e+02
2341	6.68819e+02	2.34100e+03	5.49593e-04	6.70333e+02
2343	6.69473e+02	2.34300e+03	5.47688e-04	6.71000e+02
2345	6.70126e+02	2.34500e+03	5.66087e-04	6.71667e+02
2347	6.70777e+02	2.34700e+03	5.78739e-04	6.72333e+02
2349	6.71425e+02	2.34900e+03	5.98893e-04	6.73000e+02
2351	6.72081e+02	2.35100e+03	6.12025e-04	6.73667e+02
2353	6.72735e+02	2.35300e+03	6.14644e-04	6.74333e+02
2355	6.73391e+02	2.35500e+03	6.10167e-04	6.75000e+02
2357	6.74047e+02	2.35700e+03	6.02928e-04	6.75667e+02
2359	6.74709e+02	2.35900e+03	6.15752e-04	6.76333e+02
2361	6.75375e+02	2.36100e+03	6.52680e-04	6.77000e+02
2363	6.76016e+02	2.36300e+03	6.74073e-04	6.77667e+02
2365	6.76678e+02	2.36500e+03	6.76679e-04	6.78333e+02
2367	6.77330e+02	2.36700e+03	6.60211e-04	6.79000e+02
2369	6.77985e+02	2.36900e+03	6.06165e-04	6.79667e+02
2371	6.78649e+02	2.37100e+03	5.65681e-04	6.80333e+02
2373	6.79313e+02	2.37300e+03	5.26787e-04	6.81000e+02
2375	6.79971e+02	2.37500e+03	4.99494e-04	6.81667e+02
2377	6.80625e+02	2.37700e+03	4.94069e-04	6.82333e+02
2379	6.81281e+02	2.37900e+03	4.88865e-04	6.83000e+02
2381	6.81941e+02	2.38100e+03	4.93380e-04	6.83667e+02
2383	6.82612e+02	2.38300e+03	4.97389e-04	6.84333e+02
2385	6.83267e+02	2.38500e+03	5.10595e-04	6.85000e+02
2387	6.83926e+02	2.38700e+03	5.17930e-04	6.85667e+02
2389	6.84583e+02	2.38900e+03	5.24253e-04	6.86333e+02
2391	6.85233e+02	2.39100e+03	5.23514e-04	6.87000e+02
2393	6.85904e+02	2.39300e+03	5.14524e-04	6.87667e+02
2395	6.86562e+02	2.39500e+03	5.10693e-04	6.88333e+02
2397	6.87233e+02	2.39700e+03	5.09479e-04	6.89000e+02
2399	6.87884e+02	2.39900e+03	5.08438e-04	6.89667e+02
2401	6.88543e+02	2.40100e+03	5.06383e-04	6.90333e+02
2403	6.89193e+02	2.40300e+03	5.05793e-04	6.91000e+02
2405	6.89668e+02	2.40500e+03	5.07729e-04	6.91667e+02
2407	6.89997e+02	2.40700e+03	5.14069e-04	6.92333e+02
2409	6.90490e+02	2.40900e+03	5.26444e-04	6.93000e+02
2411	6.90958e+02	2.41100e+03	5.38181e-04	6.93667e+02
2413	6.91394e+02	2.41300e+03	5.43313e-04	6.94333e+02
2415	6.91817e+02	2.41500e+03	5.28214e-04	6.95000e+02
2417	6.92186e+02	2.41700e+03	4.90102e-04	6.95667e+02
2419	6.92554e+02	2.41900e+03	4.55922e-04	6.96333e+02
2421	6.92899e+02	2.42100e+03	4.27203e-04	6.97000e+02
2423	6.93217e+02	2.42300e+03	4.08008e-04	6.97667e+02
2425	6.93515e+02	2.42500e+03	4.02869e-04	6.98333e+02
2427	6.93791e+02	2.42700e+03	3.95743e-04	6.99000e+02
2429	6.94069e+02	2.42900e+03	3.97801e-04	6.99667e+02
2430	6.94188e+02	2.43000e+03	4.03302e-04	7.00000e+02