File: Experiments/TUBS/tga_nonisotherm/tga_dynamic_n2high50_dyn30_piece_3mg_r1.txt
Index	Ts	t	Weight	Tr
[#]	[°C]	[s]	[mg]	[°C]
682	1.30382e+02	6.82000e+02	3.0115	131.0
684	1.31376e+02	6.84000e+02	3.0117	132.0
686	1.32383e+02	6.86000e+02	3.01187	133.0
688	1.33381e+02	6.88000e+02	3.01198	134.0
690	1.34393e+02	6.90000e+02	3.01195	135.0
692	1.35398e+02	6.92000e+02	3.01173	136.0
694	1.36401e+02	6.94000e+02	3.01149	137.0
696	1.37388e+02	6.96000e+02	3.01128	138.0
698	1.38413e+02	6.98000e+02	3.01119	139.0
700	1.39402e+02	7.00000e+02	3.01117	140.0
702	1.40408e+02	7.02000e+02	3.01108	141.0
704	1.41419e+02	7.04000e+02	3.0109	142.0
706	1.42428e+02	7.06000e+02	3.01076	143.0
708	1.43439e+02	7.08000e+02	3.01066	144.0
710	1.44442e+02	7.10000e+02	3.0106	145.0
712	1.45451e+02	7.12000e+02	3.01059	146.0
714	1.46447e+02	7.14000e+02	3.01057	147.0
716	1.47452e+02	7.16000e+02	3.01054	148.0
718	1.48460e+02	7.18000e+02	3.01051	149.0
720	1.49467e+02	7.20000e+02	3.01046	150.0
722	1.50468e+02	7.22000e+02	3.01042	151.0
724	1.51489e+02	7.24000e+02	3.01041	152.0
726	1.52483e+02	7.26000e+02	3.01046	153.0
728	1.53484e+02	7.28000e+02	3.01053	154.0
730	1.54495e+02	7.30000e+02	3.01047	155.0
732	1.55505e+02	7.32000e+02	3.01023	156.0
734	1.56502e+02	7.34000e+02	3.00995	157.0
736	1.57521e+02	7.36000e+02	3.00966	158.0
738	1.58525e+02	7.38000e+02	3.00946	159.0
740	1.59552e+02	7.40000e+02	3.00943	160.0
742	1.60556e+02	7.42000e+02	3.0095	161.0
744	1.61551e+02	7.44000e+02	3.0096	162.0
746	1.62568e+02	7.46000e+02	3.00953	163.0
748	1.63581e+02	7.48000e+02	3.00923	164.0
750	1.64589e+02	7.50000e+02	3.00889	165.0
752	1.65596e+02	7.52000e+02	3.00859	166.0
754	1.66613e+02	7.54000e+02	3.0084	167.0
756	1.67615e+02	7.56000e+02	3.00836	168.0
758	1.68633e+02	7.58000e+02	3.00832	169.0
760	1.69651e+02	7.60000e+02	3.00824	170.0
762	1.70652e+02	7.62000e+02	3.00814	171.0
764	1.71666e+02	7.64000e+02	3.00801	172.0
766	1.72677e+02	7.66000e+02	3.00789	173.0
768	1.73698e+02	7.68000e+02	3.00778	174.0
770	1.74708e+02	7.70000e+02	3.00768	175.0
772	1.75725e+02	7.72000e+02	3.00758	176.0
774	1.76717e+02	7.74000e+02	3.00747	177.0
776	1.77738e+02	7.76000e+02	3.00733	178.0
778	1.78765e+02	7.78000e+02	3.00716	179.0
780	1.79767e+02	7.80000e+02	3.00696	180.0
782	1.80784e+02	7.82000e+02	3.00674	181.0
784	1.81794e+02	7.84000e+02	3.00651	182.0
786	1.82812e+02	7.86000e+02	3.00627	183.0
788	1.83827e+02	7.88000e+02	3.00601	184.0
790	1.84842e+02	7.90000e+02	3.00576	185.0
792	1.85859e+02	7.92000e+02	3.00552	186.0
794	1.86867e+02	7.94000e+02	3.00527	187.0
796	1.87882e+02	7.96000e+02	3.00498	188.0
798	1.88888e+02	7.98000e+02	3.00467	189.0
800	1.89912e+02	8.00000e+02	3.00432	190.0
802	1.90919e+02	8.02000e+02	3.00396	191.0
804	1.91933e+02	8.04000e+02	3.00359	192.0
806	1.92949e+02	8.06000e+02	3.00318	193.0
808	1.93957e+02	8.08000e+02	3.00273	194.0
810	1.94987e+02	8.10000e+02	3.00225	195.0
812	1.95988e+02	8.12000e+02	3.00172	196.0
814	1.97004e+02	8.14000e+02	3.00116	197.0
816	1.98029e+02	8.16000e+02	3.00056	198.0
818	1.99049e+02	8.18000e+02	2.99996	199.0
820	2.00066e+02	8.20000e+02	2.99935	200.0
822	2.01083e+02	8.22000e+02	2.99874	201.0
824	2.02100e+02	8.24000e+02	2.99811	202.0
826	2.03116e+02	8.26000e+02	2.99744	203.0
828	2.04136e+02	8.28000e+02	2.99673	204.0
830	2.05159e+02	8.30000e+02	2.99602	205.0
832	2.06169e+02	8.32000e+02	2.99529	206.0
834	2.07186e+02	8.34000e+02	2.99454	207.0
836	2.08214e+02	8.36000e+02	2.99378	208.0
838	2.09223e+02	8.38000e+02	2.99302	209.0
840	2.10242e+02	8.40000e+02	2.99226	210.0
842	2.11262e+02	8.42000e+02	2.9915	211.0
844	2.12281e+02	8.44000e+02	2.99073	212.0
846	2.13290e+02	8.46000e+02	2.98995	213.0
848	2.14316e+02	8.48000e+02	2.98915	214.0
850	2.15339e+02	8.50000e+02	2.98834	215.0
852	2.16347e+02	8.52000e+02	2.98751	216.0
854	2.17371e+02	8.54000e+02	2.98668	217.0
856	2.18388e+02	8.56000e+02	2.98585	218.0
858	2.19418e+02	8.58000e+02	2.98502	219.0
860	2.20446e+02	8.60000e+02	2.98419	220.0
862	2.21459e+02	8.62000e+02	2.98335	221.0
864	2.22482e+02	8.64000e+02	2.98253	222.0
866	2.23514e+02	8.66000e+02	2.98171	223.0
868	2.24626e+02	8.68000e+02	2.98091	224.0
870	2.25623e+02	8.70000e+02	2.9801	225.0
872	2.26680e+02	8.72000e+02	2.97928	226.0
874	2.27713e+02	8.74000e+02	2.97844	227.0
876	2.28747e+02	8.76000e+02	2.9776	228.0
878	2.29845e+02	8.78000e+02	2.97676	229.0
880	2.30854e+02	8.80000e+02	2.97594	230.0
882	2.31956e+02	8.82000e+02	2.97513	231.0
884	2.32981e+02	8.84000e+02	2.97432	232.0
886	2.34027e+02	8.86000e+02	2.97351	233.0
888	2.35005e+02	8.88000e+02	2.97268	234.0
890	2.36030e+02	8.90000e+02	2.97183	235.0
892	2.37049e+02	8.92000e+02	2.97097	236.0
894	2.38041e+02	8.94000e+02	2.97009	237.0
896	2.39059e+02	8.96000e+02	2.96918	238.0
898	2.40070e+02	8.98000e+02	2.96825	239.0
900	2.41081e+02	9.00000e+02	2.96729	240.0
902	2.42104e+02	9.02000e+02	2.96634	241.0
904	2.43151e+02	9.04000e+02	2.9654	242.0
906	2.44159e+02	9.06000e+02	2.96448	243.0
908	2.45201e+02	9.08000e+02	2.96358	244.0
910	2.46245e+02	9.10000e+02	2.96267	245.0
912	2.47304e+02	9.12000e+02	2.96176	246.0
914	2.48322e+02	9.14000e+02	2.96082	247.0
916	2.49341e+02	9.16000e+02	2.95987	248.0
918	2.50373e+02	9.18000e+02	2.95892	249.0
920	2.51455e+02	9.20000e+02	2.95794	250.0
922	2.52438e+02	9.22000e+02	2.95695	251.0
924	2.53453e+02	9.24000e+02	2.95594	252.0
926	2.54462e+02	9.26000e+02	2.95495	253.0
928	2.55465e+02	9.28000e+02	2.95398	254.0
930	2.56514e+02	9.30000e+02	2.95298	255.0
932	2.57535e+02	9.32000e+02	2.95196	256.0
934	2.58611e+02	9.34000e+02	2.95092	257.0
936	2.59596e+02	9.36000e+02	2.94987	258.0
938	2.60630e+02	9.38000e+02	2.94883	259.0
940	2.61656e+02	9.40000e+02	2.94783	260.0
942	2.62622e+02	9.42000e+02	2.94686	261.0
944	2.63625e+02	9.44000e+02	2.9459	262.0
946	2.64606e+02	9.46000e+02	2.94495	263.0
948	2.65722e+02	9.48000e+02	2.94397	264.0
950	2.66703e+02	9.50000e+02	2.94298	265.0
952	2.67747e+02	9.52000e+02	2.94194	266.0
954	2.68766e+02	9.54000e+02	2.94087	267.0
956	2.69775e+02	9.56000e+02	2.93976	268.0
958	2.70770e+02	9.58000e+02	2.93864	269.0
960	2.71772e+02	9.60000e+02	2.93751	270.0
962	2.72766e+02	9.62000e+02	2.93637	271.0
964	2.73763e+02	9.64000e+02	2.93524	272.0
966	2.74747e+02	9.66000e+02	2.93413	273.0
968	2.75738e+02	9.68000e+02	2.93304	274.0
970	2.76725e+02	9.70000e+02	2.93195	275.0
972	2.77723e+02	9.72000e+02	2.93086	276.0
974	2.78739e+02	9.74000e+02	2.92975	277.0
976	2.79728e+02	9.76000e+02	2.92859	278.0
978	2.80722e+02	9.78000e+02	2.92743	279.0
980	2.81696e+02	9.80000e+02	2.92624	280.0
982	2.82681e+02	9.82000e+02	2.92504	281.0
984	2.83688e+02	9.84000e+02	2.92383	282.0
986	2.84672e+02	9.86000e+02	2.9226	283.0
988	2.85673e+02	9.88000e+02	2.92134	284.0
990	2.86679e+02	9.90000e+02	2.92008	285.0
992	2.87688e+02	9.92000e+02	2.91882	286.0
994	2.88696e+02	9.94000e+02	2.91755	287.0
996	2.89696e+02	9.96000e+02	2.91625	288.0
998	2.90691e+02	9.98000e+02	2.91491	289.0
1000	2.91681e+02	1.00000e+03	2.91352	290.0
1002	2.92636e+02	1.00200e+03	2.91211	291.0
1004	2.93587e+02	1.00400e+03	2.91064	292.0
1006	2.94567e+02	1.00600e+03	2.90913	293.0
1008	2.95520e+02	1.00800e+03	2.90756	294.0
1010	2.96473e+02	1.01000e+03	2.90593	295.0
1012	2.97454e+02	1.01200e+03	2.90422	296.0
1014	2.98423e+02	1.01400e+03	2.90245	297.0
1016	2.99407e+02	1.01600e+03	2.9006	298.0
1018	3.00380e+02	1.01800e+03	2.89868	299.0
1020	3.01361e+02	1.02000e+03	2.89666	300.0
1022	3.02351e+02	1.02200e+03	2.89458	301.0
1024	3.03313e+02	1.02400e+03	2.8924	302.0
1026	3.04287e+02	1.02600e+03	2.89017	303.0
1028	3.05250e+02	1.02800e+03	2.88787	304.0
1030	3.06231e+02	1.03000e+03	2.88554	305.0
1032	3.07207e+02	1.03200e+03	2.88315	306.0
1034	3.08192e+02	1.03400e+03	2.8807	307.0
1036	3.09166e+02	1.03600e+03	2.87815	308.0
1038	3.10131e+02	1.03800e+03	2.87555	309.0
1040	3.11118e+02	1.04000e+03	2.87284	310.0
1042	3.12097e+02	1.04200e+03	2.87008	311.0
1044	3.13084e+02	1.04400e+03	2.86723	312.0
1046	3.14082e+02	1.04600e+03	2.86432	313.0
1048	3.15090e+02	1.04800e+03	2.86132	314.0
1050	3.16097e+02	1.05000e+03	2.85825	315.0
1052	3.17110e+02	1.05200e+03	2.85505	316.0
1054	3.18108e+02	1.05400e+03	2.85176	317.0
1056	3.19108e+02	1.05600e+03	2.84831	318.0
1058	3.20106e+02	1.05800e+03	2.84479	319.0
1060	3.21113e+02	1.06000e+03	2.84112	320.0
1062	3.22108e+02	1.06200e+03	2.83736	321.0
1064	3.23089e+02	1.06400e+03	2.83343	322.0
1066	3.24101e+02	1.06600e+03	2.82941	323.0
1068	3.25108e+02	1.06800e+03	2.82522	324.0
1070	3.26122e+02	1.07000e+03	2.82097	325.0
1072	3.27122e+02	1.07200e+03	2.81663	326.0
1074	3.28151e+02	1.07400e+03	2.81224	327.0
1076	3.29182e+02	1.07600e+03	2.80769	328.0
1078	3.30225e+02	1.07800e+03	2.80293	329.0
1080	3.31251e+02	1.08000e+03	2.79788	330.0
1082	3.32288e+02	1.08200e+03	2.79272	331.0
1084	3.33326e+02	1.08400e+03	2.78746	332.0
1086	3.34364e+02	1.08600e+03	2.78221	333.0
1088	3.35353e+02	1.08800e+03	2.77698	334.0
1090	3.36366e+02	1.09000e+03	2.77172	335.0
1092	3.37390e+02	1.09200e+03	2.76641	336.0
1094	3.38398e+02	1.09400e+03	2.76099	337.0
1096	3.39400e+02	1.09600e+03	2.75537	338.0
1098	3.40423e+02	1.09800e+03	2.74956	339.0
1100	3.41441e+02	1.10000e+03	2.7434	340.0
1102	3.42476e+02	1.10200e+03	2.73698	341.0
1104	3.43549e+02	1.10400e+03	2.73011	342.0
1106	3.44570e+02	1.10600e+03	2.72292	343.0
1108	3.45605e+02	1.10800e+03	2.71518	344.0
1110	3.46612e+02	1.11000e+03	2.70708	345.0
1112	3.47626e+02	1.11200e+03	2.69836	346.0
1114	3.48673e+02	1.11400e+03	2.68922	347.0
1116	3.49707e+02	1.11600e+03	2.67932	348.0
1118	3.50734e+02	1.11800e+03	2.66885	349.0
1120	3.51728e+02	1.12000e+03	2.65734	350.0
1122	3.52731e+02	1.12200e+03	2.64512	351.0
1124	3.53739e+02	1.12400e+03	2.63171	352.0
1126	3.54790e+02	1.12600e+03	2.61766	353.0
1128	3.55785e+02	1.12800e+03	2.60246	354.0
1130	3.56843e+02	1.13000e+03	2.58647	355.0
1132	3.57871e+02	1.13200e+03	2.56907	356.0
1134	3.58845e+02	1.13400e+03	2.55068	357.0
1136	3.59844e+02	1.13600e+03	2.53061	358.0
1138	3.60827e+02	1.13800e+03	2.50946	359.0
1140	3.61825e+02	1.14000e+03	2.48645	360.0
1142	3.62806e+02	1.14200e+03	2.46224	361.0
1144	3.63775e+02	1.14400e+03	2.43594	362.0
1146	3.64775e+02	1.14600e+03	2.40834	363.0
1148	3.65769e+02	1.14800e+03	2.37864	364.0
1150	3.66728e+02	1.15000e+03	2.34776	365.0
1152	3.67707e+02	1.15200e+03	2.31478	366.0
1154	3.68686e+02	1.15400e+03	2.28051	367.0
1156	3.69685e+02	1.15600e+03	2.24419	368.0
1158	3.70657e+02	1.15800e+03	2.20691	369.0
1160	3.71650e+02	1.16000e+03	2.16796	370.0
1162	3.72622e+02	1.16200e+03	2.12789	371.0
1164	3.73603e+02	1.16400e+03	2.08593	372.0
1166	3.74613e+02	1.16600e+03	2.04286	373.0
1168	3.75585e+02	1.16800e+03	1.9981	374.0
1170	3.76563e+02	1.17000e+03	1.95261	375.0
1172	3.77578e+02	1.17200e+03	1.90588	376.0
1174	3.78613e+02	1.17400e+03	1.85842	377.0
1176	3.79607e+02	1.17600e+03	1.80984	378.0
1178	3.80604e+02	1.17800e+03	1.76076	379.0
1180	3.81586e+02	1.18000e+03	1.71083	380.0
1182	3.82575e+02	1.18200e+03	1.66041	381.0
1184	3.83562e+02	1.18400e+03	1.60926	382.0
1186	3.84560e+02	1.18600e+03	1.5578	383.0
1188	3.85557e+02	1.18800e+03	1.50589	384.0
1190	3.86548e+02	1.19000e+03	1.45382	385.0
1192	3.87547e+02	1.19200e+03	1.40139	386.0
1194	3.88533e+02	1.19400e+03	1.34878	387.0
1196	3.89545e+02	1.19600e+03	1.29589	388.0
1198	3.90544e+02	1.19800e+03	1.2429	389.0
1200	3.91542e+02	1.20000e+03	1.18975	390.0
1202	3.92566e+02	1.20200e+03	1.13659	391.0
1204	3.93572e+02	1.20400e+03	1.0834	392.0
1206	3.94583e+02	1.20600e+03	1.03012	393.0
1208	3.95581e+02	1.20800e+03	0.976532	394.0
1210	3.96566e+02	1.21000e+03	0.922459	395.0
1212	3.97581e+02	1.21200e+03	0.867635	396.0
1214	3.98593e+02	1.21400e+03	0.812578	397.0
1216	3.99614e+02	1.21600e+03	0.757367	398.0
1218	4.00618e+02	1.21800e+03	0.702697	399.0
1220	4.01652e+02	1.22000e+03	0.649182	400.0
1222	4.02669e+02	1.22200e+03	0.596894	401.0
1224	4.03692e+02	1.22400e+03	0.546797	402.0
1226	4.04735e+02	1.22600e+03	0.498282	403.0
1228	4.05762e+02	1.22800e+03	0.452589	404.0
1230	4.06804e+02	1.23000e+03	0.40883	405.0
1232	4.07835e+02	1.23200e+03	0.368376	406.0
1234	4.08856e+02	1.23400e+03	0.329938	407.0
1236	4.09872e+02	1.23600e+03	0.294906	408.0
1238	4.10889e+02	1.23800e+03	0.261837	409.0
1240	4.11917e+02	1.24000e+03	0.232008	410.0
1242	4.12925e+02	1.24200e+03	0.203898	411.0
1244	4.13952e+02	1.24400e+03	0.178633	412.0
1246	4.14960e+02	1.24600e+03	0.154936	413.0
1248	4.15985e+02	1.24800e+03	0.133836	414.0
1250	4.17019e+02	1.25000e+03	0.114109	415.0
1252	4.18013e+02	1.25200e+03	0.0966404	416.0
1254	4.19045e+02	1.25400e+03	0.0803705	417.0
1256	4.20092e+02	1.25600e+03	0.0661391	418.0
1258	4.21073e+02	1.25800e+03	0.0529658	419.0
1260	4.22084e+02	1.26000e+03	0.041381	420.0
1262	4.23112e+02	1.26200e+03	0.0304939	421.0
1264	4.24131e+02	1.26400e+03	0.0209474	422.0
1266	4.25150e+02	1.26600e+03	0.0123916	423.0
1268	4.26175e+02	1.26800e+03	0.00536643	424.0
1270	4.27181e+02	1.27000e+03	-0.00106146	425.0
1272	4.28200e+02	1.27200e+03	-0.00657653	426.0
1274	4.29202e+02	1.27400e+03	-0.0117475	427.0
1276	4.30206e+02	1.27600e+03	-0.0162939	428.0
1278	4.31206e+02	1.27800e+03	-0.0204189	429.0
1280	4.32200e+02	1.28000e+03	-0.0238617	430.0
1282	4.33227e+02	1.28200e+03	-0.0269684	431.0
1284	4.34215e+02	1.28400e+03	-0.0295343	432.0
1286	4.35221e+02	1.28600e+03	-0.0318634	433.0
1288	4.36220e+02	1.28800e+03	-0.0338294	434.0
1290	4.37213e+02	1.29000e+03	-0.0356603	435.0
1292	4.38210e+02	1.29200e+03	-0.0372582	436.0
1294	4.39217e+02	1.29400e+03	-0.0387213	437.0
1296	4.40201e+02	1.29600e+03	-0.0399654	438.0
1298	4.41189e+02	1.29800e+03	-0.0411252	439.0
1300	4.42181e+02	1.30000e+03	-0.042185	440.0
1302	4.43175e+02	1.30200e+03	-0.0432403	441.0
1304	4.44176e+02	1.30400e+03	-0.0442359	442.0
1306	4.45170e+02	1.30600e+03	-0.045096	443.0
1308	4.46159e+02	1.30800e+03	-0.0457567	444.0
1310	4.47157e+02	1.31000e+03	-0.0463666	445.0
1312	4.48154e+02	1.31200e+03	-0.0469157	446.0
1314	4.49124e+02	1.31400e+03	-0.0474731	447.0
1316	4.50107e+02	1.31600e+03	-0.0480189	448.0
1318	4.51092e+02	1.31800e+03	-0.0485062	449.0
1320	4.52075e+02	1.32000e+03	-0.0488811	450.0
1322	4.53043e+02	1.32200e+03	-0.0491757	451.0
1324	4.54036e+02	1.32400e+03	-0.0493679	452.0
1326	4.54990e+02	1.32600e+03	-0.0495672	453.0
1328	4.55969e+02	1.32800e+03	-0.0497918	454.0
1330	4.56944e+02	1.33000e+03	-0.0500399	455.0
1332	4.57913e+02	1.33200e+03	-0.0503063	456.0
1334	4.58883e+02	1.33400e+03	-0.050544	457.0
1336	4.59879e+02	1.33600e+03	-0.0507355	458.0
1338	4.60842e+02	1.33800e+03	-0.0508985	459.0
1340	4.61821e+02	1.34000e+03	-0.0510183	460.0
1342	4.62791e+02	1.34200e+03	-0.0511265	461.0
1344	4.63778e+02	1.34400e+03	-0.0512092	462.0
1346	4.64751e+02	1.34600e+03	-0.0512755	463.0
1348	4.65734e+02	1.34800e+03	-0.0513133	464.0
1350	4.66714e+02	1.35000e+03	-0.0513356	465.0
1352	4.67688e+02	1.35200e+03	-0.0513511	466.0
1354	4.68679e+02	1.35400e+03	-0.0513993	467.0
1356	4.69672e+02	1.35600e+03	-0.0514994	468.0
1358	4.70651e+02	1.35800e+03	-0.0516211	469.0
1360	4.71630e+02	1.36000e+03	-0.0517595	470.0
1362	4.72612e+02	1.36200e+03	-0.0518639	471.0
1364	4.73595e+02	1.36400e+03	-0.0519103	472.0
1366	4.74570e+02	1.36600e+03	-0.0519254	473.0
1368	4.75555e+02	1.36800e+03	-0.0519126	474.0
1370	4.76540e+02	1.37000e+03	-0.0519196	475.0
1372	4.77526e+02	1.37200e+03	-0.0519573	476.0
1374	4.78529e+02	1.37400e+03	-0.052015	477.0
1376	4.79525e+02	1.37600e+03	-0.0521014	478.0
1378	4.80536e+02	1.37800e+03	-0.0521869	479.0
1380	4.81509e+02	1.38000e+03	-0.0522615	480.0
1382	4.82494e+02	1.38200e+03	-0.0523154	481.0
1384	4.83475e+02	1.38400e+03	-0.0523479	482.0
1386	4.84442e+02	1.38600e+03	-0.0523868	483.0
1388	4.85418e+02	1.38800e+03	-0.0524359	484.0
1390	4.86401e+02	1.39000e+03	-0.0525004	485.0
1392	4.87374e+02	1.39200e+03	-0.0525903	486.0
1394	4.88368e+02	1.39400e+03	-0.0526901	487.0
1396	4.89359e+02	1.39600e+03	-0.0527974	488.0
1398	4.90304e+02	1.39800e+03	-0.0528939	489.0
1400	4.91262e+02	1.40000e+03	-0.0529802	490.0
1402	4.92224e+02	1.40200e+03	-0.0530642	491.0
1404	4.93185e+02	1.40400e+03	-0.0531344	492.0
1406	4.94169e+02	1.40600e+03	-0.0531836	493.0
1408	4.95138e+02	1.40800e+03	-0.0532065	494.0
1410	4.96122e+02	1.41000e+03	-0.0532345	495.0
1412	4.97084e+02	1.41200e+03	-0.0532668	496.0
1414	4.98056e+02	1.41400e+03	-0.0533003	497.0
1416	4.99039e+02	1.41600e+03	-0.0533402	498.0
1418	4.99997e+02	1.41800e+03	-0.0533841	499.0
1420	5.00987e+02	1.42000e+03	-0.0534332	500.0
1422	5.01970e+02	1.42200e+03	-0.0534775	501.0
1424	5.02945e+02	1.42400e+03	-0.0535161	502.0
1426	5.03948e+02	1.42600e+03	-0.0535557	503.0
1428	5.04911e+02	1.42800e+03	-0.053596	504.0
1430	5.05891e+02	1.43000e+03	-0.0536392	505.0
1432	5.06877e+02	1.43200e+03	-0.0536887	506.0
1434	5.07856e+02	1.43400e+03	-0.0537468	507.0
1436	5.08816e+02	1.43600e+03	-0.0538372	508.0
1438	5.09803e+02	1.43800e+03	-0.0539536	509.0
1440	5.10796e+02	1.44000e+03	-0.0540702	510.0
1442	5.11784e+02	1.44200e+03	-0.0541206	511.0
1444	5.12768e+02	1.44400e+03	-0.0540905	512.0
1446	5.13760e+02	1.44600e+03	-0.054068	513.0
1448	5.14722e+02	1.44800e+03	-0.0540679	514.0
1450	5.15698e+02	1.45000e+03	-0.0541043	515.0
1452	5.16680e+02	1.45200e+03	-0.0541884	516.0
1454	5.17679e+02	1.45400e+03	-0.0542727	517.0
1456	5.18654e+02	1.45600e+03	-0.0543546	518.0
1458	5.19631e+02	1.45800e+03	-0.0544214	519.0
1460	5.20614e+02	1.46000e+03	-0.0544644	520.0
1462	5.21596e+02	1.46200e+03	-0.0544873	521.0
1464	5.22576e+02	1.46400e+03	-0.0544467	522.0
1466	5.23543e+02	1.46600e+03	-0.0543341	523.0
1468	5.24522e+02	1.46800e+03	-0.0541606	524.0
1470	5.25506e+02	1.47000e+03	-0.0540605	525.0
1472	5.26508e+02	1.47200e+03	-0.0540732	526.0
1474	5.27478e+02	1.47400e+03	-0.0541436	527.0
1476	5.28475e+02	1.47600e+03	-0.0542958	528.0
1478	5.29446e+02	1.47800e+03	-0.0544891	529.0
1480	5.30423e+02	1.48000e+03	-0.0547713	530.0
1482	5.31405e+02	1.48200e+03	-0.0550845	531.0
1484	5.32387e+02	1.48400e+03	-0.0553915	532.0
1486	5.33368e+02	1.48600e+03	-0.0555829	533.0
1488	5.34371e+02	1.48800e+03	-0.0556046	534.0
1490	5.35360e+02	1.49000e+03	-0.0555808	535.0
1492	5.36344e+02	1.49200e+03	-0.0555032	536.0
1494	5.37342e+02	1.49400e+03	-0.0554408	537.0
1496	5.38331e+02	1.49600e+03	-0.0554021	538.0
1498	5.39337e+02	1.49800e+03	-0.0553795	539.0
1500	5.40337e+02	1.50000e+03	-0.0553893	540.0
1502	5.41335e+02	1.50200e+03	-0.055413	541.0
1504	5.42331e+02	1.50400e+03	-0.0554452	542.0
1506	5.43336e+02	1.50600e+03	-0.0554596	543.0
1508	5.44330e+02	1.50800e+03	-0.0554534	544.0
1510	5.45328e+02	1.51000e+03	-0.0554592	545.0
1512	5.46319e+02	1.51200e+03	-0.0554871	546.0
1514	5.47323e+02	1.51400e+03	-0.0555301	547.0
1516	5.48326e+02	1.51600e+03	-0.0556018	548.0
1518	5.49314e+02	1.51800e+03	-0.0556935	549.0
1520	5.50338e+02	1.52000e+03	-0.0557825	550.0
1522	5.51328e+02	1.52200e+03	-0.0558226	551.0
1524	5.52354e+02	1.52400e+03	-0.0558024	552.0
1526	5.53392e+02	1.52600e+03	-0.0557903	553.0
1528	5.54396e+02	1.52800e+03	-0.0558026	554.0
1530	5.55362e+02	1.53000e+03	-0.05585	555.0
1532	5.56359e+02	1.53200e+03	-0.055934	556.0
1534	5.57359e+02	1.53400e+03	-0.0560107	557.0
1536	5.58331e+02	1.53600e+03	-0.056071	558.0
1538	5.59320e+02	1.53800e+03	-0.0561254	559.0
1540	5.60285e+02	1.54000e+03	-0.0561731	560.0
1542	5.61273e+02	1.54200e+03	-0.0562222	561.0
1544	5.62287e+02	1.54400e+03	-0.0562723	562.0
1546	5.63272e+02	1.54600e+03	-0.056314	563.0
1548	5.64313e+02	1.54800e+03	-0.0563366	564.0
1550	5.65289e+02	1.55000e+03	-0.0563483	565.0
1552	5.66227e+02	1.55200e+03	-0.0563468	566.0
1554	5.67174e+02	1.55400e+03	-0.0563515	567.0
1556	5.68151e+02	1.55600e+03	-0.0563664	568.0
1558	5.69149e+02	1.55800e+03	-0.0563807	569.0
1560	5.70130e+02	1.56000e+03	-0.0563909	570.0
1562	5.71151e+02	1.56200e+03	-0.0563887	571.0
1564	5.72149e+02	1.56400e+03	-0.0563757	572.0
1566	5.73171e+02	1.56600e+03	-0.0563712	573.0
1568	5.74173e+02	1.56800e+03	-0.0563833	574.0
1570	5.75209e+02	1.57000e+03	-0.0564048	575.0
1572	5.76303e+02	1.57200e+03	-0.0564369	576.0
1574	5.77423e+02	1.57400e+03	-0.0564701	577.0
1576	5.78437e+02	1.57600e+03	-0.0565044	578.0
1578	5.79530e+02	1.57800e+03	-0.0565355	579.0
1580	5.80607e+02	1.58000e+03	-0.056554	580.0
1582	5.81612e+02	1.58200e+03	-0.0565567	581.0
1584	5.83728e+02	1.58400e+03	-0.0565365	582.0
1586	5.84615e+02	1.58600e+03	-0.0565139	583.0
1588	5.85559e+02	1.58800e+03	-0.0564875	584.0
1590	5.86538e+02	1.59000e+03	-0.0564656	585.0
1592	5.87507e+02	1.59200e+03	-0.0564516	586.0
1594	5.88505e+02	1.59400e+03	-0.0564443	587.0
1596	5.89485e+02	1.59600e+03	-0.0564473	588.0
1598	5.90475e+02	1.59800e+03	-0.0564625	589.0
1600	5.91461e+02	1.60000e+03	-0.0565063	590.0
1602	5.92459e+02	1.60200e+03	-0.0565702	591.0
1604	5.93450e+02	1.60400e+03	-0.0566566	592.0
1606	5.94434e+02	1.60600e+03	-0.0567225	593.0
1608	5.95419e+02	1.60800e+03	-0.0567515	594.0
1610	5.96411e+02	1.61000e+03	-0.056751	595.0
1612	5.97398e+02	1.61200e+03	-0.0567129	596.0
1614	5.98387e+02	1.61400e+03	-0.0566749	597.0
1616	5.99366e+02	1.61600e+03	-0.0566404	598.0
1618	6.00347e+02	1.61800e+03	-0.0566158	599.0
1620	6.01308e+02	1.62000e+03	-0.0566137	600.0
1622	6.02280e+02	1.62200e+03	-0.0566275	601.0
1624	6.03264e+02	1.62400e+03	-0.056663	602.0
1626	6.04234e+02	1.62600e+03	-0.0566931	603.0
1628	6.05221e+02	1.62800e+03	-0.0567105	604.0
1630	6.06200e+02	1.63000e+03	-0.056716	605.0
1632	6.07191e+02	1.63200e+03	-0.0567096	606.0
1634	6.08179e+02	1.63400e+03	-0.0567146	607.0
1636	6.09173e+02	1.63600e+03	-0.0567367	608.0
1638	6.10143e+02	1.63800e+03	-0.0567616	609.0
1640	6.11131e+02	1.64000e+03	-0.0567862	610.0
1642	6.12119e+02	1.64200e+03	-0.0567984	611.0
1644	6.13081e+02	1.64400e+03	-0.0567918	612.0
1646	6.14072e+02	1.64600e+03	-0.0567814	613.0
1648	6.15054e+02	1.64800e+03	-0.0567718	614.0
1650	6.16046e+02	1.65000e+03	-0.0567731	615.0
1652	6.17042e+02	1.65200e+03	-0.0567871	616.0
1654	6.18024e+02	1.65400e+03	-0.0568013	617.0
1656	6.19010e+02	1.65600e+03	-0.0568175	618.0
1658	6.19998e+02	1.65800e+03	-0.0568475	619.0
1660	6.20977e+02	1.66000e+03	-0.0568896	620.0
1662	6.21964e+02	1.66200e+03	-0.0569188	621.0
1664	6.22949e+02	1.66400e+03	-0.0569278	622.0
1666	6.23940e+02	1.66600e+03	-0.0569234	623.0
1668	6.24921e+02	1.66800e+03	-0.0569071	624.0
1670	6.25914e+02	1.67000e+03	-0.0569021	625.0
1672	6.26895e+02	1.67200e+03	-0.0569127	626.0
1674	6.27882e+02	1.67400e+03	-0.0569293	627.0
1676	6.28868e+02	1.67600e+03	-0.0569543	628.0
1678	6.29863e+02	1.67800e+03	-0.0569821	629.0
1680	6.30862e+02	1.68000e+03	-0.0570068	630.0
1682	6.31830e+02	1.68200e+03	-0.0570168	631.0
1684	6.32823e+02	1.68400e+03	-0.0570053	632.0
1686	6.33807e+02	1.68600e+03	-0.0569925	633.0
1688	6.34811e+02	1.68800e+03	-0.0569942	634.0
1690	6.35816e+02	1.69000e+03	-0.0570227	635.0
1692	6.36803e+02	1.69200e+03	-0.057079	636.0
1694	6.37787e+02	1.69400e+03	-0.0571188	637.0
1696	6.38775e+02	1.69600e+03	-0.0571375	638.0
1698	6.39738e+02	1.69800e+03	-0.0571466	639.0
1700	6.40717e+02	1.70000e+03	-0.0571479	640.0
1702	6.41760e+02	1.70200e+03	-0.0571611	641.0
1704	6.42801e+02	1.70400e+03	-0.0571887	642.0
1706	6.43803e+02	1.70600e+03	-0.0572196	643.0
1708	6.44795e+02	1.70800e+03	-0.0572537	644.0
1710	6.45790e+02	1.71000e+03	-0.0572856	645.0
1712	6.46810e+02	1.71200e+03	-0.0573183	646.0
1714	6.47834e+02	1.71400e+03	-0.0573516	647.0
1716	6.48820e+02	1.71600e+03	-0.0573783	648.0
1718	6.49782e+02	1.71800e+03	-0.0573887	649.0
1720	6.50765e+02	1.72000e+03	-0.0573759	650.0
1722	6.51710e+02	1.72200e+03	-0.0573579	651.0
1724	6.52672e+02	1.72400e+03	-0.0573334	652.0
1726	6.53637e+02	1.72600e+03	-0.0573183	653.0
1728	6.54603e+02	1.72800e+03	-0.0573242	654.0
1730	6.55594e+02	1.73000e+03	-0.0573459	655.0
1732	6.56549e+02	1.73200e+03	-0.0573797	656.0
1734	6.57528e+02	1.73400e+03	-0.0573967	657.0
1736	6.58508e+02	1.73600e+03	-0.0573935	658.0
1738	6.59487e+02	1.73800e+03	-0.05739	659.0
1740	6.60484e+02	1.74000e+03	-0.0573933	660.0
1742	6.61465e+02	1.74200e+03	-0.0574247	661.0
1744	6.62443e+02	1.74400e+03	-0.0575034	662.0
1746	6.63436e+02	1.74600e+03	-0.0575958	663.0
1748	6.64402e+02	1.74800e+03	-0.0576736	664.0
1750	6.65387e+02	1.75000e+03	-0.0576959	665.0
1752	6.66361e+02	1.75200e+03	-0.0576402	666.0
1754	6.67355e+02	1.75400e+03	-0.0575737	667.0
1756	6.68323e+02	1.75600e+03	-0.0575007	668.0
1758	6.69301e+02	1.75800e+03	-0.0574529	669.0
1760	6.70282e+02	1.76000e+03	-0.0574514	670.0
1762	6.71255e+02	1.76200e+03	-0.057469	671.0
1764	6.72221e+02	1.76400e+03	-0.0575024	672.0
1766	6.73183e+02	1.76600e+03	-0.057517	673.0
1768	6.74166e+02	1.76800e+03	-0.057499	674.0
1770	6.75144e+02	1.77000e+03	-0.0574675	675.0
1772	6.76127e+02	1.77200e+03	-0.057414	676.0
1774	6.77111e+02	1.77400e+03	-0.0573501	677.0
1776	6.78102e+02	1.77600e+03	-0.0572792	678.0
1778	6.79097e+02	1.77800e+03	-0.0572267	679.0
1780	6.80089e+02	1.78000e+03	-0.0572002	680.0
1782	6.81071e+02	1.78200e+03	-0.0571966	681.0
1784	6.82042e+02	1.78400e+03	-0.0572217	682.0
1786	6.83008e+02	1.78600e+03	-0.0572429	683.0
1788	6.83974e+02	1.78800e+03	-0.0572588	684.0
1790	6.84959e+02	1.79000e+03	-0.057281	685.0
1792	6.85945e+02	1.79200e+03	-0.0573209	686.0
1794	6.86959e+02	1.79400e+03	-0.0573864	687.0
1796	6.87345e+02	1.79600e+03	-0.0574608	688.0
1798	6.88004e+02	1.79800e+03	-0.0575009	689.0
1800	6.88726e+02	1.80000e+03	-0.0574997	690.0
1802	6.89411e+02	1.80200e+03	-0.0575187	691.0
1804	6.90052e+02	1.80400e+03	-0.0575716	692.0
1806	6.90636e+02	1.80600e+03	-0.0576316	693.0
1808	6.91178e+02	1.80800e+03	-0.0576838	694.0
1810	6.91700e+02	1.81000e+03	-0.0576897	695.0
1812	6.92188e+02	1.81200e+03	-0.0576312	696.0
1814	6.92641e+02	1.81400e+03	-0.0575661	697.0
1816	6.93051e+02	1.81600e+03	-0.0575046	698.0
1818	6.93458e+02	1.81800e+03	-0.0574752	699.0
1820	6.93835e+02	1.82000e+03	-0.0574911	700.0
1822	6.94180e+02	1.82200e+03	-0.0575203	700.0
1824	6.94521e+02	1.82400e+03	-0.0575626	700.0
1826	6.94848e+02	1.82600e+03	-0.0575937	700.0
1828	6.95142e+02	1.82800e+03	-0.0576061	700.0
1830	6.95435e+02	1.83000e+03	-0.0576042	700.0
1832	6.95680e+02	1.83200e+03	-0.0576019	700.0
1834	6.95934e+02	1.83400e+03	-0.0576352	700.0
1836	6.96175e+02	1.83600e+03	-0.0577077	700.0
1838	6.96386e+02	1.83800e+03	-0.0577616	700.0
1840	6.96604e+02	1.84000e+03	-0.0577792	700.0
1842	6.96803e+02	1.84200e+03	-0.0577634	700.0
1844	6.97001e+02	1.84400e+03	-0.0577017	700.0
1846	6.97179e+02	1.84600e+03	-0.0576461	700.0
1848	6.97346e+02	1.84800e+03	-0.0576136	700.0
1850	6.97513e+02	1.85000e+03	-0.05761	700.0
1852	6.97672e+02	1.85200e+03	-0.0576481	700.0
1854	6.97816e+02	1.85400e+03	-0.0576845	700.0
1856	6.97947e+02	1.85600e+03	-0.057717	700.0
1858	6.98084e+02	1.85800e+03	-0.0577487	700.0
1860	6.98196e+02	1.86000e+03	-0.0577681	700.0
1862	6.98318e+02	1.86200e+03	-0.0577752	700.0
1864	6.98416e+02	1.86400e+03	-0.0577625	700.0
1866	6.98532e+02	1.86600e+03	-0.0577387	700.0
1868	6.98629e+02	1.86800e+03	-0.0576993	700.0
1870	6.98729e+02	1.87000e+03	-0.057659	700.0
1872	6.98823e+02	1.87200e+03	-0.0576294	700.0
1874	6.98911e+02	1.87400e+03	-0.057622	700.0
1876	6.98993e+02	1.87600e+03	-0.0576484	700.0
1878	6.99076e+02	1.87800e+03	-0.0576796	700.0
1880	6.99156e+02	1.88000e+03	-0.0577125	700.0
1882	6.99225e+02	1.88200e+03	-0.0577431	700.0
1884	6.99296e+02	1.88400e+03	-0.0577739	700.0
1886	6.99354e+02	1.88600e+03	-0.0578043	700.0
1888	6.99409e+02	1.88800e+03	-0.0578349	700.0
1890	6.99471e+02	1.89000e+03	-0.0578577	700.0
1892	6.99517e+02	1.89200e+03	-0.0578645	700.0
1894	6.99567e+02	1.89400e+03	-0.0578589	700.0
1896	6.99610e+02	1.89600e+03	-0.0578368	700.0
1898	6.99654e+02	1.89800e+03	-0.0578134	700.0
1900	6.99694e+02	1.90000e+03	-0.0577918	700.0
1902	6.99734e+02	1.90200e+03	-0.0577892	700.0
1904	6.99764e+02	1.90400e+03	-0.0578053	700.0
1906	6.99805e+02	1.90600e+03	-0.0578208	700.0
1908	6.99852e+02	1.90800e+03	-0.0578258	700.0
1910	6.99877e+02	1.91000e+03	-0.0577705	700.0
1912	6.99917e+02	1.91200e+03	-0.0576535	700.0
1914	6.99929e+02	1.91400e+03	-0.0576153	700.0
1916	6.99973e+02	1.91600e+03	-0.0577196	700.0
1918	6.99991e+02	1.91800e+03	-0.0578874	700.0
1920	7.00013e+02	1.92000e+03	-0.0581046	700.0
1922	7.00038e+02	1.92200e+03	-0.0582282	700.0
1924	7.00063e+02	1.92400e+03	-0.058216	700.0
1926	7.00087e+02	1.92600e+03	-0.058151	700.0
1928	7.00123e+02	1.92800e+03	-0.0579813	700.0
1930	7.00140e+02	1.93000e+03	-0.0577794	700.0
1932	7.00157e+02	1.93200e+03	-0.0575859	700.0
1934	7.00180e+02	1.93400e+03	-0.0575101	700.0
1936	7.00193e+02	1.93600e+03	-0.0576432	700.0
1938	7.00214e+02	1.93800e+03	-0.0578713	700.0
1940	7.00241e+02	1.94000e+03	-0.0581861	700.0
1942	7.00251e+02	1.94200e+03	-0.0584083	700.0
1944	7.00272e+02	1.94400e+03	-0.0584867	700.0
1946	7.00292e+02	1.94600e+03	-0.058494	700.0
1948	7.00317e+02	1.94800e+03	-0.0583743	700.0
1950	7.00330e+02	1.95000e+03	-0.0581795	700.0
1952	7.00335e+02	1.95200e+03	-0.0579399	700.0
1954	7.00348e+02	1.95400e+03	-0.0578261	700.0
1956	7.00367e+02	1.95600e+03	-0.0578848	700.0
1958	7.00373e+02	1.95800e+03	-0.0579764	700.0
1960	7.00392e+02	1.96000e+03	-0.0580877	700.0
1962	7.00396e+02	1.96200e+03	-0.0581414	700.0
1964	7.00418e+02	1.96400e+03	-0.0581172	700.0
1966	7.00422e+02	1.96600e+03	-0.0580796	700.0
1968	7.00439e+02	1.96800e+03	-0.0580173	700.0
1970	7.00444e+02	1.97000e+03	-0.0579404	700.0
1972	7.00454e+02	1.97200e+03	-0.0578495	700.0
1974	7.00466e+02	1.97400e+03	-0.0577619	700.0
1976	7.00478e+02	1.97600e+03	-0.057684	700.0
1978	7.00491e+02	1.97800e+03	-0.0576238	700.0
1980	7.00493e+02	1.98000e+03	-0.0576007	700.0
1982	7.00495e+02	1.98200e+03	-0.0576087	700.0
1984	7.00496e+02	1.98400e+03	-0.0576607	700.0
1986	7.00510e+02	1.98600e+03	-0.057721	700.0
1988	7.00516e+02	1.98800e+03	-0.0577884	700.0
1990	7.00516e+02	1.99000e+03	-0.0578467	700.0
1992	7.00516e+02	1.99200e+03	-0.0578931	700.0
1994	7.00531e+02	1.99400e+03	-0.05794	700.0
1996	7.00530e+02	1.99600e+03	-0.057991	700.0
1998	7.00540e+02	1.99800e+03	-0.0580471	700.0
2000	7.00552e+02	2.00000e+03	-0.0581033	700.0
2002	7.00553e+02	2.00200e+03	-0.0581453	700.0
2004	7.00556e+02	2.00400e+03	-0.0581642	700.0
2006	7.00557e+02	2.00600e+03	-0.0581674	700.0
2008	7.00563e+02	2.00800e+03	-0.0581421	700.0
2010	7.00567e+02	2.01000e+03	-0.0581169	700.0
2012	7.00589e+02	2.01200e+03	-0.0580965	700.0
2014	7.00572e+02	2.01400e+03	-0.0580813	700.0
2016	7.00580e+02	2.01600e+03	-0.0580807	700.0
2018	7.00585e+02	2.01800e+03	-0.0580903	700.0
2020	7.00588e+02	2.02000e+03	-0.0581173	700.0
2022	7.00577e+02	2.02200e+03	-0.0581459	700.0
2024	7.00592e+02	2.02400e+03	-0.0581817	700.0
2026	7.00595e+02	2.02600e+03	-0.0582197	700.0
2028	7.00596e+02	2.02800e+03	-0.0582534	700.0
2030	7.00599e+02	2.03000e+03	-0.0582724	700.0
2032	7.00601e+02	2.03200e+03	-0.0582804	700.0
2034	7.00605e+02	2.03400e+03	-0.0582911	700.0
2036	7.00599e+02	2.03600e+03	-0.0583011	700.0
2038	7.00607e+02	2.03800e+03	-0.0583034	700.0
2040	7.00605e+02	2.04000e+03	-0.0582952	700.0
2042	7.00608e+02	2.04200e+03	-0.0582848	700.0
2044	7.00608e+02	2.04400e+03	-0.0582726	700.0
2046	7.00611e+02	2.04600e+03	-0.0582618	700.0
2048	7.00611e+02	2.04800e+03	-0.0582503	700.0
2050	7.00618e+02	2.05000e+03	-0.0582294	700.0
2052	7.00613e+02	2.05200e+03	-0.0582114	700.0
2054	7.00612e+02	2.05400e+03	-0.0582064	700.0
2056	7.00613e+02	2.05600e+03	-0.0582172	700.0
2058	7.00616e+02	2.05800e+03	-0.0582234	700.0
2060	7.00615e+02	2.06000e+03	-0.0582127	700.0
2062	7.00618e+02	2.06200e+03	-0.0581872	700.0
2064	7.00624e+02	2.06400e+03	-0.0581536	700.0
2066	7.00622e+02	2.06600e+03	-0.0581404	700.0
2068	7.00619e+02	2.06800e+03	-0.0581555	700.0
2070	7.00621e+02	2.07000e+03	-0.0581763	700.0
2072	7.00622e+02	2.07200e+03	-0.0582036	700.0
2074	7.00618e+02	2.07400e+03	-0.0582276	700.0
2076	7.00629e+02	2.07600e+03	-0.0582361	700.0
2078	7.00631e+02	2.07800e+03	-0.0582407	700.0
2080	7.00619e+02	2.08000e+03	-0.0582426	700.0
2082	7.00630e+02	2.08200e+03	-0.0582519	700.0
2084	7.00625e+02	2.08400e+03	-0.0582671	700.0
2086	7.00625e+02	2.08600e+03	-0.0582724	700.0
2088	7.00622e+02	2.08800e+03	-0.0582605	700.0
2090	7.00625e+02	2.09000e+03	-0.0582383	700.0
2092	7.00630e+02	2.09200e+03	-0.0582029	700.0
2094	7.00637e+02	2.09400e+03	-0.058172	700.0
2096	7.00643e+02	2.09600e+03	-0.0581551	700.0
2098	7.00632e+02	2.09800e+03	-0.0581571	700.0
2100	7.00639e+02	2.10000e+03	-0.0581876	700.0
2102	7.00629e+02	2.10200e+03	-0.0582282	700.0
2104	7.00635e+02	2.10400e+03	-0.0582801	700.0
2106	7.00634e+02	2.10600e+03	-0.0583269	700.0
2108	7.00639e+02	2.10800e+03	-0.0583598	700.0
2110	7.00638e+02	2.11000e+03	-0.0583638	700.0
2112	7.00634e+02	2.11200e+03	-0.05832	700.0
2114	7.00639e+02	2.11400e+03	-0.0582528	700.0
2116	7.00642e+02	2.11600e+03	-0.0581652	700.0
2118	7.00635e+02	2.11800e+03	-0.0581017	700.0
2120	7.00643e+02	2.12000e+03	-0.0580722	700.0
2122	7.00636e+02	2.12200e+03	-0.0580563	700.0
2124	7.00635e+02	2.12400e+03	-0.0580619	700.0
2126	7.00636e+02	2.12600e+03	-0.0580745	700.0
2128	7.00635e+02	2.12800e+03	-0.0580985	700.0
2130	7.00640e+02	2.13000e+03	-0.0581262	700.0
2132	7.00634e+02	2.13200e+03	-0.058158	700.0
2134	7.00640e+02	2.13400e+03	-0.0581904	700.0
2136	7.00628e+02	2.13600e+03	-0.058228	700.0
2138	7.00637e+02	2.13800e+03	-0.0582768	700.0
2140	7.00632e+02	2.14000e+03	-0.0583434	700.0
2142	7.00638e+02	2.14200e+03	-0.0584123	700.0
2144	7.00641e+02	2.14400e+03	-0.0584729	700.0
2146	7.00636e+02	2.14600e+03	-0.0585096	700.0
2148	7.00637e+02	2.14800e+03	-0.0585118	700.0
2150	7.00638e+02	2.15000e+03	-0.0585061	700.0
2152	7.00639e+02	2.15200e+03	-0.0584947	700.0
2154	7.00638e+02	2.15400e+03	-0.0584937	700.0
2156	7.00635e+02	2.15600e+03	-0.0585051	700.0
2158	7.00645e+02	2.15800e+03	-0.0585074	700.0
2160	7.00635e+02	2.16000e+03	-0.058494	700.0
2162	7.00626e+02	2.16200e+03	-0.058478	700.0
2164	7.00627e+02	2.16400e+03	-0.0584596	700.0
2166	7.00630e+02	2.16600e+03	-0.0584487	700.0
2168	7.00631e+02	2.16800e+03	-0.0584482	700.0
2170	7.00633e+02	2.17000e+03	-0.0584482	700.0
2172	7.00626e+02	2.17200e+03	-0.0584486	700.0
2174	7.00633e+02	2.17400e+03	-0.0584402	700.0
2176	7.00631e+02	2.17600e+03	-0.0584172	700.0
2178	7.00631e+02	2.17800e+03	-0.0583948	700.0
2180	7.00627e+02	2.18000e+03	-0.0583739	700.0
2182	7.00635e+02	2.18200e+03	-0.058362	700.0
2184	7.00630e+02	2.18400e+03	-0.0583655	700.0
2186	7.00632e+02	2.18600e+03	-0.0583752	700.0
2188	7.00630e+02	2.18800e+03	-0.0583843	700.0
2190	7.00633e+02	2.19000e+03	-0.0583923	700.0
2192	7.00632e+02	2.19200e+03	-0.058399	700.0
2194	7.00624e+02	2.19400e+03	-0.0584096	700.0
2196	7.00614e+02	2.19600e+03	-0.0584263	700.0
2198	7.00622e+02	2.19800e+03	-0.0584444	700.0
2200	7.00620e+02	2.20000e+03	-0.0584652	700.0
2202	7.00628e+02	2.20200e+03	-0.0584873	700.0
2204	7.00623e+02	2.20400e+03	-0.058509	700.0
2206	7.00619e+02	2.20600e+03	-0.0585259	700.0
2208	7.00617e+02	2.20800e+03	-0.0585346	700.0
2210	7.00613e+02	2.21000e+03	-0.0585253	700.0
2212	7.00610e+02	2.21200e+03	-0.0584796	700.0
2214	7.00616e+02	2.21400e+03	-0.0584191	700.0
2216	7.00615e+02	2.21600e+03	-0.0583428	700.0
2218	7.00612e+02	2.21800e+03	-0.0582833	700.0
2220	7.00610e+02	2.22000e+03	-0.0582572	700.0
2222	7.00611e+02	2.22200e+03	-0.0582608	700.0
2224	7.00595e+02	2.22400e+03	-0.0583104	700.0
2226	7.00606e+02	2.22600e+03	-0.0583763	700.0
2228	7.00599e+02	2.22800e+03	-0.0584602	700.0
2230	7.00604e+02	2.23000e+03	-0.0585272	700.0
2232	7.00595e+02	2.23200e+03	-0.058568	700.0
2234	7.00605e+02	2.23400e+03	-0.0585996	700.0
2236	7.00600e+02	2.23600e+03	-0.0586156	700.0
2238	7.00603e+02	2.23800e+03	-0.0586288	700.0
2240	7.00599e+02	2.24000e+03	-0.0586375	700.0
2242	7.00595e+02	2.24200e+03	-0.0586437	700.0
2244	7.00590e+02	2.24400e+03	-0.0586465	700.0
2246	7.00596e+02	2.24600e+03	-0.0586485	700.0
2248	7.00592e+02	2.24800e+03	-0.0586492	700.0
2250	7.00589e+02	2.25000e+03	-0.0586497	700.0
2252	7.00587e+02	2.25200e+03	-0.0586498	700.0
2254	7.00591e+02	2.25400e+03	-0.0586499	700.0
2256	7.00601e+02	2.25600e+03	-0.05865	700.0
2258	7.00584e+02	2.25800e+03	-0.0586498	700.0
2260	7.00590e+02	2.26000e+03	-0.0586429	700.0
2262	7.00588e+02	2.26200e+03	-0.0586307	700.0
2264	7.00584e+02	2.26400e+03	-0.0586248	700.0
2266	7.00586e+02	2.26600e+03	-0.0586392	700.0
2268	7.00571e+02	2.26800e+03	-0.0586808	700.0
2270	7.00568e+02	2.27000e+03	-0.0587214	700.0
2272	7.00573e+02	2.27200e+03	-0.0587545	700.0
2274	7.00580e+02	2.27400e+03	-0.0587731	700.0
2276	7.00582e+02	2.27600e+03	-0.0587698	700.0
2278	7.00579e+02	2.27800e+03	-0.0587569	700.0
2280	7.00577e+02	2.28000e+03	-0.0587281	700.0
2282	7.00573e+02	2.28200e+03	-0.0586938	700.0
2284	7.00576e+02	2.28400e+03	-0.0586489	700.0
2286	7.00586e+02	2.28600e+03	-0.0586079	700.0
2288	7.00580e+02	2.28800e+03	-0.058588	700.0
2290	7.00579e+02	2.29000e+03	-0.058598	700.0
2292	7.00579e+02	2.29200e+03	-0.0586517	700.0
2294	7.00566e+02	2.29400e+03	-0.0587144	700.0
2296	7.00564e+02	2.29600e+03	-0.0587908	700.0
2298	7.00574e+02	2.29800e+03	-0.0588706	700.0
2300	7.00567e+02	2.30000e+03	-0.058941	700.0
2302	7.00564e+02	2.30200e+03	-0.0589915	700.0
2304	7.00567e+02	2.30400e+03	-0.0590103	700.0
2306	7.00569e+02	2.30600e+03	-0.0590162	700.0
2308	7.00570e+02	2.30800e+03	-0.0590043	700.0
2310	7.00564e+02	2.31000e+03	-0.0589907	700.0
2312	7.00565e+02	2.31200e+03	-0.0589761	700.0
2314	7.00554e+02	2.31400e+03	-0.0589649	700.0
2316	7.00558e+02	2.31600e+03	-0.0589528	700.0
2318	7.00563e+02	2.31800e+03	-0.0589284	700.0
2320	7.00571e+02	2.32000e+03	-0.0588972	700.0
2322	7.00560e+02	2.32200e+03	-0.0588705	700.0
2324	7.00555e+02	2.32400e+03	-0.0588481	700.0
2326	7.00562e+02	2.32600e+03	-0.0588143	700.0
2328	7.00549e+02	2.32800e+03	-0.0587685	700.0
2330	7.00561e+02	2.33000e+03	-0.0587311	700.0
2332	7.00555e+02	2.33200e+03	-0.0587114	700.0
2334	7.00557e+02	2.33400e+03	-0.058711	700.0
2336	7.00552e+02	2.33600e+03	-0.0587385	700.0
2338	7.00554e+02	2.33800e+03	-0.0587823	700.0
2340	7.00551e+02	2.34000e+03	-0.0588416	700.0
2342	7.00548e+02	2.34200e+03	-0.0588959	700.0
2344	7.00542e+02	2.34400e+03	-0.0589426	700.0
2346	7.00548e+02	2.34600e+03	-0.0589817	700.0
2348	7.00547e+02	2.34800e+03	-0.0590064	700.0
2350	7.00552e+02	2.35000e+03	-0.0590102	700.0
2352	7.00540e+02	2.35200e+03	-0.0589938	700.0
2354	7.00542e+02	2.35400e+03	-0.0589789	700.0
2356	7.00541e+02	2.35600e+03	-0.0589689	700.0
2358	7.00547e+02	2.35800e+03	-0.0589683	700.0
2360	7.00543e+02	2.36000e+03	-0.0589818	700.0
2362	7.00541e+02	2.36200e+03	-0.0590012	700.0
2364	7.00534e+02	2.36400e+03	-0.0590316	700.0
2366	7.00539e+02	2.36600e+03	-0.0590703	700.0
2368	7.00552e+02	2.36800e+03	-0.0591212	700.0
2370	7.00551e+02	2.37000e+03	-0.059171	700.0
2372	7.00547e+02	2.37200e+03	-0.0592111	700.0
2374	7.00546e+02	2.37400e+03	-0.0592306	700.0
2376	7.00552e+02	2.37600e+03	-0.0592175	700.0
2378	7.00537e+02	2.37800e+03	-0.0591892	700.0
2380	7.00542e+02	2.38000e+03	-0.0591412	700.0
2382	7.00538e+02	2.38200e+03	-0.0590964	700.0
2384	7.00544e+02	2.38400e+03	-0.0590613	700.0
2386	7.00539e+02	2.38600e+03	-0.0590401	700.0
2388	7.00547e+02	2.38800e+03	-0.0590411	700.0
2390	7.00528e+02	2.39000e+03	-0.0590532	700.0
2392	7.00538e+02	2.39200e+03	-0.0590829	700.0
2394	7.00529e+02	2.39400e+03	-0.0591179	700.0
2396	7.00537e+02	2.39600e+03	-0.0591494	700.0
2398	7.00528e+02	2.39800e+03	-0.0591554	700.0
2400	7.00535e+02	2.40000e+03	-0.0591362	700.0
2402	7.00517e+02	2.40200e+03	-0.0591193	700.0
2404	7.00533e+02	2.40400e+03	-0.0590969	700.0
2406	7.00529e+02	2.40600e+03	-0.059078	700.0
2408	7.00541e+02	2.40800e+03	-0.0590684	700.0
2410	7.00529e+02	2.41000e+03	-0.0590707	700.0
2412	7.00528e+02	2.41200e+03	-0.0590875	700.0
2414	7.00530e+02	2.41400e+03	-0.0590996	700.0
2416	7.00532e+02	2.41600e+03	-0.0591023	700.0
2418	7.00523e+02	2.41800e+03	-0.0590974	700.0
2420	7.00528e+02	2.42000e+03	-0.0590837	700.0
2422	7.00519e+02	2.42200e+03	-0.0590721	700.0
2424	7.00525e+02	2.42400e+03	-0.0590664	700.0
2426	7.00529e+02	2.42600e+03	-0.0590703	700.0
2428	7.00525e+02	2.42800e+03	-0.059091	700.0
2430	7.00527e+02	2.43000e+03	-0.0591196	700.0
2432	7.00520e+02	2.43200e+03	-0.0591475	700.0
2434	7.00526e+02	2.43400e+03	-0.0591674	700.0
2436	7.00529e+02	2.43600e+03	-0.0591716	700.0
2438	7.00528e+02	2.43800e+03	-0.0591676	700.0
2440	7.00525e+02	2.44000e+03	-0.0591526	700.0
2442	7.00525e+02	2.44200e+03	-0.0591367	700.0
2444	7.00516e+02	2.44400e+03	-0.0591239	700.0
2446	7.00518e+02	2.44600e+03	-0.0591202	700.0
2448	7.00524e+02	2.44800e+03	-0.0591274	700.0
2450	7.00513e+02	2.45000e+03	-0.0591343	700.0
2452	7.00519e+02	2.45200e+03	-0.0591404	700.0
2454	7.00520e+02	2.45400e+03	-0.0591449	700.0
2456	7.00515e+02	2.45600e+03	-0.0591471	700.0
2458	7.00514e+02	2.45800e+03	-0.0591461	700.0
2460	7.00512e+02	2.46000e+03	-0.0591295	700.0
2462	7.00510e+02	2.46200e+03	-0.0591076	700.0
2464	7.00516e+02	2.46400e+03	-0.059082	700.0
2466	7.00507e+02	2.46600e+03	-0.0590692	700.0
2468	7.00511e+02	2.46800e+03	-0.0590761	700.0
2470	7.00509e+02	2.47000e+03	-0.059089	700.0
2472	7.00507e+02	2.47200e+03	-0.0591095	700.0
2474	7.00498e+02	2.47400e+03	-0.0591309	700.0
2476	7.00499e+02	2.47600e+03	-0.0591542	700.0
2478	7.00502e+02	2.47800e+03	-0.0591771	700.0
2480	7.00501e+02	2.48000e+03	-0.0591946	700.0
2482	7.00511e+02	2.48200e+03	-0.0592037	700.0
2484	7.00496e+02	2.48400e+03	-0.059203	700.0
2486	7.00495e+02	2.48600e+03	-0.0592041	700.0
2488	7.00500e+02	2.48800e+03	-0.059209	700.0
2490	7.00497e+02	2.49000e+03	-0.0592171	700.0
2492	7.00499e+02	2.49200e+03	-0.0592273	700.0
2494	7.00500e+02	2.49400e+03	-0.0592238	700.0
2496	7.00504e+02	2.49600e+03	-0.0592045	700.0
2498	7.00493e+02	2.49800e+03	-0.0591862	700.0
2500	7.00500e+02	2.50000e+03	-0.0591719	700.0
2502	7.00496e+02	2.50200e+03	-0.059168	700.0
2504	7.00493e+02	2.50400e+03	-0.0591797	700.0
2506	7.00484e+02	2.50600e+03	-0.0591954	700.0
2508	7.00498e+02	2.50800e+03	-0.0592143	700.0
2510	7.00490e+02	2.51000e+03	-0.0592288	700.0
2512	7.00497e+02	2.51200e+03	-0.0592344	700.0
2514	7.00497e+02	2.51400e+03	-0.0592328	700.0
2516	7.00491e+02	2.51600e+03	-0.0592215	700.0
2518	7.00500e+02	2.51800e+03	-0.0592111	700.0
2520	7.00496e+02	2.52000e+03	-0.0592057	700.0
2522	7.00504e+02	2.52200e+03	-0.0592071	700.0
2524	7.00503e+02	2.52400e+03	-0.0592055	700.0
2526	7.00499e+02	2.52600e+03	-0.0591938	700.0
2528	7.00494e+02	2.52800e+03	-0.059173	700.0
2530	7.00490e+02	2.53000e+03	-0.0591602	700.0
2532	7.00498e+02	2.53200e+03	-0.0591728	700.0
2534	7.00497e+02	2.53400e+03	-0.059199	700.0
2536	7.00495e+02	2.53600e+03	-0.0592412	700.0
2538	7.00499e+02	2.53800e+03	-0.059278	700.0
2540	7.00484e+02	2.54000e+03	-0.0593024	700.0
2542	7.00486e+02	2.54200e+03	-0.0593063	700.0
2544	7.00482e+02	2.54400e+03	-0.0592906	700.0
2546	7.00487e+02	2.54600e+03	-0.0592767	700.0
2548	7.00478e+02	2.54800e+03	-0.059268	700.0
2550	7.00495e+02	2.55000e+03	-0.0592651	700.0
2552	7.00475e+02	2.55200e+03	-0.0592658	700.0
2554	7.00488e+02	2.55400e+03	-0.0592574	700.0
2556	7.00482e+02	2.55600e+03	-0.0592332	700.0
2558	7.00489e+02	2.55800e+03	-0.0592042	700.0
2560	7.00473e+02	2.56000e+03	-0.0591736	700.0
2562	7.00484e+02	2.56200e+03	-0.059154	700.0
2564	7.00479e+02	2.56400e+03	-0.0591529	700.0
2566	7.00481e+02	2.56600e+03	-0.0591654	700.0
2568	7.00473e+02	2.56800e+03	-0.0592011	700.0
2570	7.00469e+02	2.57000e+03	-0.0592476	700.0
2572	7.00470e+02	2.57200e+03	-0.059305	700.0
2574	7.00474e+02	2.57400e+03	-0.0593552	700.0
2576	7.00470e+02	2.57600e+03	-0.0593848	700.0
2578	7.00464e+02	2.57800e+03	-0.0593994	700.0
2580	7.00474e+02	2.58000e+03	-0.0593961	700.0
2582	7.00466e+02	2.58200e+03	-0.0593923	700.0
2584	7.00474e+02	2.58400e+03	-0.0593831	700.0
2586	7.00469e+02	2.58600e+03	-0.0593624	700.0
2588	7.00471e+02	2.58800e+03	-0.0593255	700.0
2590	7.00469e+02	2.59000e+03	-0.0592869	700.0
2592	7.00459e+02	2.59200e+03	-0.0592522	700.0
2594	7.00462e+02	2.59400e+03	-0.0592301	700.0
2596	7.00474e+02	2.59600e+03	-0.0592265	700.0
2598	7.00465e+02	2.59800e+03	-0.059228	700.0
2600	7.00462e+02	2.60000e+03	-0.0592377	700.0
2602	7.00465e+02	2.60200e+03	-0.0592509	700.0
2604	7.00462e+02	2.60400e+03	-0.0592698	700.0
2606	7.00468e+02	2.60600e+03	-0.0592905	700.0
2608	7.00466e+02	2.60800e+03	-0.0593114	700.0
2610	7.00457e+02	2.61000e+03	-0.0593276	700.0
2612	7.00465e+02	2.61200e+03	-0.0593357	700.0
2614	7.00463e+02	2.61400e+03	-0.0593371	700.0
2616	7.00461e+02	2.61600e+03	-0.0593276	700.0
2618	7.00455e+02	2.61800e+03	-0.0593153	700.0
2620	7.00458e+02	2.62000e+03	-0.0593036	700.0
2622	7.00454e+02	2.62200e+03	-0.0593002	700.0
2624	7.00456e+02	2.62400e+03	-0.0593102	700.0
2626	7.00452e+02	2.62600e+03	-0.0593283	700.0
2628	7.00461e+02	2.62800e+03	-0.0593596	700.0
2630	7.00459e+02	2.63000e+03	-0.0593935	700.0
2632	7.00458e+02	2.63200e+03	-0.0594261	700.0
2634	7.00450e+02	2.63400e+03	-0.0594486	700.0
2636	7.00454e+02	2.63600e+03	-0.0594556	700.0
2638	7.00453e+02	2.63800e+03	-0.0594541	700.0
2640	7.00459e+02	2.64000e+03	-0.0594365	700.0
2642	7.00456e+02	2.64200e+03	-0.0594096	700.0
2644	7.00451e+02	2.64400e+03	-0.0593718	700.0
2646	7.00460e+02	2.64600e+03	-0.0593396	700.0
2648	7.00446e+02	2.64800e+03	-0.0593215	700.0
2650	7.00457e+02	2.65000e+03	-0.0593196	700.0
2652	7.00450e+02	2.65200e+03	-0.0593402	700.0
2654	7.00447e+02	2.65400e+03	-0.0593625	700.0
2656	7.00452e+02	2.65600e+03	-0.0593822	700.0
2658	7.00443e+02	2.65800e+03	-0.0593921	700.0
2660	7.00451e+02	2.66000e+03	-0.0593907	700.0
2662	7.00448e+02	2.66200e+03	-0.0593884	700.0
2664	7.00442e+02	2.66400e+03	-0.0593816	700.0
2666	7.00443e+02	2.66600e+03	-0.0593688	700.0
2668	7.00448e+02	2.66800e+03	-0.0593465	700.0
2670	7.00451e+02	2.67000e+03	-0.0593217	700.0
2672	7.00451e+02	2.67200e+03	-0.0592972	700.0
2674	7.00440e+02	2.67400e+03	-0.0592831	700.0
2676	7.00459e+02	2.67600e+03	-0.0592884	700.0
2678	7.00458e+02	2.67800e+03	-0.0593063	700.0
2680	7.00446e+02	2.68000e+03	-0.0593402	700.0
2682	7.00448e+02	2.68200e+03	-0.0593729	700.0
2684	7.00444e+02	2.68400e+03	-0.0594014	700.0
2686	7.00448e+02	2.68600e+03	-0.059423	700.0
2688	7.00453e+02	2.68800e+03	-0.0594345	700.0
2690	7.00451e+02	2.69000e+03	-0.0594427	700.0
2692	7.00449e+02	2.69200e+03	-0.059446	700.0
2694	7.00445e+02	2.69400e+03	-0.0594481	700.0
2696	7.00448e+02	2.69600e+03	-0.0594462	700.0
2698	7.00441e+02	2.69800e+03	-0.0594394	700.0
2700	7.00450e+02	2.70000e+03	-0.0594245	700.0
2702	7.00439e+02	2.70200e+03	-0.0594067	700.0
2704	7.00441e+02	2.70400e+03	-0.0593872	700.0
2706	7.00437e+02	2.70600e+03	-0.0593721	700.0
2708	7.00432e+02	2.70800e+03	-0.0593659	700.0
2710	7.00432e+02	2.71000e+03	-0.0593669	700.0
2712	7.00434e+02	2.71200e+03	-0.0593751	700.0
2714	7.00425e+02	2.71400e+03	-0.0593908	700.0
2716	7.00429e+02	2.71600e+03	-0.0594103	700.0
2718	7.00437e+02	2.71800e+03	-0.0594273	700.0
2720	7.00434e+02	2.72000e+03	-0.05944	700.0