File: Experiments/TUBS/tga_nonisotherm/tga_dynamic_n2_dyn30_piece_2mg_r1.txt
index	ts	t	weight	tr
[#]	[°C]	[s]	[mg]	[°C]
683	1.30937e+02	6.83000e+02	1.99419e+00	1.31500e+02
685	1.31930e+02	6.85000e+02	1.99415e+00	1.32500e+02
687	1.32930e+02	6.87000e+02	1.99412e+00	1.33500e+02
689	1.33922e+02	6.89000e+02	1.99412e+00	1.34500e+02
691	1.34921e+02	6.91000e+02	1.99411e+00	1.35500e+02
693	1.35915e+02	6.93000e+02	1.99411e+00	1.36500e+02
695	1.36915e+02	6.95000e+02	1.99412e+00	1.37500e+02
697	1.37935e+02	6.97000e+02	1.99413e+00	1.38500e+02
699	1.38964e+02	6.99000e+02	1.99412e+00	1.39500e+02
701	1.39964e+02	7.01000e+02	1.99408e+00	1.40500e+02
703	1.40980e+02	7.03000e+02	1.99402e+00	1.41500e+02
705	1.41969e+02	7.05000e+02	1.99394e+00	1.42500e+02
707	1.42970e+02	7.07000e+02	1.99389e+00	1.43500e+02
709	1.43985e+02	7.09000e+02	1.99384e+00	1.44500e+02
711	1.44968e+02	7.11000e+02	1.99381e+00	1.45500e+02
713	1.45983e+02	7.13000e+02	1.99379e+00	1.46500e+02
715	1.46998e+02	7.15000e+02	1.99377e+00	1.47500e+02
717	1.47981e+02	7.17000e+02	1.99375e+00	1.48500e+02
719	1.48989e+02	7.19000e+02	1.99373e+00	1.49500e+02
721	1.49978e+02	7.21000e+02	1.99370e+00	1.50500e+02
723	1.50992e+02	7.23000e+02	1.99367e+00	1.51500e+02
725	1.51996e+02	7.25000e+02	1.99361e+00	1.52500e+02
727	1.52980e+02	7.27000e+02	1.99356e+00	1.53500e+02
729	1.53976e+02	7.29000e+02	1.99349e+00	1.54500e+02
731	1.54977e+02	7.31000e+02	1.99342e+00	1.55500e+02
733	1.55980e+02	7.33000e+02	1.99336e+00	1.56500e+02
735	1.56993e+02	7.35000e+02	1.99331e+00	1.57500e+02
737	1.57985e+02	7.37000e+02	1.99327e+00	1.58500e+02
739	1.58979e+02	7.39000e+02	1.99325e+00	1.59500e+02
741	1.59995e+02	7.41000e+02	1.99323e+00	1.60500e+02
743	1.60997e+02	7.43000e+02	1.99321e+00	1.61500e+02
745	1.61999e+02	7.45000e+02	1.99318e+00	1.62500e+02
747	1.63006e+02	7.47000e+02	1.99315e+00	1.63500e+02
749	1.64010e+02	7.49000e+02	1.99310e+00	1.64500e+02
751	1.65009e+02	7.51000e+02	1.99305e+00	1.65500e+02
753	1.66032e+02	7.53000e+02	1.99297e+00	1.66500e+02
755	1.67032e+02	7.55000e+02	1.99289e+00	1.67500e+02
757	1.68051e+02	7.57000e+02	1.99280e+00	1.68500e+02
759	1.69058e+02	7.59000e+02	1.99272e+00	1.69500e+02
761	1.70064e+02	7.61000e+02	1.99261e+00	1.70500e+02
763	1.71066e+02	7.63000e+02	1.99249e+00	1.71500e+02
765	1.72074e+02	7.65000e+02	1.99235e+00	1.72500e+02
767	1.73062e+02	7.67000e+02	1.99225e+00	1.73500e+02
769	1.74065e+02	7.69000e+02	1.99218e+00	1.74500e+02
771	1.75061e+02	7.71000e+02	1.99213e+00	1.75500e+02
773	1.76064e+02	7.73000e+02	1.99211e+00	1.76500e+02
775	1.77064e+02	7.75000e+02	1.99206e+00	1.77500e+02
777	1.78074e+02	7.77000e+02	1.99199e+00	1.78500e+02
779	1.79087e+02	7.79000e+02	1.99191e+00	1.79500e+02
781	1.80100e+02	7.81000e+02	1.99181e+00	1.80500e+02
783	1.81119e+02	7.83000e+02	1.99173e+00	1.81500e+02
785	1.82144e+02	7.85000e+02	1.99165e+00	1.82500e+02
787	1.83184e+02	7.87000e+02	1.99157e+00	1.83500e+02
789	1.84227e+02	7.89000e+02	1.99149e+00	1.84500e+02
791	1.85236e+02	7.91000e+02	1.99138e+00	1.85500e+02
793	1.86284e+02	7.93000e+02	1.99121e+00	1.86500e+02
795	1.87344e+02	7.95000e+02	1.99103e+00	1.87500e+02
797	1.88383e+02	7.97000e+02	1.99079e+00	1.88500e+02
799	1.89447e+02	7.99000e+02	1.99056e+00	1.89500e+02
801	1.90471e+02	8.01000e+02	1.99034e+00	1.90500e+02
803	1.91502e+02	8.03000e+02	1.99013e+00	1.91500e+02
805	1.92532e+02	8.05000e+02	1.98992e+00	1.92500e+02
807	1.93562e+02	8.07000e+02	1.98969e+00	1.93500e+02
809	1.94570e+02	8.09000e+02	1.98941e+00	1.94500e+02
811	1.95585e+02	8.11000e+02	1.98911e+00	1.95500e+02
813	1.96616e+02	8.13000e+02	1.98877e+00	1.96500e+02
815	1.97625e+02	8.15000e+02	1.98844e+00	1.97500e+02
817	1.98638e+02	8.17000e+02	1.98809e+00	1.98500e+02
819	1.99661e+02	8.19000e+02	1.98774e+00	1.99500e+02
821	2.00672e+02	8.21000e+02	1.98738e+00	2.00500e+02
823	2.01693e+02	8.23000e+02	1.98702e+00	2.01500e+02
825	2.02727e+02	8.25000e+02	1.98664e+00	2.02500e+02
827	2.03760e+02	8.27000e+02	1.98626e+00	2.03500e+02
829	2.04796e+02	8.29000e+02	1.98582e+00	2.04500e+02
831	2.05823e+02	8.31000e+02	1.98537e+00	2.05500e+02
833	2.06860e+02	8.33000e+02	1.98489e+00	2.06500e+02
835	2.07866e+02	8.35000e+02	1.98442e+00	2.07500e+02
837	2.08896e+02	8.37000e+02	1.98395e+00	2.08500e+02
839	2.09934e+02	8.39000e+02	1.98346e+00	2.09500e+02
841	2.10961e+02	8.41000e+02	1.98294e+00	2.10500e+02
843	2.11973e+02	8.43000e+02	1.98241e+00	2.11500e+02
845	2.12999e+02	8.45000e+02	1.98186e+00	2.12500e+02
847	2.14034e+02	8.47000e+02	1.98132e+00	2.13500e+02
849	2.15068e+02	8.49000e+02	1.98081e+00	2.14500e+02
851	2.16090e+02	8.51000e+02	1.98030e+00	2.15500e+02
853	2.17108e+02	8.53000e+02	1.97981e+00	2.16500e+02
855	2.18114e+02	8.55000e+02	1.97931e+00	2.17500e+02
857	2.19148e+02	8.57000e+02	1.97881e+00	2.18500e+02
859	2.20160e+02	8.59000e+02	1.97830e+00	2.19500e+02
861	2.21194e+02	8.61000e+02	1.97775e+00	2.20500e+02
863	2.22232e+02	8.63000e+02	1.97720e+00	2.21500e+02
865	2.23246e+02	8.65000e+02	1.97666e+00	2.22500e+02
867	2.24271e+02	8.67000e+02	1.97615e+00	2.23500e+02
869	2.25293e+02	8.69000e+02	1.97567e+00	2.24500e+02
871	2.26300e+02	8.71000e+02	1.97515e+00	2.25500e+02
873	2.27341e+02	8.73000e+02	1.97461e+00	2.26500e+02
875	2.28354e+02	8.75000e+02	1.97408e+00	2.27500e+02
877	2.29371e+02	8.77000e+02	1.97355e+00	2.28500e+02
879	2.30392e+02	8.79000e+02	1.97301e+00	2.29500e+02
881	2.31414e+02	8.81000e+02	1.97243e+00	2.30500e+02
883	2.32430e+02	8.83000e+02	1.97185e+00	2.31500e+02
885	2.33454e+02	8.85000e+02	1.97123e+00	2.32500e+02
887	2.34454e+02	8.87000e+02	1.97061e+00	2.33500e+02
889	2.35485e+02	8.89000e+02	1.96999e+00	2.34500e+02
891	2.36503e+02	8.91000e+02	1.96937e+00	2.35500e+02
893	2.37519e+02	8.93000e+02	1.96875e+00	2.36500e+02
895	2.38524e+02	8.95000e+02	1.96814e+00	2.37500e+02
897	2.39555e+02	8.97000e+02	1.96753e+00	2.38500e+02
899	2.40570e+02	8.99000e+02	1.96691e+00	2.39500e+02
901	2.41586e+02	9.01000e+02	1.96628e+00	2.40500e+02
903	2.42599e+02	9.03000e+02	1.96564e+00	2.41500e+02
905	2.43617e+02	9.05000e+02	1.96498e+00	2.42500e+02
907	2.44638e+02	9.07000e+02	1.96430e+00	2.43500e+02
909	2.45633e+02	9.09000e+02	1.96358e+00	2.44500e+02
911	2.46648e+02	9.11000e+02	1.96287e+00	2.45500e+02
913	2.47651e+02	9.13000e+02	1.96217e+00	2.46500e+02
915	2.48674e+02	9.15000e+02	1.96148e+00	2.47500e+02
917	2.49693e+02	9.17000e+02	1.96080e+00	2.48500e+02
919	2.50702e+02	9.19000e+02	1.96011e+00	2.49500e+02
921	2.51723e+02	9.21000e+02	1.95941e+00	2.50500e+02
923	2.52742e+02	9.23000e+02	1.95871e+00	2.51500e+02
925	2.53752e+02	9.25000e+02	1.95800e+00	2.52500e+02
927	2.54778e+02	9.27000e+02	1.95730e+00	2.53500e+02
929	2.55793e+02	9.29000e+02	1.95660e+00	2.54500e+02
931	2.56812e+02	9.31000e+02	1.95589e+00	2.55500e+02
933	2.57808e+02	9.33000e+02	1.95517e+00	2.56500e+02
935	2.58831e+02	9.35000e+02	1.95443e+00	2.57500e+02
937	2.59852e+02	9.37000e+02	1.95367e+00	2.58500e+02
939	2.60884e+02	9.39000e+02	1.95292e+00	2.59500e+02
941	2.61900e+02	9.41000e+02	1.95217e+00	2.60500e+02
943	2.62919e+02	9.43000e+02	1.95142e+00	2.61500e+02
945	2.63931e+02	9.45000e+02	1.95067e+00	2.62500e+02
947	2.64936e+02	9.47000e+02	1.94991e+00	2.63500e+02
949	2.65966e+02	9.49000e+02	1.94917e+00	2.64500e+02
951	2.66980e+02	9.51000e+02	1.94843e+00	2.65500e+02
953	2.67985e+02	9.53000e+02	1.94769e+00	2.66500e+02
955	2.68992e+02	9.55000e+02	1.94694e+00	2.67500e+02
957	2.70007e+02	9.57000e+02	1.94615e+00	2.68500e+02
959	2.71005e+02	9.59000e+02	1.94535e+00	2.69500e+02
961	2.72023e+02	9.61000e+02	1.94453e+00	2.70500e+02
963	2.73030e+02	9.63000e+02	1.94371e+00	2.71500e+02
965	2.74036e+02	9.65000e+02	1.94289e+00	2.72500e+02
967	2.75044e+02	9.67000e+02	1.94206e+00	2.73500e+02
969	2.76044e+02	9.69000e+02	1.94121e+00	2.74500e+02
971	2.77062e+02	9.71000e+02	1.94035e+00	2.75500e+02
973	2.78057e+02	9.73000e+02	1.93946e+00	2.76500e+02
975	2.79070e+02	9.75000e+02	1.93856e+00	2.77500e+02
977	2.80058e+02	9.77000e+02	1.93765e+00	2.78500e+02
979	2.81062e+02	9.79000e+02	1.93673e+00	2.79500e+02
981	2.82077e+02	9.81000e+02	1.93581e+00	2.80500e+02
983	2.83071e+02	9.83000e+02	1.93488e+00	2.81500e+02
985	2.84076e+02	9.85000e+02	1.93392e+00	2.82500e+02
987	2.85085e+02	9.87000e+02	1.93292e+00	2.83500e+02
989	2.86082e+02	9.89000e+02	1.93186e+00	2.84500e+02
991	2.87088e+02	9.91000e+02	1.93078e+00	2.85500e+02
993	2.88096e+02	9.93000e+02	1.92965e+00	2.86500e+02
995	2.89082e+02	9.95000e+02	1.92854e+00	2.87500e+02
997	2.90089e+02	9.97000e+02	1.92741e+00	2.88500e+02
999	2.91076e+02	9.99000e+02	1.92627e+00	2.89500e+02
1001	2.92093e+02	1.00100e+03	1.92507e+00	2.90500e+02
1003	2.93079e+02	1.00300e+03	1.92385e+00	2.91500e+02
1005	2.94073e+02	1.00500e+03	1.92256e+00	2.92500e+02
1007	2.95078e+02	1.00700e+03	1.92131e+00	2.93500e+02
1009	2.96070e+02	1.00900e+03	1.92006e+00	2.94500e+02
1011	2.97069e+02	1.01100e+03	1.91879e+00	2.95500e+02
1013	2.98057e+02	1.01300e+03	1.91748e+00	2.96500e+02
1015	2.99059e+02	1.01500e+03	1.91614e+00	2.97500e+02
1017	3.00055e+02	1.01700e+03	1.91470e+00	2.98500e+02
1019	3.01064e+02	1.01900e+03	1.91323e+00	2.99500e+02
1021	3.02051e+02	1.02100e+03	1.91165e+00	3.00500e+02
1023	3.03044e+02	1.02300e+03	1.91005e+00	3.01500e+02
1025	3.04043e+02	1.02500e+03	1.90837e+00	3.02500e+02
1027	3.05080e+02	1.02700e+03	1.90669e+00	3.03500e+02
1029	3.06111e+02	1.02900e+03	1.90495e+00	3.04500e+02
1031	3.07104e+02	1.03100e+03	1.90318e+00	3.05500e+02
1033	3.08104e+02	1.03300e+03	1.90133e+00	3.06500e+02
1035	3.09101e+02	1.03500e+03	1.89945e+00	3.07500e+02
1037	3.10092e+02	1.03700e+03	1.89746e+00	3.08500e+02
1039	3.11097e+02	1.03900e+03	1.89545e+00	3.09500e+02
1041	3.12128e+02	1.04100e+03	1.89331e+00	3.10500e+02
1043	3.13157e+02	1.04300e+03	1.89112e+00	3.11500e+02
1045	3.14140e+02	1.04500e+03	1.88873e+00	3.12500e+02
1047	3.15120e+02	1.04700e+03	1.88624e+00	3.13500e+02
1049	3.16089e+02	1.04900e+03	1.88350e+00	3.14500e+02
1051	3.17048e+02	1.05100e+03	1.88069e+00	3.15500e+02
1053	3.18027e+02	1.05300e+03	1.87768e+00	3.16500e+02
1055	3.19010e+02	1.05500e+03	1.87469e+00	3.17500e+02
1057	3.19974e+02	1.05700e+03	1.87164e+00	3.18500e+02
1059	3.20935e+02	1.05900e+03	1.86862e+00	3.19500e+02
1061	3.21914e+02	1.06100e+03	1.86563e+00	3.20500e+02
1063	3.22894e+02	1.06300e+03	1.86266e+00	3.21500e+02
1065	3.23885e+02	1.06500e+03	1.85975e+00	3.22500e+02
1067	3.24881e+02	1.06700e+03	1.85688e+00	3.23500e+02
1069	3.25872e+02	1.06900e+03	1.85411e+00	3.24500e+02
1071	3.26876e+02	1.07100e+03	1.85135e+00	3.25500e+02
1073	3.27879e+02	1.07300e+03	1.84865e+00	3.26500e+02
1075	3.28903e+02	1.07500e+03	1.84592e+00	3.27500e+02
1077	3.29905e+02	1.07700e+03	1.84316e+00	3.28500e+02
1079	3.30918e+02	1.07900e+03	1.84035e+00	3.29500e+02
1081	3.31926e+02	1.08100e+03	1.83745e+00	3.30500e+02
1083	3.32937e+02	1.08300e+03	1.83453e+00	3.31500e+02
1085	3.33951e+02	1.08500e+03	1.83151e+00	3.32500e+02
1087	3.34937e+02	1.08700e+03	1.82842e+00	3.33500e+02
1089	3.35951e+02	1.08900e+03	1.82517e+00	3.34500e+02
1091	3.36946e+02	1.09100e+03	1.82186e+00	3.35500e+02
1093	3.37942e+02	1.09300e+03	1.81833e+00	3.36500e+02
1095	3.38947e+02	1.09500e+03	1.81473e+00	3.37500e+02
1097	3.40005e+02	1.09700e+03	1.81084e+00	3.38500e+02
1099	3.41060e+02	1.09900e+03	1.80687e+00	3.39500e+02
1101	3.42064e+02	1.10100e+03	1.80257e+00	3.40500e+02
1103	3.43071e+02	1.10300e+03	1.79815e+00	3.41500e+02
1105	3.44067e+02	1.10500e+03	1.79333e+00	3.42500e+02
1107	3.45067e+02	1.10700e+03	1.78836e+00	3.43500e+02
1109	3.46079e+02	1.10900e+03	1.78292e+00	3.44500e+02
1111	3.47085e+02	1.11100e+03	1.77734e+00	3.45500e+02
1113	3.48107e+02	1.11300e+03	1.77123e+00	3.46500e+02
1115	3.49094e+02	1.11500e+03	1.76495e+00	3.47500e+02
1117	3.50077e+02	1.11700e+03	1.75803e+00	3.48500e+02
1119	3.51063e+02	1.11900e+03	1.75089e+00	3.49500e+02
1121	3.52046e+02	1.12100e+03	1.74297e+00	3.50500e+02
1123	3.53031e+02	1.12300e+03	1.73484e+00	3.51500e+02
1125	3.54016e+02	1.12500e+03	1.72586e+00	3.52500e+02
1127	3.55010e+02	1.12700e+03	1.71667e+00	3.53500e+02
1129	3.56004e+02	1.12900e+03	1.70657e+00	3.54500e+02
1131	3.56986e+02	1.13100e+03	1.69620e+00	3.55500e+02
1133	3.57973e+02	1.13300e+03	1.68477e+00	3.56500e+02
1135	3.58976e+02	1.13500e+03	1.67300e+00	3.57500e+02
1137	3.59952e+02	1.13700e+03	1.65993e+00	3.58500e+02
1139	3.60937e+02	1.13900e+03	1.64642e+00	3.59500e+02
1141	3.61923e+02	1.14100e+03	1.63127e+00	3.60500e+02
1143	3.62891e+02	1.14300e+03	1.61559e+00	3.61500e+02
1145	3.63866e+02	1.14500e+03	1.59799e+00	3.62500e+02
1147	3.64842e+02	1.14700e+03	1.57984e+00	3.63500e+02
1149	3.65813e+02	1.14900e+03	1.55958e+00	3.64500e+02
1151	3.66794e+02	1.15100e+03	1.53882e+00	3.65500e+02
1153	3.67774e+02	1.15300e+03	1.51605e+00	3.66500e+02
1155	3.68746e+02	1.15500e+03	1.49299e+00	3.67500e+02
1157	3.69732e+02	1.15700e+03	1.46822e+00	3.68500e+02
1159	3.70720e+02	1.15900e+03	1.44308e+00	3.69500e+02
1161	3.71706e+02	1.16100e+03	1.41623e+00	3.70500e+02
1163	3.72672e+02	1.16300e+03	1.38893e+00	3.71500e+02
1165	3.73661e+02	1.16500e+03	1.35990e+00	3.72500e+02
1167	3.74632e+02	1.16700e+03	1.33059e+00	3.73500e+02
1169	3.75598e+02	1.16900e+03	1.29983e+00	3.74500e+02
1171	3.76588e+02	1.17100e+03	1.26890e+00	3.75500e+02
1173	3.77561e+02	1.17300e+03	1.23680e+00	3.76500e+02
1175	3.78557e+02	1.17500e+03	1.20454e+00	3.77500e+02
1177	3.79546e+02	1.17700e+03	1.17136e+00	3.78500e+02
1179	3.80548e+02	1.17900e+03	1.13810e+00	3.79500e+02
1181	3.81539e+02	1.18100e+03	1.10421e+00	3.80500e+02
1183	3.82531e+02	1.18300e+03	1.07026e+00	3.81500e+02
1185	3.83530e+02	1.18500e+03	1.03593e+00	3.82500e+02
1187	3.84521e+02	1.18700e+03	1.00160e+00	3.83500e+02
1189	3.85529e+02	1.18900e+03	9.67076e-01	3.84500e+02
1191	3.86511e+02	1.19100e+03	9.32513e-01	3.85500e+02
1193	3.87530e+02	1.19300e+03	8.97818e-01	3.86500e+02
1195	3.88517e+02	1.19500e+03	8.63141e-01	3.87500e+02
1197	3.89518e+02	1.19700e+03	8.28461e-01	3.88500e+02
1199	3.90505e+02	1.19900e+03	7.93846e-01	3.89500e+02
1201	3.91510e+02	1.20100e+03	7.59399e-01	3.90500e+02
1203	3.92511e+02	1.20300e+03	7.25060e-01	3.91500e+02
1205	3.93504e+02	1.20500e+03	6.90951e-01	3.92500e+02
1207	3.94494e+02	1.20700e+03	6.56851e-01	3.93500e+02
1209	3.95502e+02	1.20900e+03	6.22817e-01	3.94500e+02
1211	3.96500e+02	1.21100e+03	5.88724e-01	3.95500e+02
1213	3.97507e+02	1.21300e+03	5.54658e-01	3.96500e+02
1215	3.98510e+02	1.21500e+03	5.20786e-01	3.97500e+02
1217	3.99520e+02	1.21700e+03	4.87405e-01	3.98500e+02
1219	4.00535e+02	1.21900e+03	4.54484e-01	3.99500e+02
1221	4.01541e+02	1.22100e+03	4.22786e-01	4.00500e+02
1223	4.02568e+02	1.22300e+03	3.91679e-01	4.01500e+02
1225	4.03575e+02	1.22500e+03	3.62389e-01	4.02500e+02
1227	4.04597e+02	1.22700e+03	3.33716e-01	4.03500e+02
1229	4.05621e+02	1.22900e+03	3.07262e-01	4.04500e+02
1231	4.06660e+02	1.23100e+03	2.81472e-01	4.05500e+02
1233	4.07695e+02	1.23300e+03	2.58169e-01	4.06500e+02
1235	4.08709e+02	1.23500e+03	2.35486e-01	4.07500e+02
1237	4.09743e+02	1.23700e+03	2.15383e-01	4.08500e+02
1239	4.10768e+02	1.23900e+03	1.95899e-01	4.09500e+02
1241	4.11832e+02	1.24100e+03	1.78967e-01	4.10500e+02
1243	4.12844e+02	1.24300e+03	1.62542e-01	4.11500e+02
1245	4.13861e+02	1.24500e+03	1.48448e-01	4.12500e+02
1247	4.14856e+02	1.24700e+03	1.34767e-01	4.13500e+02
1249	4.15842e+02	1.24900e+03	1.23121e-01	4.14500e+02
1251	4.16852e+02	1.25100e+03	1.11832e-01	4.15500e+02
1253	4.17868e+02	1.25300e+03	1.02313e-01	4.16500e+02
1255	4.18878e+02	1.25500e+03	9.31033e-02	4.17500e+02
1257	4.19877e+02	1.25700e+03	8.54429e-02	4.18500e+02
1259	4.20881e+02	1.25900e+03	7.80500e-02	4.19500e+02
1261	4.21884e+02	1.26100e+03	7.19673e-02	4.20500e+02
1263	4.22890e+02	1.26300e+03	6.60745e-02	4.21500e+02
1265	4.23900e+02	1.26500e+03	6.12409e-02	4.22500e+02
1267	4.24904e+02	1.26700e+03	5.65503e-02	4.23500e+02
1269	4.25897e+02	1.26900e+03	5.26859e-02	4.24500e+02
1271	4.26885e+02	1.27100e+03	4.89079e-02	4.25500e+02
1273	4.27876e+02	1.27300e+03	4.57531e-02	4.26500e+02
1275	4.28866e+02	1.27500e+03	4.26854e-02	4.27500e+02
1277	4.29863e+02	1.27700e+03	4.01268e-02	4.28500e+02
1279	4.30847e+02	1.27900e+03	3.76528e-02	4.29500e+02
1281	4.31843e+02	1.28100e+03	3.56131e-02	4.30500e+02
1283	4.32843e+02	1.28300e+03	3.36313e-02	4.31500e+02
1285	4.33835e+02	1.28500e+03	3.19921e-02	4.32500e+02
1287	4.34814e+02	1.28700e+03	3.03883e-02	4.33500e+02
1289	4.35814e+02	1.28900e+03	2.90240e-02	4.34500e+02
1291	4.36800e+02	1.29100e+03	2.76736e-02	4.35500e+02
1293	4.37789e+02	1.29300e+03	2.64768e-02	4.36500e+02
1295	4.38785e+02	1.29500e+03	2.52936e-02	4.37500e+02
1297	4.39783e+02	1.29700e+03	2.42205e-02	4.38500e+02
1299	4.40780e+02	1.29900e+03	2.31759e-02	4.39500e+02
1301	4.41783e+02	1.30100e+03	2.22539e-02	4.40500e+02
1303	4.42788e+02	1.30300e+03	2.13763e-02	4.41500e+02
1305	4.43794e+02	1.30500e+03	2.06407e-02	4.42500e+02
1307	4.44806e+02	1.30700e+03	1.99291e-02	4.43500e+02
1309	4.45790e+02	1.30900e+03	1.93375e-02	4.44500e+02
1311	4.46810e+02	1.31100e+03	1.87501e-02	4.45500e+02
1313	4.47796e+02	1.31300e+03	1.82384e-02	4.46500e+02
1315	4.48797e+02	1.31500e+03	1.77390e-02	4.47500e+02
1317	4.49807e+02	1.31700e+03	1.73211e-02	4.48500e+02
1319	4.50807e+02	1.31900e+03	1.69304e-02	4.49500e+02
1321	4.51792e+02	1.32100e+03	1.66202e-02	4.50500e+02
1323	4.52785e+02	1.32300e+03	1.63196e-02	4.51500e+02
1325	4.53787e+02	1.32500e+03	1.60922e-02	4.52500e+02
1327	4.54777e+02	1.32700e+03	1.58868e-02	4.53500e+02
1329	4.55775e+02	1.32900e+03	1.57563e-02	4.54500e+02
1331	4.56757e+02	1.33100e+03	1.56332e-02	4.55500e+02
1333	4.57768e+02	1.33300e+03	1.55534e-02	4.56500e+02
1335	4.58732e+02	1.33500e+03	1.54674e-02	4.57500e+02
1337	4.59704e+02	1.33700e+03	1.54060e-02	4.58500e+02
1339	4.60668e+02	1.33900e+03	1.53471e-02	4.59500e+02
1341	4.61668e+02	1.34100e+03	1.52970e-02	4.60500e+02
1343	4.62639e+02	1.34300e+03	1.52375e-02	4.61500e+02
1345	4.63629e+02	1.34500e+03	1.51627e-02	4.62500e+02
1347	4.64617e+02	1.34700e+03	1.50828e-02	4.63500e+02
1349	4.65597e+02	1.34900e+03	1.49900e-02	4.64500e+02
1351	4.66566e+02	1.35100e+03	1.49122e-02	4.65500e+02
1353	4.67540e+02	1.35300e+03	1.48564e-02	4.66500e+02
1355	4.68500e+02	1.35500e+03	1.48093e-02	4.67500e+02
1357	4.69475e+02	1.35700e+03	1.47698e-02	4.68500e+02
1359	4.70457e+02	1.35900e+03	1.47129e-02	4.69500e+02
1361	4.71426e+02	1.36100e+03	1.46492e-02	4.70500e+02
1363	4.72407e+02	1.36300e+03	1.45972e-02	4.71500e+02
1365	4.73380e+02	1.36500e+03	1.45583e-02	4.72500e+02
1367	4.74354e+02	1.36700e+03	1.45144e-02	4.73500e+02
1369	4.75336e+02	1.36900e+03	1.44643e-02	4.74500e+02
1371	4.76330e+02	1.37100e+03	1.44071e-02	4.75500e+02
1373	4.77292e+02	1.37300e+03	1.43428e-02	4.76500e+02
1375	4.78277e+02	1.37500e+03	1.42809e-02	4.77500e+02
1377	4.79251e+02	1.37700e+03	1.42147e-02	4.78500e+02
1379	4.80232e+02	1.37900e+03	1.41494e-02	4.79500e+02
1381	4.81210e+02	1.38100e+03	1.40914e-02	4.80500e+02
1383	4.82190e+02	1.38300e+03	1.40459e-02	4.81500e+02
1385	4.83160e+02	1.38500e+03	1.40230e-02	4.82500e+02
1387	4.84141e+02	1.38700e+03	1.39943e-02	4.83500e+02
1389	4.85109e+02	1.38900e+03	1.39636e-02	4.84500e+02
1391	4.86082e+02	1.39100e+03	1.39242e-02	4.85500e+02
1393	4.87060e+02	1.39300e+03	1.38841e-02	4.86500e+02
1395	4.88035e+02	1.39500e+03	1.38556e-02	4.87500e+02
1397	4.89003e+02	1.39700e+03	1.38362e-02	4.88500e+02
1399	4.89977e+02	1.39900e+03	1.38049e-02	4.89500e+02
1401	4.90946e+02	1.40100e+03	1.37523e-02	4.90500e+02
1403	4.91923e+02	1.40300e+03	1.36862e-02	4.91500e+02
1405	4.92899e+02	1.40500e+03	1.35913e-02	4.92500e+02
1407	4.93866e+02	1.40700e+03	1.35111e-02	4.93500e+02
1409	4.94843e+02	1.40900e+03	1.34451e-02	4.94500e+02
1411	4.95827e+02	1.41100e+03	1.33899e-02	4.95500e+02
1413	4.96795e+02	1.41300e+03	1.33534e-02	4.96500e+02
1415	4.97770e+02	1.41500e+03	1.33044e-02	4.97500e+02
1417	4.98743e+02	1.41700e+03	1.32458e-02	4.98500e+02
1419	4.99742e+02	1.41900e+03	1.31844e-02	4.99500e+02
1421	5.00711e+02	1.42100e+03	1.31231e-02	5.00500e+02
1423	5.01698e+02	1.42300e+03	1.30796e-02	5.01500e+02
1425	5.02681e+02	1.42500e+03	1.30560e-02	5.02500e+02
1427	5.03658e+02	1.42700e+03	1.30389e-02	5.03500e+02
1429	5.04622e+02	1.42900e+03	1.30399e-02	5.04500e+02
1431	5.05599e+02	1.43100e+03	1.30400e-02	5.05500e+02
1433	5.06578e+02	1.43300e+03	1.30505e-02	5.06500e+02
1435	5.07559e+02	1.43500e+03	1.30561e-02	5.07500e+02
1437	5.08546e+02	1.43700e+03	1.30456e-02	5.08500e+02
1439	5.09516e+02	1.43900e+03	1.30147e-02	5.09500e+02
1441	5.10504e+02	1.44100e+03	1.29385e-02	5.10500e+02
1443	5.11485e+02	1.44300e+03	1.28639e-02	5.11500e+02
1445	5.12476e+02	1.44500e+03	1.27614e-02	5.12500e+02
1447	5.13446e+02	1.44700e+03	1.26499e-02	5.13500e+02
1449	5.14440e+02	1.44900e+03	1.25012e-02	5.14500e+02
1451	5.15417e+02	1.45100e+03	1.23710e-02	5.15500e+02
1453	5.16394e+02	1.45300e+03	1.23059e-02	5.16500e+02
1455	5.17389e+02	1.45500e+03	1.23169e-02	5.17500e+02
1457	5.18367e+02	1.45700e+03	1.24691e-02	5.18500e+02
1459	5.19343e+02	1.45900e+03	1.25812e-02	5.19500e+02
1461	5.20340e+02	1.46100e+03	1.26665e-02	5.20500e+02
1463	5.21321e+02	1.46300e+03	1.26994e-02	5.21500e+02
1465	5.22297e+02	1.46500e+03	1.26423e-02	5.22500e+02
1467	5.23284e+02	1.46700e+03	1.26017e-02	5.23500e+02
1469	5.24264e+02	1.46900e+03	1.25443e-02	5.24500e+02
1471	5.25249e+02	1.47100e+03	1.24979e-02	5.25500e+02
1473	5.26229e+02	1.47300e+03	1.24582e-02	5.26500e+02
1475	5.27227e+02	1.47500e+03	1.24173e-02	5.27500e+02
1477	5.28198e+02	1.47700e+03	1.23891e-02	5.28500e+02
1479	5.29183e+02	1.47900e+03	1.23760e-02	5.29500e+02
1481	5.30155e+02	1.48100e+03	1.23854e-02	5.30500e+02
1483	5.31125e+02	1.48300e+03	1.23804e-02	5.31500e+02
1485	5.32106e+02	1.48500e+03	1.23650e-02	5.32500e+02
1487	5.33100e+02	1.48700e+03	1.23509e-02	5.33500e+02
1489	5.34077e+02	1.48900e+03	1.23307e-02	5.34500e+02
1491	5.35052e+02	1.49100e+03	1.23094e-02	5.35500e+02
1493	5.36028e+02	1.49300e+03	1.22755e-02	5.36500e+02
1495	5.37017e+02	1.49500e+03	1.22268e-02	5.37500e+02
1497	5.37996e+02	1.49700e+03	1.21465e-02	5.38500e+02
1499	5.38984e+02	1.49900e+03	1.20749e-02	5.39500e+02
1501	5.39959e+02	1.50100e+03	1.20152e-02	5.40500e+02
1503	5.40933e+02	1.50300e+03	1.19764e-02	5.41500e+02
1505	5.41925e+02	1.50500e+03	1.19675e-02	5.42500e+02
1507	5.42901e+02	1.50700e+03	1.19546e-02	5.43500e+02
1509	5.43874e+02	1.50900e+03	1.19479e-02	5.44500e+02
1511	5.44861e+02	1.51100e+03	1.19321e-02	5.45500e+02
1513	5.45843e+02	1.51300e+03	1.19118e-02	5.46500e+02
1515	5.46821e+02	1.51500e+03	1.19004e-02	5.47500e+02
1517	5.47814e+02	1.51700e+03	1.18957e-02	5.48500e+02
1519	5.48792e+02	1.51900e+03	1.18825e-02	5.49500e+02
1521	5.49781e+02	1.52100e+03	1.18488e-02	5.50500e+02
1523	5.50750e+02	1.52300e+03	1.18018e-02	5.51500e+02
1525	5.51751e+02	1.52500e+03	1.17336e-02	5.52500e+02
1527	5.52731e+02	1.52700e+03	1.16752e-02	5.53500e+02
1529	5.53717e+02	1.52900e+03	1.15984e-02	5.54500e+02
1531	5.54697e+02	1.53100e+03	1.15077e-02	5.55500e+02
1533	5.55689e+02	1.53300e+03	1.14051e-02	5.56500e+02
1535	5.56669e+02	1.53500e+03	1.13454e-02	5.57500e+02
1537	5.57659e+02	1.53700e+03	1.13855e-02	5.58500e+02
1539	5.58635e+02	1.53900e+03	1.14602e-02	5.59500e+02
1541	5.59621e+02	1.54100e+03	1.16018e-02	5.60500e+02
1543	5.60608e+02	1.54300e+03	1.16891e-02	5.61500e+02
1545	5.61591e+02	1.54500e+03	1.17071e-02	5.62500e+02
1547	5.62578e+02	1.54700e+03	1.16994e-02	5.63500e+02
1549	5.63573e+02	1.54900e+03	1.16220e-02	5.64500e+02
1551	5.64558e+02	1.55100e+03	1.15557e-02	5.65500e+02
1553	5.65555e+02	1.55300e+03	1.14855e-02	5.66500e+02
1555	5.66545e+02	1.55500e+03	1.14405e-02	5.67500e+02
1557	5.67527e+02	1.55700e+03	1.14209e-02	5.68500e+02
1559	5.68523e+02	1.55900e+03	1.13931e-02	5.69500e+02
1561	5.69518e+02	1.56100e+03	1.13609e-02	5.70500e+02
1563	5.70517e+02	1.56300e+03	1.13189e-02	5.71500e+02
1565	5.71499e+02	1.56500e+03	1.12698e-02	5.72500e+02
1567	5.72489e+02	1.56700e+03	1.12309e-02	5.73500e+02
1569	5.73479e+02	1.56900e+03	1.12122e-02	5.74500e+02
1571	5.74466e+02	1.57100e+03	1.11993e-02	5.75500e+02
1573	5.75457e+02	1.57300e+03	1.12090e-02	5.76500e+02
1575	5.76458e+02	1.57500e+03	1.12209e-02	5.77500e+02
1577	5.77440e+02	1.57700e+03	1.12514e-02	5.78500e+02
1579	5.78443e+02	1.57900e+03	1.12830e-02	5.79500e+02
1581	5.79435e+02	1.58100e+03	1.13189e-02	5.80500e+02
1583	5.80421e+02	1.58300e+03	1.13423e-02	5.81500e+02
1585	5.81408e+02	1.58500e+03	1.13470e-02	5.82500e+02
1587	5.82399e+02	1.58700e+03	1.13463e-02	5.83500e+02
1589	5.83398e+02	1.58900e+03	1.13273e-02	5.84500e+02
1591	5.84391e+02	1.59100e+03	1.13118e-02	5.85500e+02
1593	5.85378e+02	1.59300e+03	1.12974e-02	5.86500e+02
1595	5.86374e+02	1.59500e+03	1.12893e-02	5.87500e+02
1597	5.87362e+02	1.59700e+03	1.12808e-02	5.88500e+02
1599	5.88369e+02	1.59900e+03	1.12653e-02	5.89500e+02
1601	5.89375e+02	1.60100e+03	1.12427e-02	5.90500e+02
1603	5.90389e+02	1.60300e+03	1.12268e-02	5.91500e+02
1605	5.91396e+02	1.60500e+03	1.12154e-02	5.92500e+02
1607	5.92397e+02	1.60700e+03	1.12013e-02	5.93500e+02
1609	5.93411e+02	1.60900e+03	1.11835e-02	5.94500e+02
1611	5.94404e+02	1.61100e+03	1.11589e-02	5.95500e+02
1613	5.95404e+02	1.61300e+03	1.11298e-02	5.96500e+02
1615	5.96400e+02	1.61500e+03	1.11050e-02	5.97500e+02
1617	5.97405e+02	1.61700e+03	1.10795e-02	5.98500e+02
1619	5.98394e+02	1.61900e+03	1.10466e-02	5.99500e+02
1621	5.99406e+02	1.62100e+03	1.10035e-02	6.00500e+02
1623	6.00410e+02	1.62300e+03	1.09540e-02	6.01500e+02
1625	6.01422e+02	1.62500e+03	1.08935e-02	6.02500e+02
1627	6.02425e+02	1.62700e+03	1.08405e-02	6.03500e+02
1629	6.03436e+02	1.62900e+03	1.08006e-02	6.04500e+02
1631	6.04452e+02	1.63100e+03	1.07745e-02	6.05500e+02
1633	6.05470e+02	1.63300e+03	1.07898e-02	6.06500e+02
1635	6.06486e+02	1.63500e+03	1.08198e-02	6.07500e+02
1637	6.07504e+02	1.63700e+03	1.08842e-02	6.08500e+02
1639	6.08512e+02	1.63900e+03	1.09342e-02	6.09500e+02
1641	6.09545e+02	1.64100e+03	1.09799e-02	6.10500e+02
1643	6.10600e+02	1.64300e+03	1.10046e-02	6.11500e+02
1645	6.11675e+02	1.64500e+03	1.09774e-02	6.12500e+02
1647	6.12736e+02	1.64700e+03	1.09339e-02	6.13500e+02
1649	6.14466e+02	1.64900e+03	1.08709e-02	6.14500e+02
1651	6.15836e+02	1.65100e+03	1.08454e-02	6.15500e+02
1653	6.16842e+02	1.65300e+03	1.08696e-02	6.16500e+02
1655	6.17864e+02	1.65500e+03	1.09021e-02	6.17500e+02
1657	6.18828e+02	1.65700e+03	1.09622e-02	6.18500e+02
1659	6.19794e+02	1.65900e+03	1.10026e-02	6.19500e+02
1661	6.20759e+02	1.66100e+03	1.10196e-02	6.20500e+02
1663	6.21724e+02	1.66300e+03	1.10243e-02	6.21500e+02
1665	6.22718e+02	1.66500e+03	1.09932e-02	6.22500e+02
1667	6.23718e+02	1.66700e+03	1.09593e-02	6.23500e+02
1669	6.24669e+02	1.66900e+03	1.09170e-02	6.24500e+02
1671	6.25633e+02	1.67100e+03	1.08961e-02	6.25500e+02
1673	6.26605e+02	1.67300e+03	1.09038e-02	6.26500e+02
1675	6.27599e+02	1.67500e+03	1.09222e-02	6.27500e+02
1677	6.28606e+02	1.67700e+03	1.09531e-02	6.28500e+02
1679	6.29585e+02	1.67900e+03	1.09663e-02	6.29500e+02
1681	6.30568e+02	1.68100e+03	1.09554e-02	6.30500e+02
1683	6.31574e+02	1.68300e+03	1.09311e-02	6.31500e+02
1685	6.32571e+02	1.68500e+03	1.08789e-02	6.32500e+02
1687	6.33571e+02	1.68700e+03	1.08414e-02	6.33500e+02
1689	6.34563e+02	1.68900e+03	1.08078e-02	6.34500e+02
1691	6.35545e+02	1.69100e+03	1.07823e-02	6.35500e+02
1693	6.36535e+02	1.69300e+03	1.07851e-02	6.36500e+02
1695	6.37526e+02	1.69500e+03	1.07963e-02	6.37500e+02
1697	6.38487e+02	1.69700e+03	1.08261e-02	6.38500e+02
1699	6.39468e+02	1.69900e+03	1.08370e-02	6.39500e+02
1701	6.40448e+02	1.70100e+03	1.08359e-02	6.40500e+02
1703	6.41446e+02	1.70300e+03	1.08434e-02	6.41500e+02
1705	6.42434e+02	1.70500e+03	1.08673e-02	6.42500e+02
1707	6.43412e+02	1.70700e+03	1.09160e-02	6.43500e+02
1709	6.44400e+02	1.70900e+03	1.09865e-02	6.44500e+02
1711	6.45372e+02	1.71100e+03	1.10227e-02	6.45500e+02
1713	6.46365e+02	1.71300e+03	1.10051e-02	6.46500e+02
1715	6.47338e+02	1.71500e+03	1.09746e-02	6.47500e+02
1717	6.48311e+02	1.71700e+03	1.08993e-02	6.48500e+02
1719	6.49284e+02	1.71900e+03	1.08242e-02	6.49500e+02
1721	6.50268e+02	1.72100e+03	1.07246e-02	6.50500e+02
1723	6.51247e+02	1.72300e+03	1.06326e-02	6.51500e+02
1725	6.52208e+02	1.72500e+03	1.05726e-02	6.52500e+02
1727	6.53201e+02	1.72700e+03	1.05746e-02	6.53500e+02
1729	6.54180e+02	1.72900e+03	1.07365e-02	6.54500e+02
1731	6.55151e+02	1.73100e+03	1.09304e-02	6.55500e+02
1733	6.56139e+02	1.73300e+03	1.11886e-02	6.56500e+02
1735	6.57123e+02	1.73500e+03	1.13402e-02	6.57500e+02
1737	6.58112e+02	1.73700e+03	1.13375e-02	6.58500e+02
1739	6.59082e+02	1.73900e+03	1.12897e-02	6.59500e+02
1741	6.60072e+02	1.74100e+03	1.11155e-02	6.60500e+02
1743	6.61052e+02	1.74300e+03	1.09858e-02	6.61500e+02
1745	6.62042e+02	1.74500e+03	1.08689e-02	6.62500e+02
1747	6.63007e+02	1.74700e+03	1.07851e-02	6.63500e+02
1749	6.63996e+02	1.74900e+03	1.07630e-02	6.64500e+02
1751	6.64978e+02	1.75100e+03	1.07461e-02	6.65500e+02
1753	6.65956e+02	1.75300e+03	1.07622e-02	6.66500e+02
1755	6.66947e+02	1.75500e+03	1.07541e-02	6.67500e+02
1757	6.67931e+02	1.75700e+03	1.07307e-02	6.68500e+02
1759	6.68919e+02	1.75900e+03	1.07082e-02	6.69500e+02
1761	6.69909e+02	1.76100e+03	1.06973e-02	6.70500e+02
1763	6.70888e+02	1.76300e+03	1.07156e-02	6.71500e+02
1765	6.71868e+02	1.76500e+03	1.07622e-02	6.72500e+02
1767	6.72861e+02	1.76700e+03	1.07871e-02	6.73500e+02
1769	6.73860e+02	1.76900e+03	1.08064e-02	6.74500e+02
1771	6.74849e+02	1.77100e+03	1.08234e-02	6.75500e+02
1773	6.75830e+02	1.77300e+03	1.08291e-02	6.76500e+02
1775	6.76838e+02	1.77500e+03	1.08294e-02	6.77500e+02
1777	6.77808e+02	1.77700e+03	1.08060e-02	6.78500e+02
1779	6.78822e+02	1.77900e+03	1.07698e-02	6.79500e+02
1781	6.79805e+02	1.78100e+03	1.07012e-02	6.80500e+02
1783	6.80797e+02	1.78300e+03	1.06248e-02	6.81500e+02
1785	6.81766e+02	1.78500e+03	1.05177e-02	6.82500e+02
1787	6.82740e+02	1.78700e+03	1.04161e-02	6.83500e+02
1789	6.83728e+02	1.78900e+03	1.03486e-02	6.84500e+02
1791	6.84727e+02	1.79100e+03	1.03521e-02	6.85500e+02
1793	6.85707e+02	1.79300e+03	1.05157e-02	6.86500e+02
1795	6.86391e+02	1.79500e+03	1.06991e-02	6.87500e+02
1797	6.86845e+02	1.79700e+03	1.09503e-02	6.88500e+02
1799	6.87570e+02	1.79900e+03	1.11165e-02	6.89500e+02
1801	6.88273e+02	1.80100e+03	1.11787e-02	6.90500e+02
1803	6.88922e+02	1.80300e+03	1.11907e-02	6.91500e+02
1805	6.89544e+02	1.80500e+03	1.10957e-02	6.92500e+02
1807	6.90109e+02	1.80700e+03	1.10083e-02	6.93500e+02
1809	6.90671e+02	1.80900e+03	1.08926e-02	6.94500e+02
1811	6.91182e+02	1.81100e+03	1.08063e-02	6.95500e+02
1813	6.91676e+02	1.81300e+03	1.07370e-02	6.96500e+02
1815	6.92136e+02	1.81500e+03	1.06617e-02	6.97500e+02
1817	6.92573e+02	1.81700e+03	1.06141e-02	6.98500e+02
1819	6.92987e+02	1.81900e+03	1.06054e-02	6.99500e+02
1820	6.93182e+02	1.82000e+03	1.06387e-02	7.00000e+02