File: Experiments/TUBS/tga_nonisotherm/tga_dynamic_n2_dyn5_piece_2mg_r3.txt
index	ts	t	weight	tr
[#]	[°C]	[s]	[mg]	[°C]
1083	1.31392e+02	1.08300e+03	2.00469e+00	1.30250e+02
1091	1.32051e+02	1.09100e+03	2.00468e+00	1.30917e+02
1099	1.32734e+02	1.09900e+03	2.00462e+00	1.31583e+02
1107	1.33406e+02	1.10700e+03	2.00468e+00	1.32250e+02
1115	1.34085e+02	1.11500e+03	2.00469e+00	1.32917e+02
1123	1.34768e+02	1.12300e+03	2.00454e+00	1.33583e+02
1131	1.35447e+02	1.13100e+03	2.00454e+00	1.34250e+02
1139	1.36115e+02	1.13900e+03	2.00450e+00	1.34917e+02
1147	1.36789e+02	1.14700e+03	2.00446e+00	1.35583e+02
1155	1.37465e+02	1.15500e+03	2.00438e+00	1.36250e+02
1163	1.38135e+02	1.16300e+03	2.00440e+00	1.36917e+02
1171	1.38807e+02	1.17100e+03	2.00429e+00	1.37583e+02
1179	1.39483e+02	1.17900e+03	2.00428e+00	1.38250e+02
1187	1.40154e+02	1.18700e+03	2.00426e+00	1.38917e+02
1195	1.40835e+02	1.19500e+03	2.00422e+00	1.39583e+02
1203	1.41506e+02	1.20300e+03	2.00419e+00	1.40250e+02
1211	1.42192e+02	1.21100e+03	2.00423e+00	1.40917e+02
1219	1.42859e+02	1.21900e+03	2.00417e+00	1.41583e+02
1227	1.43531e+02	1.22700e+03	2.00396e+00	1.42250e+02
1235	1.44206e+02	1.23500e+03	2.00391e+00	1.42917e+02
1243	1.44879e+02	1.24300e+03	2.00405e+00	1.43583e+02
1251	1.45560e+02	1.25100e+03	2.00408e+00	1.44250e+02
1259	1.46249e+02	1.25900e+03	2.00385e+00	1.44917e+02
1267	1.46910e+02	1.26700e+03	2.00381e+00	1.45583e+02
1275	1.47590e+02	1.27500e+03	2.00385e+00	1.46250e+02
1283	1.48265e+02	1.28300e+03	2.00375e+00	1.46917e+02
1291	1.48923e+02	1.29100e+03	2.00376e+00	1.47583e+02
1299	1.49614e+02	1.29900e+03	2.00355e+00	1.48250e+02
1307	1.50290e+02	1.30700e+03	2.00352e+00	1.48917e+02
1315	1.50955e+02	1.31500e+03	2.00370e+00	1.49583e+02
1323	1.51634e+02	1.32300e+03	2.00343e+00	1.50250e+02
1331	1.52305e+02	1.33100e+03	2.00347e+00	1.50917e+02
1339	1.52983e+02	1.33900e+03	2.00334e+00	1.51583e+02
1347	1.53658e+02	1.34700e+03	2.00345e+00	1.52250e+02
1355	1.54318e+02	1.35500e+03	2.00355e+00	1.52917e+02
1363	1.55009e+02	1.36300e+03	2.00332e+00	1.53583e+02
1371	1.55671e+02	1.37100e+03	2.00337e+00	1.54250e+02
1379	1.56345e+02	1.37900e+03	2.00327e+00	1.54917e+02
1387	1.57027e+02	1.38700e+03	2.00319e+00	1.55583e+02
1395	1.57717e+02	1.39500e+03	2.00326e+00	1.56250e+02
1403	1.58392e+02	1.40300e+03	2.00314e+00	1.56917e+02
1411	1.59050e+02	1.41100e+03	2.00310e+00	1.57583e+02
1419	1.59722e+02	1.41900e+03	2.00305e+00	1.58250e+02
1427	1.60407e+02	1.42700e+03	2.00297e+00	1.58917e+02
1435	1.61071e+02	1.43500e+03	2.00299e+00	1.59583e+02
1443	1.61749e+02	1.44300e+03	2.00293e+00	1.60250e+02
1451	1.62419e+02	1.45100e+03	2.00280e+00	1.60917e+02
1459	1.63097e+02	1.45900e+03	2.00258e+00	1.61583e+02
1467	1.63778e+02	1.46700e+03	2.00245e+00	1.62250e+02
1475	1.64433e+02	1.47500e+03	2.00238e+00	1.62917e+02
1483	1.65114e+02	1.48300e+03	2.00232e+00	1.63583e+02
1491	1.65789e+02	1.49100e+03	2.00219e+00	1.64250e+02
1499	1.66462e+02	1.49900e+03	2.00199e+00	1.64917e+02
1507	1.67139e+02	1.50700e+03	2.00179e+00	1.65583e+02
1515	1.67807e+02	1.51500e+03	2.00157e+00	1.66250e+02
1523	1.68472e+02	1.52300e+03	2.00144e+00	1.66917e+02
1531	1.69154e+02	1.53100e+03	2.00114e+00	1.67583e+02
1539	1.69820e+02	1.53900e+03	2.00092e+00	1.68250e+02
1547	1.70511e+02	1.54700e+03	2.00084e+00	1.68917e+02
1555	1.71178e+02	1.55500e+03	2.00052e+00	1.69583e+02
1563	1.71857e+02	1.56300e+03	2.00014e+00	1.70250e+02
1571	1.72528e+02	1.57100e+03	1.99987e+00	1.70917e+02
1579	1.73209e+02	1.57900e+03	1.99959e+00	1.71583e+02
1587	1.73882e+02	1.58700e+03	1.99927e+00	1.72250e+02
1595	1.74557e+02	1.59500e+03	1.99876e+00	1.72917e+02
1603	1.75218e+02	1.60300e+03	1.99848e+00	1.73583e+02
1611	1.75908e+02	1.61100e+03	1.99798e+00	1.74250e+02
1619	1.76569e+02	1.61900e+03	1.99742e+00	1.74917e+02
1627	1.77260e+02	1.62700e+03	1.99722e+00	1.75583e+02
1635	1.77923e+02	1.63500e+03	1.99675e+00	1.76250e+02
1643	1.78611e+02	1.64300e+03	1.99630e+00	1.76917e+02
1651	1.79278e+02	1.65100e+03	1.99579e+00	1.77583e+02
1659	1.79954e+02	1.65900e+03	1.99534e+00	1.78250e+02
1667	1.80633e+02	1.66700e+03	1.99501e+00	1.78917e+02
1675	1.81306e+02	1.67500e+03	1.99445e+00	1.79583e+02
1683	1.81974e+02	1.68300e+03	1.99389e+00	1.80250e+02
1691	1.82649e+02	1.69100e+03	1.99343e+00	1.80917e+02
1699	1.83320e+02	1.69900e+03	1.99286e+00	1.81583e+02
1707	1.84004e+02	1.70700e+03	1.99228e+00	1.82250e+02
1715	1.84669e+02	1.71500e+03	1.99172e+00	1.82917e+02
1723	1.85342e+02	1.72300e+03	1.99124e+00	1.83583e+02
1731	1.86016e+02	1.73100e+03	1.99062e+00	1.84250e+02
1739	1.86701e+02	1.73900e+03	1.98992e+00	1.84917e+02
1747	1.87359e+02	1.74700e+03	1.98932e+00	1.85583e+02
1755	1.88036e+02	1.75500e+03	1.98878e+00	1.86250e+02
1763	1.88716e+02	1.76300e+03	1.98824e+00	1.86917e+02
1771	1.89400e+02	1.77100e+03	1.98755e+00	1.87583e+02
1779	1.90069e+02	1.77900e+03	1.98696e+00	1.88250e+02
1787	1.90750e+02	1.78700e+03	1.98629e+00	1.88917e+02
1795	1.91425e+02	1.79500e+03	1.98562e+00	1.89583e+02
1803	1.92097e+02	1.80300e+03	1.98521e+00	1.90250e+02
1811	1.92770e+02	1.81100e+03	1.98457e+00	1.90917e+02
1819	1.93436e+02	1.81900e+03	1.98409e+00	1.91583e+02
1827	1.94120e+02	1.82700e+03	1.98351e+00	1.92250e+02
1835	1.94785e+02	1.83500e+03	1.98281e+00	1.92917e+02
1843	1.95465e+02	1.84300e+03	1.98235e+00	1.93583e+02
1851	1.96145e+02	1.85100e+03	1.98176e+00	1.94250e+02
1859	1.96813e+02	1.85900e+03	1.98113e+00	1.94917e+02
1867	1.97487e+02	1.86700e+03	1.98056e+00	1.95583e+02
1875	1.98165e+02	1.87500e+03	1.97976e+00	1.96250e+02
1883	1.98842e+02	1.88300e+03	1.97909e+00	1.96917e+02
1891	1.99509e+02	1.89100e+03	1.97863e+00	1.97583e+02
1899	2.00176e+02	1.89900e+03	1.97793e+00	1.98250e+02
1907	2.00855e+02	1.90700e+03	1.97725e+00	1.98917e+02
1915	2.01536e+02	1.91500e+03	1.97666e+00	1.99583e+02
1923	2.02199e+02	1.92300e+03	1.97617e+00	2.00250e+02
1931	2.02864e+02	1.93100e+03	1.97573e+00	2.00917e+02
1939	2.03545e+02	1.93900e+03	1.97520e+00	2.01583e+02
1947	2.04214e+02	1.94700e+03	1.97458e+00	2.02250e+02
1955	2.04891e+02	1.95500e+03	1.97383e+00	2.02917e+02
1963	2.05555e+02	1.96300e+03	1.97331e+00	2.03583e+02
1971	2.06222e+02	1.97100e+03	1.97281e+00	2.04250e+02
1979	2.06893e+02	1.97900e+03	1.97217e+00	2.04917e+02
1987	2.07554e+02	1.98700e+03	1.97148e+00	2.05583e+02
1995	2.08226e+02	1.99500e+03	1.97095e+00	2.06250e+02
2003	2.08883e+02	2.00300e+03	1.97031e+00	2.06917e+02
2011	2.09565e+02	2.01100e+03	1.96975e+00	2.07583e+02
2019	2.10234e+02	2.01900e+03	1.96926e+00	2.08250e+02
2027	2.10907e+02	2.02700e+03	1.96877e+00	2.08917e+02
2035	2.11560e+02	2.03500e+03	1.96825e+00	2.09583e+02
2043	2.12226e+02	2.04300e+03	1.96760e+00	2.10250e+02
2051	2.12897e+02	2.05100e+03	1.96704e+00	2.10917e+02
2059	2.13558e+02	2.05900e+03	1.96644e+00	2.11583e+02
2067	2.14226e+02	2.06700e+03	1.96576e+00	2.12250e+02
2075	2.14876e+02	2.07500e+03	1.96521e+00	2.12917e+02
2083	2.15533e+02	2.08300e+03	1.96480e+00	2.13583e+02
2091	2.16205e+02	2.09100e+03	1.96411e+00	2.14250e+02
2099	2.16862e+02	2.09900e+03	1.96336e+00	2.14917e+02
2107	2.17527e+02	2.10700e+03	1.96279e+00	2.15583e+02
2115	2.18185e+02	2.11500e+03	1.96224e+00	2.16250e+02
2123	2.18843e+02	2.12300e+03	1.96159e+00	2.16917e+02
2131	2.19519e+02	2.13100e+03	1.96100e+00	2.17583e+02
2139	2.20164e+02	2.13900e+03	1.96040e+00	2.18250e+02
2147	2.20826e+02	2.14700e+03	1.95990e+00	2.18917e+02
2155	2.21494e+02	2.15500e+03	1.95925e+00	2.19583e+02
2163	2.22144e+02	2.16300e+03	1.95868e+00	2.20250e+02
2171	2.22805e+02	2.17100e+03	1.95812e+00	2.20917e+02
2179	2.23452e+02	2.17900e+03	1.95751e+00	2.21583e+02
2187	2.24123e+02	2.18700e+03	1.95696e+00	2.22250e+02
2195	2.24784e+02	2.19500e+03	1.95630e+00	2.22917e+02
2203	2.25450e+02	2.20300e+03	1.95568e+00	2.23583e+02
2211	2.26112e+02	2.21100e+03	1.95508e+00	2.24250e+02
2219	2.26771e+02	2.21900e+03	1.95455e+00	2.24917e+02
2227	2.27435e+02	2.22700e+03	1.95405e+00	2.25583e+02
2235	2.28103e+02	2.23500e+03	1.95338e+00	2.26250e+02
2243	2.28764e+02	2.24300e+03	1.95275e+00	2.26917e+02
2251	2.29421e+02	2.25100e+03	1.95211e+00	2.27583e+02
2259	2.30096e+02	2.25900e+03	1.95166e+00	2.28250e+02
2267	2.30766e+02	2.26700e+03	1.95093e+00	2.28917e+02
2275	2.31428e+02	2.27500e+03	1.95030e+00	2.29583e+02
2283	2.32085e+02	2.28300e+03	1.94978e+00	2.30250e+02
2291	2.32743e+02	2.29100e+03	1.94916e+00	2.30917e+02
2299	2.33405e+02	2.29900e+03	1.94850e+00	2.31583e+02
2307	2.34072e+02	2.30700e+03	1.94794e+00	2.32250e+02
2315	2.34733e+02	2.31500e+03	1.94735e+00	2.32917e+02
2323	2.35398e+02	2.32300e+03	1.94681e+00	2.33583e+02
2331	2.36070e+02	2.33100e+03	1.94623e+00	2.34250e+02
2339	2.36725e+02	2.33900e+03	1.94562e+00	2.34917e+02
2347	2.37396e+02	2.34700e+03	1.94500e+00	2.35583e+02
2355	2.38051e+02	2.35500e+03	1.94443e+00	2.36250e+02
2363	2.38717e+02	2.36300e+03	1.94381e+00	2.36917e+02
2371	2.39403e+02	2.37100e+03	1.94329e+00	2.37583e+02
2379	2.40073e+02	2.37900e+03	1.94276e+00	2.38250e+02
2387	2.40751e+02	2.38700e+03	1.94219e+00	2.38917e+02
2395	2.41415e+02	2.39500e+03	1.94167e+00	2.39583e+02
2403	2.42085e+02	2.40300e+03	1.94105e+00	2.40250e+02
2411	2.42752e+02	2.41100e+03	1.94047e+00	2.40917e+02
2419	2.43416e+02	2.41900e+03	1.93995e+00	2.41583e+02
2427	2.44086e+02	2.42700e+03	1.93932e+00	2.42250e+02
2435	2.44747e+02	2.43500e+03	1.93864e+00	2.42917e+02
2443	2.45417e+02	2.44300e+03	1.93800e+00	2.43583e+02
2451	2.46080e+02	2.45100e+03	1.93750e+00	2.44250e+02
2459	2.46740e+02	2.45900e+03	1.93703e+00	2.44917e+02
2467	2.47399e+02	2.46700e+03	1.93643e+00	2.45583e+02
2475	2.48067e+02	2.47500e+03	1.93580e+00	2.46250e+02
2483	2.48728e+02	2.48300e+03	1.93530e+00	2.46917e+02
2491	2.49391e+02	2.49100e+03	1.93462e+00	2.47583e+02
2499	2.50073e+02	2.49900e+03	1.93407e+00	2.48250e+02
2507	2.50746e+02	2.50700e+03	1.93361e+00	2.48917e+02
2515	2.51406e+02	2.51500e+03	1.93297e+00	2.49583e+02
2523	2.52071e+02	2.52300e+03	1.93241e+00	2.50250e+02
2531	2.52733e+02	2.53100e+03	1.93190e+00	2.50917e+02
2539	2.53416e+02	2.53900e+03	1.93132e+00	2.51583e+02
2547	2.54099e+02	2.54700e+03	1.93059e+00	2.52250e+02
2555	2.54768e+02	2.55500e+03	1.93002e+00	2.52917e+02
2563	2.55435e+02	2.56300e+03	1.92948e+00	2.53583e+02
2571	2.56111e+02	2.57100e+03	1.92888e+00	2.54250e+02
2579	2.56771e+02	2.57900e+03	1.92826e+00	2.54917e+02
2587	2.57428e+02	2.58700e+03	1.92765e+00	2.55583e+02
2595	2.58083e+02	2.59500e+03	1.92703e+00	2.56250e+02
2603	2.58752e+02	2.60300e+03	1.92633e+00	2.56917e+02
2611	2.59415e+02	2.61100e+03	1.92580e+00	2.57583e+02
2619	2.60080e+02	2.61900e+03	1.92521e+00	2.58250e+02
2627	2.60754e+02	2.62700e+03	1.92460e+00	2.58917e+02
2635	2.61426e+02	2.63500e+03	1.92396e+00	2.59583e+02
2643	2.62101e+02	2.64300e+03	1.92343e+00	2.60250e+02
2651	2.62763e+02	2.65100e+03	1.92293e+00	2.60917e+02
2659	2.63438e+02	2.65900e+03	1.92228e+00	2.61583e+02
2667	2.64110e+02	2.66700e+03	1.92161e+00	2.62250e+02
2675	2.64767e+02	2.67500e+03	1.92097e+00	2.62917e+02
2683	2.65441e+02	2.68300e+03	1.92025e+00	2.63583e+02
2691	2.66115e+02	2.69100e+03	1.91967e+00	2.64250e+02
2699	2.66801e+02	2.69900e+03	1.91886e+00	2.64917e+02
2707	2.67468e+02	2.70700e+03	1.91822e+00	2.65583e+02
2715	2.68117e+02	2.71500e+03	1.91749e+00	2.66250e+02
2723	2.68786e+02	2.72300e+03	1.91669e+00	2.66917e+02
2731	2.69449e+02	2.73100e+03	1.91572e+00	2.67583e+02
2739	2.70123e+02	2.73900e+03	1.91496e+00	2.68250e+02
2747	2.70790e+02	2.74700e+03	1.91442e+00	2.68917e+02
2755	2.71457e+02	2.75500e+03	1.91381e+00	2.69583e+02
2763	2.72133e+02	2.76300e+03	1.91286e+00	2.70250e+02
2771	2.72803e+02	2.77100e+03	1.91190e+00	2.70917e+02
2779	2.73489e+02	2.77900e+03	1.91121e+00	2.71583e+02
2787	2.74159e+02	2.78700e+03	1.91048e+00	2.72250e+02
2795	2.74825e+02	2.79500e+03	1.90972e+00	2.72917e+02
2803	2.75491e+02	2.80300e+03	1.90866e+00	2.73583e+02
2811	2.76165e+02	2.81100e+03	1.90767e+00	2.74250e+02
2819	2.76838e+02	2.81900e+03	1.90685e+00	2.74917e+02
2827	2.77515e+02	2.82700e+03	1.90584e+00	2.75583e+02
2835	2.78203e+02	2.83500e+03	1.90492e+00	2.76250e+02
2843	2.78858e+02	2.84300e+03	1.90369e+00	2.76917e+02
2851	2.79542e+02	2.85100e+03	1.90255e+00	2.77583e+02
2859	2.80217e+02	2.85900e+03	1.90149e+00	2.78250e+02
2867	2.80867e+02	2.86700e+03	1.90039e+00	2.78917e+02
2875	2.81531e+02	2.87500e+03	1.89918e+00	2.79583e+02
2883	2.82209e+02	2.88300e+03	1.89796e+00	2.80250e+02
2891	2.82882e+02	2.89100e+03	1.89667e+00	2.80917e+02
2899	2.83568e+02	2.89900e+03	1.89542e+00	2.81583e+02
2907	2.84257e+02	2.90700e+03	1.89414e+00	2.82250e+02
2915	2.84963e+02	2.91500e+03	1.89299e+00	2.82917e+02
2923	2.85632e+02	2.92300e+03	1.89151e+00	2.83583e+02
2931	2.86328e+02	2.93100e+03	1.89014e+00	2.84250e+02
2939	2.87009e+02	2.93900e+03	1.88893e+00	2.84917e+02
2947	2.87664e+02	2.94700e+03	1.88740e+00	2.85583e+02
2955	2.88350e+02	2.95500e+03	1.88593e+00	2.86250e+02
2963	2.89039e+02	2.96300e+03	1.88444e+00	2.86917e+02
2971	2.89721e+02	2.97100e+03	1.88296e+00	2.87583e+02
2979	2.90402e+02	2.97900e+03	1.88136e+00	2.88250e+02
2987	2.91089e+02	2.98700e+03	1.87981e+00	2.88917e+02
2995	2.91758e+02	2.99500e+03	1.87830e+00	2.89583e+02
3003	2.92444e+02	3.00300e+03	1.87655e+00	2.90250e+02
3011	2.93141e+02	3.01100e+03	1.87485e+00	2.90917e+02
3019	2.93830e+02	3.01900e+03	1.87315e+00	2.91583e+02
3027	2.94521e+02	3.02700e+03	1.87151e+00	2.92250e+02
3035	2.95233e+02	3.03500e+03	1.86981e+00	2.92917e+02
3043	2.95929e+02	3.04300e+03	1.86801e+00	2.93583e+02
3051	2.96622e+02	3.05100e+03	1.86638e+00	2.94250e+02
3059	2.97335e+02	3.05900e+03	1.86461e+00	2.94917e+02
3067	2.98023e+02	3.06700e+03	1.86298e+00	2.95583e+02
3075	2.98722e+02	3.07500e+03	1.86119e+00	2.96250e+02
3083	2.99429e+02	3.08300e+03	1.85929e+00	2.96917e+02
3091	3.00100e+02	3.09100e+03	1.85752e+00	2.97583e+02
3099	3.00784e+02	3.09900e+03	1.85550e+00	2.98250e+02
3107	3.01460e+02	3.10700e+03	1.85367e+00	2.98917e+02
3115	3.02137e+02	3.11500e+03	1.85197e+00	2.99583e+02
3123	3.02813e+02	3.12300e+03	1.85010e+00	3.00250e+02
3131	3.03485e+02	3.13100e+03	1.84828e+00	3.00917e+02
3139	3.04149e+02	3.13900e+03	1.84647e+00	3.01583e+02
3147	3.04818e+02	3.14700e+03	1.84472e+00	3.02250e+02
3155	3.05504e+02	3.15500e+03	1.84273e+00	3.02917e+02
3163	3.06195e+02	3.16300e+03	1.84086e+00	3.03583e+02
3171	3.06867e+02	3.17100e+03	1.83897e+00	3.04250e+02
3179	3.07525e+02	3.17900e+03	1.83678e+00	3.04917e+02
3187	3.08199e+02	3.18700e+03	1.83479e+00	3.05583e+02
3195	3.08866e+02	3.19500e+03	1.83279e+00	3.06250e+02
3203	3.09578e+02	3.20300e+03	1.83068e+00	3.06917e+02
3211	3.10207e+02	3.21100e+03	1.82851e+00	3.07583e+02
3219	3.10872e+02	3.21900e+03	1.82639e+00	3.08250e+02
3227	3.11526e+02	3.22700e+03	1.82420e+00	3.08917e+02
3235	3.12201e+02	3.23500e+03	1.82169e+00	3.09583e+02
3243	3.12872e+02	3.24300e+03	1.81946e+00	3.10250e+02
3251	3.13538e+02	3.25100e+03	1.81703e+00	3.10917e+02
3259	3.14217e+02	3.25900e+03	1.81454e+00	3.11583e+02
3267	3.14887e+02	3.26700e+03	1.81205e+00	3.12250e+02
3275	3.15544e+02	3.27500e+03	1.80941e+00	3.12917e+02
3283	3.16207e+02	3.28300e+03	1.80657e+00	3.13583e+02
3291	3.16870e+02	3.29100e+03	1.80370e+00	3.14250e+02
3299	3.17538e+02	3.29900e+03	1.80069e+00	3.14917e+02
3307	3.18211e+02	3.30700e+03	1.79764e+00	3.15583e+02
3315	3.18879e+02	3.31500e+03	1.79443e+00	3.16250e+02
3323	3.19526e+02	3.32300e+03	1.79124e+00	3.16917e+02
3331	3.20218e+02	3.33100e+03	1.78777e+00	3.17583e+02
3339	3.20889e+02	3.33900e+03	1.78413e+00	3.18250e+02
3347	3.21581e+02	3.34700e+03	1.78039e+00	3.18917e+02
3355	3.22265e+02	3.35500e+03	1.77638e+00	3.19583e+02
3363	3.22950e+02	3.36300e+03	1.77231e+00	3.20250e+02
3371	3.23632e+02	3.37100e+03	1.76806e+00	3.20917e+02
3379	3.24286e+02	3.37900e+03	1.76357e+00	3.21583e+02
3387	3.24965e+02	3.38700e+03	1.75884e+00	3.22250e+02
3395	3.25650e+02	3.39500e+03	1.75406e+00	3.22917e+02
3403	3.26294e+02	3.40300e+03	1.74914e+00	3.23583e+02
3411	3.26959e+02	3.41100e+03	1.74385e+00	3.24250e+02
3419	3.27622e+02	3.41900e+03	1.73832e+00	3.24917e+02
3427	3.28273e+02	3.42700e+03	1.73269e+00	3.25583e+02
3435	3.28942e+02	3.43500e+03	1.72662e+00	3.26250e+02
3443	3.29619e+02	3.44300e+03	1.72026e+00	3.26917e+02
3451	3.30282e+02	3.45100e+03	1.71366e+00	3.27583e+02
3459	3.30938e+02	3.45900e+03	1.70678e+00	3.28250e+02
3467	3.31595e+02	3.46700e+03	1.69962e+00	3.28917e+02
3475	3.32261e+02	3.47500e+03	1.69204e+00	3.29583e+02
3483	3.32919e+02	3.48300e+03	1.68429e+00	3.30250e+02
3491	3.33562e+02	3.49100e+03	1.67594e+00	3.30917e+02
3499	3.34210e+02	3.49900e+03	1.66707e+00	3.31583e+02
3507	3.34873e+02	3.50700e+03	1.65817e+00	3.32250e+02
3515	3.35547e+02	3.51500e+03	1.64874e+00	3.32917e+02
3523	3.36211e+02	3.52300e+03	1.63881e+00	3.33583e+02
3531	3.36895e+02	3.53100e+03	1.62782e+00	3.34250e+02
3539	3.37562e+02	3.53900e+03	1.61571e+00	3.34917e+02
3547	3.38241e+02	3.54700e+03	1.60382e+00	3.35583e+02
3555	3.38918e+02	3.55500e+03	1.59186e+00	3.36250e+02
3563	3.39603e+02	3.56300e+03	1.57944e+00	3.36917e+02
3571	3.40277e+02	3.57100e+03	1.56655e+00	3.37583e+02
3579	3.40948e+02	3.57900e+03	1.55332e+00	3.38250e+02
3587	3.41614e+02	3.58700e+03	1.53955e+00	3.38917e+02
3595	3.42301e+02	3.59500e+03	1.52526e+00	3.39583e+02
3603	3.42981e+02	3.60300e+03	1.51041e+00	3.40250e+02
3611	3.43670e+02	3.61100e+03	1.49508e+00	3.40917e+02
3619	3.44343e+02	3.61900e+03	1.47895e+00	3.41583e+02
3627	3.45016e+02	3.62700e+03	1.46163e+00	3.42250e+02
3635	3.45701e+02	3.63500e+03	1.44366e+00	3.42917e+02
3643	3.46386e+02	3.64300e+03	1.42530e+00	3.43583e+02
3651	3.47069e+02	3.65100e+03	1.40667e+00	3.44250e+02
3659	3.47737e+02	3.65900e+03	1.38730e+00	3.44917e+02
3667	3.48406e+02	3.66700e+03	1.36738e+00	3.45583e+02
3675	3.49067e+02	3.67500e+03	1.34681e+00	3.46250e+02
3683	3.49721e+02	3.68300e+03	1.32583e+00	3.46917e+02
3691	3.50386e+02	3.69100e+03	1.30443e+00	3.47583e+02
3699	3.51060e+02	3.69900e+03	1.28262e+00	3.48250e+02
3707	3.51732e+02	3.70700e+03	1.26022e+00	3.48917e+02
3715	3.52418e+02	3.71500e+03	1.23737e+00	3.49583e+02
3723	3.53067e+02	3.72300e+03	1.21420e+00	3.50250e+02
3731	3.53736e+02	3.73100e+03	1.19053e+00	3.50917e+02
3739	3.54402e+02	3.73900e+03	1.16634e+00	3.51583e+02
3747	3.55086e+02	3.74700e+03	1.14185e+00	3.52250e+02
3755	3.55776e+02	3.75500e+03	1.11695e+00	3.52917e+02
3763	3.56438e+02	3.76300e+03	1.09177e+00	3.53583e+02
3771	3.57118e+02	3.77100e+03	1.06624e+00	3.54250e+02
3779	3.57823e+02	3.77900e+03	1.04044e+00	3.54917e+02
3787	3.58453e+02	3.78700e+03	1.01441e+00	3.55583e+02
3795	3.59152e+02	3.79500e+03	9.88129e-01	3.56250e+02
3803	3.59800e+02	3.80300e+03	9.61867e-01	3.56917e+02
3811	3.60435e+02	3.81100e+03	9.35655e-01	3.57583e+02
3819	3.61093e+02	3.81900e+03	9.09190e-01	3.58250e+02
3827	3.61750e+02	3.82700e+03	8.82640e-01	3.58917e+02
3835	3.62394e+02	3.83500e+03	8.56007e-01	3.59583e+02
3843	3.62996e+02	3.84300e+03	8.29223e-01	3.60250e+02
3851	3.63673e+02	3.85100e+03	8.02273e-01	3.60917e+02
3859	3.64290e+02	3.85900e+03	7.76391e-01	3.61583e+02
3867	3.64933e+02	3.86700e+03	7.50010e-01	3.62250e+02
3875	3.65585e+02	3.87500e+03	7.22790e-01	3.62917e+02
3883	3.66218e+02	3.88300e+03	6.96001e-01	3.63583e+02
3891	3.66867e+02	3.89100e+03	6.69257e-01	3.64250e+02
3899	3.67502e+02	3.89900e+03	6.42998e-01	3.64917e+02
3907	3.68152e+02	3.90700e+03	6.16985e-01	3.65583e+02
3915	3.68891e+02	3.91500e+03	5.91526e-01	3.66250e+02
3923	3.69554e+02	3.92300e+03	5.66357e-01	3.66917e+02
3931	3.70234e+02	3.93100e+03	5.41534e-01	3.67583e+02
3939	3.70985e+02	3.93900e+03	5.17548e-01	3.68250e+02
3947	3.71734e+02	3.94700e+03	4.93817e-01	3.68917e+02
3955	3.72527e+02	3.95500e+03	4.70583e-01	3.69583e+02
3963	3.73283e+02	3.96300e+03	4.48284e-01	3.70250e+02
3971	3.74007e+02	3.97100e+03	4.26329e-01	3.70917e+02
3979	3.74694e+02	3.97900e+03	4.05268e-01	3.71583e+02
3987	3.75300e+02	3.98700e+03	3.84686e-01	3.72250e+02
3995	3.75973e+02	3.99500e+03	3.65162e-01	3.72917e+02
4003	3.76621e+02	4.00300e+03	3.46412e-01	3.73583e+02
4011	3.77280e+02	4.01100e+03	3.28336e-01	3.74250e+02
4019	3.77937e+02	4.01900e+03	3.11116e-01	3.74917e+02
4027	3.78587e+02	4.02700e+03	2.94326e-01	3.75583e+02
4035	3.79239e+02	4.03500e+03	2.78371e-01	3.76250e+02
4043	3.79900e+02	4.04300e+03	2.63043e-01	3.76917e+02
4051	3.80567e+02	4.05100e+03	2.48532e-01	3.77583e+02
4059	3.81232e+02	4.05900e+03	2.34678e-01	3.78250e+02
4067	3.81916e+02	4.06700e+03	2.21821e-01	3.78917e+02
4075	3.82573e+02	4.07500e+03	2.09572e-01	3.79583e+02
4083	3.83245e+02	4.08300e+03	1.97984e-01	3.80250e+02
4091	3.83933e+02	4.09100e+03	1.87064e-01	3.80917e+02
4099	3.84609e+02	4.09900e+03	1.76669e-01	3.81583e+02
4107	3.85281e+02	4.10700e+03	1.66999e-01	3.82250e+02
4115	3.85973e+02	4.11500e+03	1.57804e-01	3.82917e+02
4123	3.86618e+02	4.12300e+03	1.49050e-01	3.83583e+02
4131	3.87288e+02	4.13100e+03	1.40781e-01	3.84250e+02
4139	3.87957e+02	4.13900e+03	1.33213e-01	3.84917e+02
4147	3.88578e+02	4.14700e+03	1.26164e-01	3.85583e+02
4155	3.89241e+02	4.15500e+03	1.19648e-01	3.86250e+02
4163	3.89977e+02	4.16300e+03	1.13576e-01	3.86917e+02
4171	3.90648e+02	4.17100e+03	1.07825e-01	3.87583e+02
4179	3.91295e+02	4.17900e+03	1.02538e-01	3.88250e+02
4187	3.91960e+02	4.18700e+03	9.75761e-02	3.88917e+02
4195	3.92616e+02	4.19500e+03	9.28092e-02	3.89583e+02
4203	3.93273e+02	4.20300e+03	8.85833e-02	3.90250e+02
4211	3.93939e+02	4.21100e+03	8.46286e-02	3.90917e+02
4219	3.94605e+02	4.21900e+03	8.08737e-02	3.91583e+02
4227	3.95305e+02	4.22700e+03	7.72479e-02	3.92250e+02
4235	3.95997e+02	4.23500e+03	7.42372e-02	3.92917e+02
4243	3.96657e+02	4.24300e+03	7.13005e-02	3.93583e+02
4251	3.97316e+02	4.25100e+03	6.86047e-02	3.94250e+02
4259	3.97977e+02	4.25900e+03	6.60732e-02	3.94917e+02
4267	3.98631e+02	4.26700e+03	6.36063e-02	3.95583e+02
4275	3.99289e+02	4.27500e+03	6.14278e-02	3.96250e+02
4283	3.99945e+02	4.28300e+03	5.93393e-02	3.96917e+02
4291	4.00615e+02	4.29100e+03	5.73975e-02	3.97583e+02
4299	4.01305e+02	4.29900e+03	5.55589e-02	3.98250e+02
4307	4.01977e+02	4.30700e+03	5.38617e-02	3.98917e+02
4315	4.02664e+02	4.31500e+03	5.21898e-02	3.99583e+02
4323	4.03342e+02	4.32300e+03	5.06773e-02	4.00250e+02
4331	4.04046e+02	4.33100e+03	4.92342e-02	4.00917e+02
4339	4.04753e+02	4.33900e+03	4.77730e-02	4.01583e+02
4347	4.05404e+02	4.34700e+03	4.66373e-02	4.02250e+02
4355	4.06070e+02	4.35500e+03	4.54271e-02	4.02917e+02
4363	4.06747e+02	4.36300e+03	4.42567e-02	4.03583e+02
4371	4.07417e+02	4.37100e+03	4.32065e-02	4.04250e+02
4379	4.08086e+02	4.37900e+03	4.22922e-02	4.04917e+02
4387	4.08756e+02	4.38700e+03	4.12994e-02	4.05583e+02
4395	4.09461e+02	4.39500e+03	4.03707e-02	4.06250e+02
4403	4.10088e+02	4.40300e+03	3.95087e-02	4.06917e+02
4411	4.10739e+02	4.41100e+03	3.86265e-02	4.07583e+02
4419	4.11411e+02	4.41900e+03	3.77387e-02	4.08250e+02
4427	4.12073e+02	4.42700e+03	3.71645e-02	4.08917e+02
4435	4.12736e+02	4.43500e+03	3.64590e-02	4.09583e+02
4443	4.13381e+02	4.44300e+03	3.57590e-02	4.10250e+02
4451	4.14036e+02	4.45100e+03	3.50408e-02	4.10917e+02
4459	4.14688e+02	4.45900e+03	3.43955e-02	4.11583e+02
4467	4.15353e+02	4.46700e+03	3.37422e-02	4.12250e+02
4475	4.16015e+02	4.47500e+03	3.32990e-02	4.12917e+02
4483	4.16733e+02	4.48300e+03	3.27356e-02	4.13583e+02
4491	4.17409e+02	4.49100e+03	3.22792e-02	4.14250e+02
4499	4.18095e+02	4.49900e+03	3.18789e-02	4.14917e+02
4507	4.18729e+02	4.50700e+03	3.14372e-02	4.15583e+02
4515	4.19385e+02	4.51500e+03	3.10690e-02	4.16250e+02
4523	4.20055e+02	4.52300e+03	3.06584e-02	4.16917e+02
4531	4.20717e+02	4.53100e+03	3.03216e-02	4.17583e+02
4539	4.21366e+02	4.53900e+03	2.99772e-02	4.18250e+02
4547	4.22001e+02	4.54700e+03	2.95452e-02	4.18917e+02
4555	4.22650e+02	4.55500e+03	2.92980e-02	4.19583e+02
4563	4.23305e+02	4.56300e+03	2.89225e-02	4.20250e+02
4571	4.23953e+02	4.57100e+03	2.86087e-02	4.20917e+02
4579	4.24583e+02	4.57900e+03	2.84897e-02	4.21583e+02
4587	4.25247e+02	4.58700e+03	2.82544e-02	4.22250e+02
4595	4.25893e+02	4.59500e+03	2.82512e-02	4.22917e+02
4603	4.26541e+02	4.60300e+03	2.81898e-02	4.23583e+02
4611	4.27201e+02	4.61100e+03	2.81421e-02	4.24250e+02
4619	4.27855e+02	4.61900e+03	2.79620e-02	4.24917e+02
4627	4.28514e+02	4.62700e+03	2.79944e-02	4.25583e+02
4635	4.29158e+02	4.63500e+03	2.79892e-02	4.26250e+02
4643	4.29813e+02	4.64300e+03	2.79166e-02	4.26917e+02
4651	4.30463e+02	4.65100e+03	2.73190e-02	4.27583e+02
4659	4.31106e+02	4.65900e+03	2.75053e-02	4.28250e+02
4667	4.31749e+02	4.66700e+03	2.84239e-02	4.28917e+02
4675	4.32399e+02	4.67500e+03	2.80436e-02	4.29583e+02
4683	4.33021e+02	4.68300e+03	2.78110e-02	4.30250e+02
4691	4.33663e+02	4.69100e+03	2.79041e-02	4.30917e+02
4699	4.34150e+02	4.69900e+03	2.75437e-02	4.31583e+02
4707	4.34593e+02	4.70700e+03	2.76005e-02	4.32250e+02
4715	4.35171e+02	4.71500e+03	2.75355e-02	4.32917e+02
4723	4.35795e+02	4.72300e+03	2.68467e-02	4.33583e+02
4731	4.36424e+02	4.73100e+03	2.72359e-02	4.34250e+02
4739	4.37057e+02	4.73900e+03	2.76375e-02	4.34917e+02
4747	4.37696e+02	4.74700e+03	2.72494e-02	4.35583e+02
4755	4.38344e+02	4.75500e+03	2.71332e-02	4.36250e+02
4763	4.38981e+02	4.76300e+03	2.71813e-02	4.36917e+02
4771	4.39622e+02	4.77100e+03	2.71156e-02	4.37583e+02
4779	4.40272e+02	4.77900e+03	2.73061e-02	4.38250e+02
4787	4.40925e+02	4.78700e+03	2.71634e-02	4.38917e+02
4795	4.41569e+02	4.79500e+03	2.70821e-02	4.39583e+02
4803	4.42213e+02	4.80300e+03	2.70716e-02	4.40250e+02
4811	4.42860e+02	4.81100e+03	2.70696e-02	4.40917e+02
4819	4.43518e+02	4.81900e+03	2.65770e-02	4.41583e+02
4827	4.44148e+02	4.82700e+03	2.64219e-02	4.42250e+02
4835	4.44804e+02	4.83500e+03	2.67290e-02	4.42917e+02
4843	4.45459e+02	4.84300e+03	2.70773e-02	4.43583e+02
4851	4.46095e+02	4.85100e+03	2.73365e-02	4.44250e+02
4859	4.46753e+02	4.85900e+03	2.70545e-02	4.44917e+02
4867	4.47401e+02	4.86700e+03	2.70422e-02	4.45583e+02
4875	4.48067e+02	4.87500e+03	2.70861e-02	4.46250e+02
4883	4.48718e+02	4.88300e+03	2.70207e-02	4.46917e+02
4891	4.49370e+02	4.89100e+03	2.68200e-02	4.47583e+02
4899	4.50008e+02	4.89900e+03	2.68890e-02	4.48250e+02
4907	4.50661e+02	4.90700e+03	2.68442e-02	4.48917e+02
4915	4.51307e+02	4.91500e+03	2.68883e-02	4.49583e+02
4923	4.51961e+02	4.92300e+03	2.68445e-02	4.50250e+02
4931	4.52606e+02	4.93100e+03	2.68619e-02	4.50917e+02
4939	4.53253e+02	4.93900e+03	2.69871e-02	4.51583e+02
4947	4.53909e+02	4.94700e+03	2.69505e-02	4.52250e+02
4955	4.54549e+02	4.95500e+03	2.68252e-02	4.52917e+02
4963	4.55188e+02	4.96300e+03	2.67702e-02	4.53583e+02
4971	4.55832e+02	4.97100e+03	2.68358e-02	4.54250e+02
4979	4.56486e+02	4.97900e+03	2.67843e-02	4.54917e+02
4987	4.57137e+02	4.98700e+03	2.69137e-02	4.55583e+02
4995	4.57790e+02	4.99500e+03	2.68930e-02	4.56250e+02
5003	4.58446e+02	5.00300e+03	2.67385e-02	4.56917e+02
5011	4.59101e+02	5.01100e+03	2.67902e-02	4.57583e+02
5019	4.59743e+02	5.01900e+03	2.67537e-02	4.58250e+02
5027	4.60413e+02	5.02700e+03	2.68441e-02	4.58917e+02
5035	4.61057e+02	5.03500e+03	2.67531e-02	4.59583e+02
5043	4.61710e+02	5.04300e+03	2.67185e-02	4.60250e+02
5051	4.62354e+02	5.05100e+03	2.66982e-02	4.60917e+02
5059	4.63008e+02	5.05900e+03	2.65738e-02	4.61583e+02
5067	4.63663e+02	5.06700e+03	2.66921e-02	4.62250e+02
5075	4.64321e+02	5.07500e+03	2.66514e-02	4.62917e+02
5083	4.64988e+02	5.08300e+03	2.67217e-02	4.63583e+02
5091	4.65645e+02	5.09100e+03	2.67238e-02	4.64250e+02
5099	4.66300e+02	5.09900e+03	2.66578e-02	4.64917e+02
5107	4.66972e+02	5.10700e+03	2.66543e-02	4.65583e+02
5115	4.67630e+02	5.11500e+03	2.67149e-02	4.66250e+02
5123	4.68281e+02	5.12300e+03	2.67670e-02	4.66917e+02
5131	4.68936e+02	5.13100e+03	2.67885e-02	4.67583e+02
5139	4.69582e+02	5.13900e+03	2.66275e-02	4.68250e+02
5147	4.70239e+02	5.14700e+03	2.66549e-02	4.68917e+02
5155	4.70894e+02	5.15500e+03	2.66225e-02	4.69583e+02
5163	4.71550e+02	5.16300e+03	2.65658e-02	4.70250e+02
5171	4.72204e+02	5.17100e+03	2.65192e-02	4.70917e+02
5179	4.72858e+02	5.17900e+03	2.65056e-02	4.71583e+02
5187	4.73508e+02	5.18700e+03	2.66023e-02	4.72250e+02
5195	4.74164e+02	5.19500e+03	2.65291e-02	4.72917e+02
5203	4.74797e+02	5.20300e+03	2.66038e-02	4.73583e+02
5211	4.75448e+02	5.21100e+03	2.66147e-02	4.74250e+02
5219	4.76103e+02	5.21900e+03	2.66305e-02	4.74917e+02
5227	4.76744e+02	5.22700e+03	2.65405e-02	4.75583e+02
5235	4.77387e+02	5.23500e+03	2.66967e-02	4.76250e+02
5243	4.78044e+02	5.24300e+03	2.67304e-02	4.76917e+02
5251	4.78693e+02	5.25100e+03	2.67416e-02	4.77583e+02
5259	4.79354e+02	5.25900e+03	2.66065e-02	4.78250e+02
5267	4.79988e+02	5.26700e+03	2.64114e-02	4.78917e+02
5275	4.80646e+02	5.27500e+03	2.63695e-02	4.79583e+02
5283	4.81294e+02	5.28300e+03	2.65003e-02	4.80250e+02
5291	4.81943e+02	5.29100e+03	2.65339e-02	4.80917e+02
5299	4.82606e+02	5.29900e+03	2.65354e-02	4.81583e+02
5307	4.83271e+02	5.30700e+03	2.64816e-02	4.82250e+02
5315	4.83920e+02	5.31500e+03	2.65455e-02	4.82917e+02
5323	4.84599e+02	5.32300e+03	2.65358e-02	4.83583e+02
5331	4.85256e+02	5.33100e+03	2.64405e-02	4.84250e+02
5339	4.85926e+02	5.33900e+03	2.63959e-02	4.84917e+02
5347	4.86576e+02	5.34700e+03	2.64481e-02	4.85583e+02
5355	4.87235e+02	5.35500e+03	2.64902e-02	4.86250e+02
5363	4.87883e+02	5.36300e+03	2.64600e-02	4.86917e+02
5371	4.88535e+02	5.37100e+03	2.63096e-02	4.87583e+02
5379	4.89180e+02	5.37900e+03	2.64041e-02	4.88250e+02
5387	4.89845e+02	5.38700e+03	2.63093e-02	4.88917e+02
5395	4.90500e+02	5.39500e+03	2.62632e-02	4.89583e+02
5403	4.91155e+02	5.40300e+03	2.63159e-02	4.90250e+02
5411	4.91816e+02	5.41100e+03	2.63721e-02	4.90917e+02
5419	4.92476e+02	5.41900e+03	2.63969e-02	4.91583e+02
5427	4.93142e+02	5.42700e+03	2.63141e-02	4.92250e+02
5435	4.93787e+02	5.43500e+03	2.62703e-02	4.92917e+02
5443	4.94447e+02	5.44300e+03	2.62761e-02	4.93583e+02
5451	4.95115e+02	5.45100e+03	2.63675e-02	4.94250e+02
5459	4.95762e+02	5.45900e+03	2.62295e-02	4.94917e+02
5467	4.96422e+02	5.46700e+03	2.62266e-02	4.95583e+02
5475	4.97080e+02	5.47500e+03	2.61695e-02	4.96250e+02
5483	4.97725e+02	5.48300e+03	2.62569e-02	4.96917e+02
5491	4.98387e+02	5.49100e+03	2.62380e-02	4.97583e+02
5499	4.99040e+02	5.49900e+03	2.61702e-02	4.98250e+02
5507	4.99689e+02	5.50700e+03	2.62466e-02	4.98917e+02
5515	5.00352e+02	5.51500e+03	2.62267e-02	4.99583e+02
5523	5.00997e+02	5.52300e+03	2.62295e-02	5.00250e+02
5531	5.01672e+02	5.53100e+03	2.61900e-02	5.00917e+02
5539	5.02319e+02	5.53900e+03	2.62936e-02	5.01583e+02
5547	5.02983e+02	5.54700e+03	2.62079e-02	5.02250e+02
5555	5.03642e+02	5.55500e+03	2.61696e-02	5.02917e+02
5563	5.04304e+02	5.56300e+03	2.62552e-02	5.03583e+02
5571	5.04952e+02	5.57100e+03	2.63997e-02	5.04250e+02
5579	5.05624e+02	5.57900e+03	2.62401e-02	5.04917e+02
5587	5.06298e+02	5.58700e+03	2.61113e-02	5.05583e+02
5595	5.06940e+02	5.59500e+03	2.61006e-02	5.06250e+02
5603	5.07604e+02	5.60300e+03	2.60708e-02	5.06917e+02
5611	5.08269e+02	5.61100e+03	2.60995e-02	5.07583e+02
5619	5.08922e+02	5.61900e+03	2.60783e-02	5.08250e+02
5627	5.09583e+02	5.62700e+03	2.61553e-02	5.08917e+02
5635	5.10243e+02	5.63500e+03	2.63036e-02	5.09583e+02
5643	5.10902e+02	5.64300e+03	2.62510e-02	5.10250e+02
5651	5.11563e+02	5.65100e+03	2.62672e-02	5.10917e+02
5659	5.12220e+02	5.65900e+03	2.62042e-02	5.11583e+02
5667	5.12868e+02	5.66700e+03	2.62301e-02	5.12250e+02
5675	5.13523e+02	5.67500e+03	2.61906e-02	5.12917e+02
5683	5.14180e+02	5.68300e+03	2.61745e-02	5.13583e+02
5691	5.14831e+02	5.69100e+03	2.62897e-02	5.14250e+02
5699	5.15508e+02	5.69900e+03	2.62464e-02	5.14917e+02
5707	5.16161e+02	5.70700e+03	2.62049e-02	5.15583e+02
5715	5.16809e+02	5.71500e+03	2.62732e-02	5.16250e+02
5723	5.17474e+02	5.72300e+03	2.62020e-02	5.16917e+02
5731	5.18132e+02	5.73100e+03	2.62875e-02	5.17583e+02
5739	5.18795e+02	5.73900e+03	2.63184e-02	5.18250e+02
5747	5.19456e+02	5.74700e+03	2.62363e-02	5.18917e+02
5755	5.20112e+02	5.75500e+03	2.61620e-02	5.19583e+02
5763	5.20779e+02	5.76300e+03	2.60580e-02	5.20250e+02
5771	5.21446e+02	5.77100e+03	2.60330e-02	5.20917e+02
5779	5.22103e+02	5.77900e+03	2.61538e-02	5.21583e+02
5787	5.22769e+02	5.78700e+03	2.62465e-02	5.22250e+02
5795	5.23432e+02	5.79500e+03	2.61001e-02	5.22917e+02
5803	5.24101e+02	5.80300e+03	2.60416e-02	5.23583e+02
5811	5.24759e+02	5.81100e+03	2.60453e-02	5.24250e+02
5819	5.25435e+02	5.81900e+03	2.60333e-02	5.24917e+02
5827	5.26110e+02	5.82700e+03	2.61318e-02	5.25583e+02
5835	5.26762e+02	5.83500e+03	2.60083e-02	5.26250e+02
5843	5.27425e+02	5.84300e+03	2.59755e-02	5.26917e+02
5851	5.28097e+02	5.85100e+03	2.59949e-02	5.27583e+02
5859	5.28763e+02	5.85900e+03	2.59295e-02	5.28250e+02
5867	5.29422e+02	5.86700e+03	2.59440e-02	5.28917e+02
5875	5.30082e+02	5.87500e+03	2.60016e-02	5.29583e+02
5883	5.30745e+02	5.88300e+03	2.61327e-02	5.30250e+02
5891	5.31406e+02	5.89100e+03	2.62054e-02	5.30917e+02
5899	5.32055e+02	5.89900e+03	2.60817e-02	5.31583e+02
5907	5.32725e+02	5.90700e+03	2.60551e-02	5.32250e+02
5915	5.33390e+02	5.91500e+03	2.61640e-02	5.32917e+02
5923	5.34046e+02	5.92300e+03	2.62409e-02	5.33583e+02
5931	5.34711e+02	5.93100e+03	2.60862e-02	5.34250e+02
5939	5.35369e+02	5.93900e+03	2.60185e-02	5.34917e+02
5947	5.36036e+02	5.94700e+03	2.60023e-02	5.35583e+02
5955	5.36708e+02	5.95500e+03	2.60639e-02	5.36250e+02
5963	5.37375e+02	5.96300e+03	2.61140e-02	5.36917e+02
5971	5.38043e+02	5.97100e+03	2.60372e-02	5.37583e+02
5979	5.38718e+02	5.97900e+03	2.61107e-02	5.38250e+02
5987	5.39390e+02	5.98700e+03	2.62604e-02	5.38917e+02
5995	5.40056e+02	5.99500e+03	2.62640e-02	5.39583e+02
6003	5.40722e+02	6.00300e+03	2.61327e-02	5.40250e+02
6011	5.41395e+02	6.01100e+03	2.59544e-02	5.40917e+02
6019	5.42048e+02	6.01900e+03	2.60092e-02	5.41583e+02
6027	5.42721e+02	6.02700e+03	2.60083e-02	5.42250e+02
6035	5.43387e+02	6.03500e+03	2.58207e-02	5.42917e+02
6043	5.44061e+02	6.04300e+03	2.59071e-02	5.43583e+02
6051	5.44724e+02	6.05100e+03	2.59895e-02	5.44250e+02
6059	5.45387e+02	6.05900e+03	2.60615e-02	5.44917e+02
6067	5.46056e+02	6.06700e+03	2.61126e-02	5.45583e+02
6075	5.46705e+02	6.07500e+03	2.61495e-02	5.46250e+02
6083	5.47365e+02	6.08300e+03	2.61727e-02	5.46917e+02
6091	5.48022e+02	6.09100e+03	2.61992e-02	5.47583e+02
6099	5.48682e+02	6.09900e+03	2.59934e-02	5.48250e+02
6107	5.49344e+02	6.10700e+03	2.59990e-02	5.48917e+02
6115	5.50008e+02	6.11500e+03	2.61871e-02	5.49583e+02
6123	5.50675e+02	6.12300e+03	2.60365e-02	5.50250e+02
6131	5.51333e+02	6.13100e+03	2.59576e-02	5.50917e+02
6139	5.51999e+02	6.13900e+03	2.59973e-02	5.51583e+02
6147	5.52664e+02	6.14700e+03	2.58825e-02	5.52250e+02
6155	5.53346e+02	6.15500e+03	2.59829e-02	5.52917e+02
6163	5.54002e+02	6.16300e+03	2.60980e-02	5.53583e+02
6171	5.54671e+02	6.17100e+03	2.61342e-02	5.54250e+02
6179	5.55330e+02	6.17900e+03	2.60357e-02	5.54917e+02
6187	5.55986e+02	6.18700e+03	2.61334e-02	5.55583e+02
6195	5.56655e+02	6.19500e+03	2.61578e-02	5.56250e+02
6203	5.57322e+02	6.20300e+03	2.60539e-02	5.56917e+02
6211	5.57979e+02	6.21100e+03	2.60829e-02	5.57583e+02
6219	5.58656e+02	6.21900e+03	2.61027e-02	5.58250e+02
6227	5.59298e+02	6.22700e+03	2.60936e-02	5.58917e+02
6235	5.59948e+02	6.23500e+03	2.59728e-02	5.59583e+02
6243	5.60615e+02	6.24300e+03	2.59696e-02	5.60250e+02
6251	5.61295e+02	6.25100e+03	2.58686e-02	5.60917e+02
6259	5.61954e+02	6.25900e+03	2.59184e-02	5.61583e+02
6267	5.62632e+02	6.26700e+03	2.59462e-02	5.62250e+02
6275	5.63296e+02	6.27500e+03	2.59910e-02	5.62917e+02
6283	5.63969e+02	6.28300e+03	2.58651e-02	5.63583e+02
6291	5.64634e+02	6.29100e+03	2.57261e-02	5.64250e+02
6299	5.65317e+02	6.29900e+03	2.58505e-02	5.64917e+02
6307	5.65990e+02	6.30700e+03	2.59462e-02	5.65583e+02
6315	5.66660e+02	6.31500e+03	2.59571e-02	5.66250e+02
6323	5.67332e+02	6.32300e+03	2.58959e-02	5.66917e+02
6331	5.68011e+02	6.33100e+03	2.58463e-02	5.67583e+02
6339	5.68700e+02	6.33900e+03	2.59301e-02	5.68250e+02
6347	5.69382e+02	6.34700e+03	2.59871e-02	5.68917e+02
6355	5.70046e+02	6.35500e+03	2.59412e-02	5.69583e+02
6363	5.70737e+02	6.36300e+03	2.60291e-02	5.70250e+02
6371	5.71402e+02	6.37100e+03	2.59493e-02	5.70917e+02
6379	5.72076e+02	6.37900e+03	2.59999e-02	5.71583e+02
6387	5.72740e+02	6.38700e+03	2.60398e-02	5.72250e+02
6395	5.73405e+02	6.39500e+03	2.59975e-02	5.72917e+02
6403	5.74085e+02	6.40300e+03	2.59097e-02	5.73583e+02
6411	5.74757e+02	6.41100e+03	2.60200e-02	5.74250e+02
6419	5.75426e+02	6.41900e+03	2.59386e-02	5.74917e+02
6427	5.76098e+02	6.42700e+03	2.58780e-02	5.75583e+02
6435	5.76777e+02	6.43500e+03	2.60422e-02	5.76250e+02
6443	5.77453e+02	6.44300e+03	2.59006e-02	5.76917e+02
6451	5.78115e+02	6.45100e+03	2.58419e-02	5.77583e+02
6459	5.78783e+02	6.45900e+03	2.60565e-02	5.78250e+02
6467	5.79449e+02	6.46700e+03	2.58854e-02	5.78917e+02
6475	5.80117e+02	6.47500e+03	2.58644e-02	5.79583e+02
6483	5.80768e+02	6.48300e+03	2.59968e-02	5.80250e+02
6491	5.81444e+02	6.49100e+03	2.59748e-02	5.80917e+02
6499	5.82122e+02	6.49900e+03	2.59700e-02	5.81583e+02
6507	5.82786e+02	6.50700e+03	2.58629e-02	5.82250e+02
6515	5.83481e+02	6.51500e+03	2.58725e-02	5.82917e+02
6523	5.84151e+02	6.52300e+03	2.58767e-02	5.83583e+02
6531	5.84836e+02	6.53100e+03	2.61025e-02	5.84250e+02
6539	5.85508e+02	6.53900e+03	2.60607e-02	5.84917e+02
6547	5.86162e+02	6.54700e+03	2.60638e-02	5.85583e+02
6555	5.86831e+02	6.55500e+03	2.60115e-02	5.86250e+02
6563	5.87498e+02	6.56300e+03	2.60409e-02	5.86917e+02
6571	5.88150e+02	6.57100e+03	2.60021e-02	5.87583e+02
6579	5.88810e+02	6.57900e+03	2.58715e-02	5.88250e+02
6587	5.89474e+02	6.58700e+03	2.58042e-02	5.88917e+02
6595	5.90132e+02	6.59500e+03	2.58194e-02	5.89583e+02
6603	5.90801e+02	6.60300e+03	2.58738e-02	5.90250e+02
6611	5.91452e+02	6.61100e+03	2.58304e-02	5.90917e+02
6619	5.92116e+02	6.61900e+03	2.57100e-02	5.91583e+02
6627	5.92786e+02	6.62700e+03	2.59403e-02	5.92250e+02
6635	5.93444e+02	6.63500e+03	2.59309e-02	5.92917e+02
6643	5.94094e+02	6.64300e+03	2.58987e-02	5.93583e+02
6651	5.94767e+02	6.65100e+03	2.58323e-02	5.94250e+02
6659	5.95432e+02	6.65900e+03	2.58816e-02	5.94917e+02
6667	5.96094e+02	6.66700e+03	2.57520e-02	5.95583e+02
6675	5.96760e+02	6.67500e+03	2.56803e-02	5.96250e+02
6683	5.97438e+02	6.68300e+03	2.57500e-02	5.96917e+02
6691	5.98099e+02	6.69100e+03	2.58222e-02	5.97583e+02
6699	5.98769e+02	6.69900e+03	2.58666e-02	5.98250e+02
6707	5.99426e+02	6.70700e+03	2.58232e-02	5.98917e+02
6715	6.00089e+02	6.71500e+03	2.58064e-02	5.99583e+02
6723	6.00758e+02	6.72300e+03	2.57721e-02	6.00250e+02
6731	6.01411e+02	6.73100e+03	2.58115e-02	6.00917e+02
6739	6.02083e+02	6.73900e+03	2.58033e-02	6.01583e+02
6747	6.02740e+02	6.74700e+03	2.56987e-02	6.02250e+02
6755	6.03408e+02	6.75500e+03	2.55645e-02	6.02917e+02
6763	6.04081e+02	6.76300e+03	2.56469e-02	6.03583e+02
6771	6.04743e+02	6.77100e+03	2.55736e-02	6.04250e+02
6779	6.05409e+02	6.77900e+03	2.56331e-02	6.04917e+02
6787	6.06070e+02	6.78700e+03	2.56651e-02	6.05583e+02
6795	6.06750e+02	6.79500e+03	2.55543e-02	6.06250e+02
6803	6.07421e+02	6.80300e+03	2.55937e-02	6.06917e+02
6811	6.08083e+02	6.81100e+03	2.56304e-02	6.07583e+02
6819	6.08752e+02	6.81900e+03	2.55176e-02	6.08250e+02
6827	6.09420e+02	6.82700e+03	2.55393e-02	6.08917e+02
6835	6.10081e+02	6.83500e+03	2.55718e-02	6.09583e+02
6843	6.10746e+02	6.84300e+03	2.56779e-02	6.10250e+02
6851	6.11409e+02	6.85100e+03	2.56617e-02	6.10917e+02
6859	6.12074e+02	6.85900e+03	2.56816e-02	6.11583e+02
6867	6.12744e+02	6.86700e+03	2.56696e-02	6.12250e+02
6875	6.13402e+02	6.87500e+03	2.55329e-02	6.12917e+02
6883	6.14069e+02	6.88300e+03	2.55624e-02	6.13583e+02
6891	6.14728e+02	6.89100e+03	2.55876e-02	6.14250e+02
6899	6.15394e+02	6.89900e+03	2.55790e-02	6.14917e+02
6907	6.16051e+02	6.90700e+03	2.54919e-02	6.15583e+02
6915	6.16716e+02	6.91500e+03	2.54175e-02	6.16250e+02
6923	6.17376e+02	6.92300e+03	2.53689e-02	6.16917e+02
6931	6.18045e+02	6.93100e+03	2.55497e-02	6.17583e+02
6939	6.18715e+02	6.93900e+03	2.55884e-02	6.18250e+02
6947	6.19381e+02	6.94700e+03	2.54767e-02	6.18917e+02
6955	6.20050e+02	6.95500e+03	2.53671e-02	6.19583e+02
6963	6.20724e+02	6.96300e+03	2.54335e-02	6.20250e+02
6971	6.21397e+02	6.97100e+03	2.54415e-02	6.20917e+02
6979	6.22065e+02	6.97900e+03	2.55423e-02	6.21583e+02
6987	6.22729e+02	6.98700e+03	2.55415e-02	6.22250e+02
6995	6.23409e+02	6.99500e+03	2.55689e-02	6.22917e+02
7003	6.24065e+02	7.00300e+03	2.55419e-02	6.23583e+02
7011	6.24740e+02	7.01100e+03	2.54359e-02	6.24250e+02
7019	6.25396e+02	7.01900e+03	2.54748e-02	6.24917e+02
7027	6.26069e+02	7.02700e+03	2.55525e-02	6.25583e+02
7035	6.26735e+02	7.03500e+03	2.54853e-02	6.26250e+02
7043	6.27400e+02	7.04300e+03	2.52722e-02	6.26917e+02
7051	6.28061e+02	7.05100e+03	2.52840e-02	6.27583e+02
7059	6.28726e+02	7.05900e+03	2.53389e-02	6.28250e+02
7067	6.29396e+02	7.06700e+03	2.53790e-02	6.28917e+02
7075	6.30061e+02	7.07500e+03	2.53957e-02	6.29583e+02
7083	6.30713e+02	7.08300e+03	2.54969e-02	6.30250e+02
7091	6.31377e+02	7.09100e+03	2.54667e-02	6.30917e+02
7099	6.32042e+02	7.09900e+03	2.53610e-02	6.31583e+02
7107	6.32695e+02	7.10700e+03	2.53881e-02	6.32250e+02
7115	6.33355e+02	7.11500e+03	2.54070e-02	6.32917e+02
7123	6.34016e+02	7.12300e+03	2.54501e-02	6.33583e+02
7131	6.34673e+02	7.13100e+03	2.54026e-02	6.34250e+02
7139	6.35341e+02	7.13900e+03	2.53571e-02	6.34917e+02
7147	6.35998e+02	7.14700e+03	2.54013e-02	6.35583e+02
7155	6.36666e+02	7.15500e+03	2.52742e-02	6.36250e+02
7163	6.37324e+02	7.16300e+03	2.51913e-02	6.36917e+02
7171	6.37992e+02	7.17100e+03	2.53886e-02	6.37583e+02
7179	6.38641e+02	7.17900e+03	2.54179e-02	6.38250e+02
7187	6.39297e+02	7.18700e+03	2.53816e-02	6.38917e+02
7195	6.39958e+02	7.19500e+03	2.54069e-02	6.39583e+02
7203	6.40628e+02	7.20300e+03	2.52808e-02	6.40250e+02
7211	6.41277e+02	7.21100e+03	2.51250e-02	6.40917e+02
7219	6.41949e+02	7.21900e+03	2.51678e-02	6.41583e+02
7227	6.42598e+02	7.22700e+03	2.53094e-02	6.42250e+02
7235	6.43267e+02	7.23500e+03	2.52675e-02	6.42917e+02
7243	6.43932e+02	7.24300e+03	2.52198e-02	6.43583e+02
7251	6.44589e+02	7.25100e+03	2.53293e-02	6.44250e+02
7259	6.45260e+02	7.25900e+03	2.52930e-02	6.44917e+02
7267	6.45919e+02	7.26700e+03	2.52564e-02	6.45583e+02
7275	6.46591e+02	7.27500e+03	2.52450e-02	6.46250e+02
7283	6.47262e+02	7.28300e+03	2.51890e-02	6.46917e+02
7291	6.47913e+02	7.29100e+03	2.51797e-02	6.47583e+02
7299	6.48575e+02	7.29900e+03	2.51709e-02	6.48250e+02
7307	6.49241e+02	7.30700e+03	2.51359e-02	6.48917e+02
7315	6.49901e+02	7.31500e+03	2.51079e-02	6.49583e+02
7323	6.50556e+02	7.32300e+03	2.51113e-02	6.50250e+02
7331	6.51228e+02	7.33100e+03	2.52578e-02	6.50917e+02
7339	6.51886e+02	7.33900e+03	2.52803e-02	6.51583e+02
7347	6.52549e+02	7.34700e+03	2.51687e-02	6.52250e+02
7355	6.53226e+02	7.35500e+03	2.51392e-02	6.52917e+02
7363	6.53903e+02	7.36300e+03	2.52540e-02	6.53583e+02
7371	6.54565e+02	7.37100e+03	2.52351e-02	6.54250e+02
7379	6.55228e+02	7.37900e+03	2.51127e-02	6.54917e+02
7387	6.55891e+02	7.38700e+03	2.51442e-02	6.55583e+02
7395	6.56556e+02	7.39500e+03	2.51259e-02	6.56250e+02
7403	6.57221e+02	7.40300e+03	2.52041e-02	6.56917e+02
7411	6.57896e+02	7.41100e+03	2.52620e-02	6.57583e+02
7419	6.58573e+02	7.41900e+03	2.53255e-02	6.58250e+02
7427	6.59242e+02	7.42700e+03	2.52050e-02	6.58917e+02
7435	6.59904e+02	7.43500e+03	2.50072e-02	6.59583e+02
7443	6.60568e+02	7.44300e+03	2.50439e-02	6.60250e+02
7451	6.61253e+02	7.45100e+03	2.51593e-02	6.60917e+02
7459	6.61914e+02	7.45900e+03	2.51766e-02	6.61583e+02
7467	6.62585e+02	7.46700e+03	2.53010e-02	6.62250e+02
7475	6.63252e+02	7.47500e+03	2.52553e-02	6.62917e+02
7483	6.63928e+02	7.48300e+03	2.51045e-02	6.63583e+02
7491	6.64608e+02	7.49100e+03	2.51580e-02	6.64250e+02
7499	6.65274e+02	7.49900e+03	2.52203e-02	6.64917e+02
7507	6.65945e+02	7.50700e+03	2.51182e-02	6.65583e+02
7515	6.66625e+02	7.51500e+03	2.50380e-02	6.66250e+02
7523	6.67295e+02	7.52300e+03	2.51622e-02	6.66917e+02
7531	6.67971e+02	7.53100e+03	2.52004e-02	6.67583e+02
7539	6.68639e+02	7.53900e+03	2.52230e-02	6.68250e+02
7547	6.69298e+02	7.54700e+03	2.52316e-02	6.68917e+02
7555	6.69961e+02	7.55500e+03	2.51829e-02	6.69583e+02
7563	6.70634e+02	7.56300e+03	2.51411e-02	6.70250e+02
7571	6.71296e+02	7.57100e+03	2.52261e-02	6.70917e+02
7579	6.71953e+02	7.57900e+03	2.52037e-02	6.71583e+02
7587	6.72623e+02	7.58700e+03	2.51589e-02	6.72250e+02
7595	6.73288e+02	7.59500e+03	2.50762e-02	6.72917e+02
7603	6.73947e+02	7.60300e+03	2.51181e-02	6.73583e+02
7611	6.74618e+02	7.61100e+03	2.50646e-02	6.74250e+02
7619	6.75287e+02	7.61900e+03	2.50745e-02	6.74917e+02
7627	6.75953e+02	7.62700e+03	2.50968e-02	6.75583e+02
7635	6.76615e+02	7.63500e+03	2.49912e-02	6.76250e+02
7643	6.77285e+02	7.64300e+03	2.49587e-02	6.76917e+02
7651	6.77945e+02	7.65100e+03	2.50278e-02	6.77583e+02
7659	6.78599e+02	7.65900e+03	2.49813e-02	6.78250e+02
7667	6.79282e+02	7.66700e+03	2.50629e-02	6.78917e+02
7675	6.79940e+02	7.67500e+03	2.52553e-02	6.79583e+02
7683	6.80614e+02	7.68300e+03	2.52029e-02	6.80250e+02
7691	6.81273e+02	7.69100e+03	2.51947e-02	6.80917e+02
7699	6.81947e+02	7.69900e+03	2.50930e-02	6.81583e+02
7707	6.82626e+02	7.70700e+03	2.51114e-02	6.82250e+02
7715	6.83286e+02	7.71500e+03	2.51484e-02	6.82917e+02
7723	6.83964e+02	7.72300e+03	2.51622e-02	6.83583e+02
7731	6.84625e+02	7.73100e+03	2.50495e-02	6.84250e+02
7739	6.85304e+02	7.73900e+03	2.49530e-02	6.84917e+02
7747	6.85975e+02	7.74700e+03	2.50194e-02	6.85583e+02
7755	6.86653e+02	7.75500e+03	2.51615e-02	6.86250e+02
7763	6.87326e+02	7.76300e+03	2.52250e-02	6.86917e+02
7771	6.88003e+02	7.77100e+03	2.51833e-02	6.87583e+02
7779	6.88672e+02	7.77900e+03	2.52132e-02	6.88250e+02
7787	6.89336e+02	7.78700e+03	2.53002e-02	6.88917e+02
7795	6.90013e+02	7.79500e+03	2.52333e-02	6.89583e+02
7803	6.90696e+02	7.80300e+03	2.51761e-02	6.90250e+02
7811	6.91357e+02	7.81100e+03	2.51735e-02	6.90917e+02
7819	6.92044e+02	7.81900e+03	2.52697e-02	6.91583e+02
7827	6.92703e+02	7.82700e+03	2.53293e-02	6.92250e+02
7835	6.93371e+02	7.83500e+03	2.52163e-02	6.92917e+02
7843	6.94055e+02	7.84300e+03	2.52181e-02	6.93583e+02
7851	6.94710e+02	7.85100e+03	2.52070e-02	6.94250e+02
7859	6.95386e+02	7.85900e+03	2.50219e-02	6.94917e+02
7867	6.96058e+02	7.86700e+03	2.49427e-02	6.95583e+02
7875	6.96721e+02	7.87500e+03	2.49249e-02	6.96250e+02
7883	6.97400e+02	7.88300e+03	2.50194e-02	6.96917e+02
7891	6.98060e+02	7.89100e+03	2.50153e-02	6.97583e+02
7899	6.98579e+02	7.89900e+03	2.51481e-02	6.98250e+02
7907	6.99033e+02	7.90700e+03	2.51965e-02	6.98917e+02
7915	6.99380e+02	7.91500e+03	2.51442e-02	6.99583e+02
7920	6.99561e+02	7.92000e+03	2.51074e-02	7.00000e+02