File: Experiments/TUBS/tga_nonisotherm/tga_dynamic_n2_dyn60_powder_12mg_r1.txt
index	ts	t	weight	tr
[#]	[°C]	[s]	[mg]	[°C]
643	1.30494e+02	6.43000e+02	1.19784e+01	1.33000e+02
644	1.31543e+02	6.44000e+02	1.19784e+01	1.34000e+02
645	1.32590e+02	6.45000e+02	1.19783e+01	1.35000e+02
646	1.33640e+02	6.46000e+02	1.19782e+01	1.36000e+02
647	1.34674e+02	6.47000e+02	1.19781e+01	1.37000e+02
648	1.35705e+02	6.48000e+02	1.19780e+01	1.38000e+02
649	1.36742e+02	6.49000e+02	1.19778e+01	1.39000e+02
650	1.37779e+02	6.50000e+02	1.19777e+01	1.40000e+02
651	1.38830e+02	6.51000e+02	1.19775e+01	1.41000e+02
652	1.39864e+02	6.52000e+02	1.19773e+01	1.42000e+02
653	1.40903e+02	6.53000e+02	1.19771e+01	1.43000e+02
654	1.41930e+02	6.54000e+02	1.19769e+01	1.44000e+02
655	1.42956e+02	6.55000e+02	1.19767e+01	1.45000e+02
656	1.43978e+02	6.56000e+02	1.19763e+01	1.46000e+02
657	1.45013e+02	6.57000e+02	1.19760e+01	1.47000e+02
658	1.46034e+02	6.58000e+02	1.19756e+01	1.48000e+02
659	1.47040e+02	6.59000e+02	1.19752e+01	1.49000e+02
660	1.48067e+02	6.60000e+02	1.19746e+01	1.50000e+02
661	1.49095e+02	6.61000e+02	1.19741e+01	1.51000e+02
662	1.50114e+02	6.62000e+02	1.19735e+01	1.52000e+02
663	1.51168e+02	6.63000e+02	1.19729e+01	1.53000e+02
664	1.52214e+02	6.64000e+02	1.19721e+01	1.54000e+02
665	1.53251e+02	6.65000e+02	1.19713e+01	1.55000e+02
666	1.54271e+02	6.66000e+02	1.19705e+01	1.56000e+02
667	1.55306e+02	6.67000e+02	1.19697e+01	1.57000e+02
668	1.56324e+02	6.68000e+02	1.19686e+01	1.58000e+02
669	1.57354e+02	6.69000e+02	1.19676e+01	1.59000e+02
670	1.58376e+02	6.70000e+02	1.19666e+01	1.60000e+02
671	1.59392e+02	6.71000e+02	1.19655e+01	1.61000e+02
672	1.60422e+02	6.72000e+02	1.19643e+01	1.62000e+02
673	1.61453e+02	6.73000e+02	1.19630e+01	1.63000e+02
674	1.62472e+02	6.74000e+02	1.19618e+01	1.64000e+02
675	1.63504e+02	6.75000e+02	1.19605e+01	1.65000e+02
676	1.64528e+02	6.76000e+02	1.19590e+01	1.66000e+02
677	1.65553e+02	6.77000e+02	1.19575e+01	1.67000e+02
678	1.66574e+02	6.78000e+02	1.19560e+01	1.68000e+02
679	1.67600e+02	6.79000e+02	1.19544e+01	1.69000e+02
680	1.68628e+02	6.80000e+02	1.19527e+01	1.70000e+02
681	1.69656e+02	6.81000e+02	1.19509e+01	1.71000e+02
682	1.70671e+02	6.82000e+02	1.19491e+01	1.72000e+02
683	1.71687e+02	6.83000e+02	1.19473e+01	1.73000e+02
684	1.72721e+02	6.84000e+02	1.19453e+01	1.74000e+02
685	1.73746e+02	6.85000e+02	1.19432e+01	1.75000e+02
686	1.74767e+02	6.86000e+02	1.19411e+01	1.76000e+02
687	1.75784e+02	6.87000e+02	1.19390e+01	1.77000e+02
688	1.76811e+02	6.88000e+02	1.19365e+01	1.78000e+02
689	1.77838e+02	6.89000e+02	1.19340e+01	1.79000e+02
690	1.78862e+02	6.90000e+02	1.19314e+01	1.80000e+02
691	1.79878e+02	6.91000e+02	1.19288e+01	1.81000e+02
692	1.80904e+02	6.92000e+02	1.19256e+01	1.82000e+02
693	1.81921e+02	6.93000e+02	1.19225e+01	1.83000e+02
694	1.82946e+02	6.94000e+02	1.19193e+01	1.84000e+02
695	1.83961e+02	6.95000e+02	1.19159e+01	1.85000e+02
696	1.84991e+02	6.96000e+02	1.19119e+01	1.86000e+02
697	1.85997e+02	6.97000e+02	1.19079e+01	1.87000e+02
698	1.87021e+02	6.98000e+02	1.19037e+01	1.88000e+02
699	1.88042e+02	6.99000e+02	1.18993e+01	1.89000e+02
700	1.89064e+02	7.00000e+02	1.18941e+01	1.90000e+02
701	1.90073e+02	7.01000e+02	1.18889e+01	1.91000e+02
702	1.91106e+02	7.02000e+02	1.18835e+01	1.92000e+02
703	1.92105e+02	7.03000e+02	1.18778e+01	1.93000e+02
704	1.93116e+02	7.04000e+02	1.18710e+01	1.94000e+02
705	1.94131e+02	7.05000e+02	1.18643e+01	1.95000e+02
706	1.95150e+02	7.06000e+02	1.18573e+01	1.96000e+02
707	1.96167e+02	7.07000e+02	1.18501e+01	1.97000e+02
708	1.97176e+02	7.08000e+02	1.18416e+01	1.98000e+02
709	1.98199e+02	7.09000e+02	1.18332e+01	1.99000e+02
710	1.99218e+02	7.10000e+02	1.18246e+01	2.00000e+02
711	2.00232e+02	7.11000e+02	1.18157e+01	2.01000e+02
712	2.01251e+02	7.12000e+02	1.18056e+01	2.02000e+02
713	2.02258e+02	7.13000e+02	1.17956e+01	2.03000e+02
714	2.03265e+02	7.14000e+02	1.17855e+01	2.04000e+02
715	2.04275e+02	7.15000e+02	1.17751e+01	2.05000e+02
716	2.05275e+02	7.16000e+02	1.17637e+01	2.06000e+02
717	2.06273e+02	7.17000e+02	1.17525e+01	2.07000e+02
718	2.07293e+02	7.18000e+02	1.17412e+01	2.08000e+02
719	2.08322e+02	7.19000e+02	1.17298e+01	2.09000e+02
720	2.09339e+02	7.20000e+02	1.17178e+01	2.10000e+02
721	2.10357e+02	7.21000e+02	1.17060e+01	2.11000e+02
722	2.11371e+02	7.22000e+02	1.16943e+01	2.12000e+02
723	2.12397e+02	7.23000e+02	1.16826e+01	2.13000e+02
724	2.13409e+02	7.24000e+02	1.16708e+01	2.14000e+02
725	2.14417e+02	7.25000e+02	1.16593e+01	2.15000e+02
726	2.15442e+02	7.26000e+02	1.16479e+01	2.16000e+02
727	2.16448e+02	7.27000e+02	1.16367e+01	2.17000e+02
728	2.17477e+02	7.28000e+02	1.16261e+01	2.18000e+02
729	2.18492e+02	7.29000e+02	1.16156e+01	2.19000e+02
730	2.19516e+02	7.30000e+02	1.16055e+01	2.20000e+02
731	2.20555e+02	7.31000e+02	1.15956e+01	2.21000e+02
732	2.21580e+02	7.32000e+02	1.15869e+01	2.22000e+02
733	2.22608e+02	7.33000e+02	1.15782e+01	2.23000e+02
734	2.23663e+02	7.34000e+02	1.15698e+01	2.24000e+02
735	2.24690e+02	7.35000e+02	1.15617e+01	2.25000e+02
736	2.25740e+02	7.36000e+02	1.15552e+01	2.26000e+02
737	2.26791e+02	7.37000e+02	1.15485e+01	2.27000e+02
738	2.27772e+02	7.38000e+02	1.15421e+01	2.28000e+02
739	2.28822e+02	7.39000e+02	1.15359e+01	2.29000e+02
740	2.29867e+02	7.40000e+02	1.15312e+01	2.30000e+02
741	2.30901e+02	7.41000e+02	1.15262e+01	2.31000e+02
742	2.31923e+02	7.42000e+02	1.15214e+01	2.32000e+02
743	2.32941e+02	7.43000e+02	1.15167e+01	2.33000e+02
744	2.33992e+02	7.44000e+02	1.15131e+01	2.34000e+02
745	2.35019e+02	7.45000e+02	1.15092e+01	2.35000e+02
746	2.36055e+02	7.46000e+02	1.15054e+01	2.36000e+02
747	2.37073e+02	7.47000e+02	1.15017e+01	2.37000e+02
748	2.38103e+02	7.48000e+02	1.14986e+01	2.38000e+02
749	2.39128e+02	7.49000e+02	1.14952e+01	2.39000e+02
750	2.40179e+02	7.50000e+02	1.14919e+01	2.40000e+02
751	2.41187e+02	7.51000e+02	1.14886e+01	2.41000e+02
752	2.42199e+02	7.52000e+02	1.14855e+01	2.42000e+02
753	2.43221e+02	7.53000e+02	1.14823e+01	2.43000e+02
754	2.44264e+02	7.54000e+02	1.14791e+01	2.44000e+02
755	2.45300e+02	7.55000e+02	1.14759e+01	2.45000e+02
756	2.46317e+02	7.56000e+02	1.14728e+01	2.46000e+02
757	2.47344e+02	7.57000e+02	1.14696e+01	2.47000e+02
758	2.48419e+02	7.58000e+02	1.14665e+01	2.48000e+02
759	2.49467e+02	7.59000e+02	1.14633e+01	2.49000e+02
760	2.50500e+02	7.60000e+02	1.14601e+01	2.50000e+02
761	2.51514e+02	7.61000e+02	1.14570e+01	2.51000e+02
762	2.52498e+02	7.62000e+02	1.14538e+01	2.52000e+02
763	2.53498e+02	7.63000e+02	1.14507e+01	2.53000e+02
764	2.54501e+02	7.64000e+02	1.14476e+01	2.54000e+02
765	2.55513e+02	7.65000e+02	1.14445e+01	2.55000e+02
766	2.56543e+02	7.66000e+02	1.14414e+01	2.56000e+02
767	2.57559e+02	7.67000e+02	1.14383e+01	2.57000e+02
768	2.58583e+02	7.68000e+02	1.14352e+01	2.58000e+02
769	2.59592e+02	7.69000e+02	1.14322e+01	2.59000e+02
770	2.60623e+02	7.70000e+02	1.14292e+01	2.60000e+02
771	2.61636e+02	7.71000e+02	1.14262e+01	2.61000e+02
772	2.62654e+02	7.72000e+02	1.14234e+01	2.62000e+02
773	2.63662e+02	7.73000e+02	1.14205e+01	2.63000e+02
774	2.64672e+02	7.74000e+02	1.14177e+01	2.64000e+02
775	2.65674e+02	7.75000e+02	1.14149e+01	2.65000e+02
776	2.66691e+02	7.76000e+02	1.14122e+01	2.66000e+02
777	2.67693e+02	7.77000e+02	1.14095e+01	2.67000e+02
778	2.68708e+02	7.78000e+02	1.14068e+01	2.68000e+02
779	2.69743e+02	7.79000e+02	1.14041e+01	2.69000e+02
780	2.70770e+02	7.80000e+02	1.14015e+01	2.70000e+02
781	2.71782e+02	7.81000e+02	1.13989e+01	2.71000e+02
782	2.72792e+02	7.82000e+02	1.13963e+01	2.72000e+02
783	2.73810e+02	7.83000e+02	1.13937e+01	2.73000e+02
784	2.74830e+02	7.84000e+02	1.13912e+01	2.74000e+02
785	2.75836e+02	7.85000e+02	1.13886e+01	2.75000e+02
786	2.76868e+02	7.86000e+02	1.13860e+01	2.76000e+02
787	2.77893e+02	7.87000e+02	1.13834e+01	2.77000e+02
788	2.78916e+02	7.88000e+02	1.13807e+01	2.78000e+02
789	2.79931e+02	7.89000e+02	1.13781e+01	2.79000e+02
790	2.80952e+02	7.90000e+02	1.13753e+01	2.80000e+02
791	2.81971e+02	7.91000e+02	1.13726e+01	2.81000e+02
792	2.82995e+02	7.92000e+02	1.13697e+01	2.82000e+02
793	2.84013e+02	7.93000e+02	1.13668e+01	2.83000e+02
794	2.85033e+02	7.94000e+02	1.13638e+01	2.84000e+02
795	2.86052e+02	7.95000e+02	1.13608e+01	2.85000e+02
796	2.87071e+02	7.96000e+02	1.13575e+01	2.86000e+02
797	2.88086e+02	7.97000e+02	1.13542e+01	2.87000e+02
798	2.89127e+02	7.98000e+02	1.13508e+01	2.88000e+02
799	2.90132e+02	7.99000e+02	1.13473e+01	2.89000e+02
800	2.91158e+02	8.00000e+02	1.13433e+01	2.90000e+02
801	2.92180e+02	8.01000e+02	1.13393e+01	2.91000e+02
802	2.93212e+02	8.02000e+02	1.13352e+01	2.92000e+02
803	2.94225e+02	8.03000e+02	1.13310e+01	2.93000e+02
804	2.95250e+02	8.04000e+02	1.13261e+01	2.94000e+02
805	2.96274e+02	8.05000e+02	1.13213e+01	2.95000e+02
806	2.97282e+02	8.06000e+02	1.13163e+01	2.96000e+02
807	2.98307e+02	8.07000e+02	1.13111e+01	2.97000e+02
808	2.99336e+02	8.08000e+02	1.13051e+01	2.98000e+02
809	3.00341e+02	8.09000e+02	1.12991e+01	2.99000e+02
810	3.01386e+02	8.10000e+02	1.12929e+01	3.00000e+02
811	3.02396e+02	8.11000e+02	1.12865e+01	3.01000e+02
812	3.03416e+02	8.12000e+02	1.12791e+01	3.02000e+02
813	3.04427e+02	8.13000e+02	1.12718e+01	3.03000e+02
814	3.05447e+02	8.14000e+02	1.12642e+01	3.04000e+02
815	3.06467e+02	8.15000e+02	1.12563e+01	3.05000e+02
816	3.07488e+02	8.16000e+02	1.12473e+01	3.06000e+02
817	3.08499e+02	8.17000e+02	1.12383e+01	3.07000e+02
818	3.09499e+02	8.18000e+02	1.12291e+01	3.08000e+02
819	3.10524e+02	8.19000e+02	1.12197e+01	3.09000e+02
820	3.11525e+02	8.20000e+02	1.12089e+01	3.10000e+02
821	3.12525e+02	8.21000e+02	1.11983e+01	3.11000e+02
822	3.13522e+02	8.22000e+02	1.11874e+01	3.12000e+02
823	3.14521e+02	8.23000e+02	1.11763e+01	3.13000e+02
824	3.15517e+02	8.24000e+02	1.11638e+01	3.14000e+02
825	3.16509e+02	8.25000e+02	1.11515e+01	3.15000e+02
826	3.17493e+02	8.26000e+02	1.11390e+01	3.16000e+02
827	3.18490e+02	8.27000e+02	1.11262e+01	3.17000e+02
828	3.19473e+02	8.28000e+02	1.11122e+01	3.18000e+02
829	3.20467e+02	8.29000e+02	1.10984e+01	3.19000e+02
830	3.21443e+02	8.30000e+02	1.10843e+01	3.20000e+02
831	3.22425e+02	8.31000e+02	1.10700e+01	3.21000e+02
832	3.23398e+02	8.32000e+02	1.10547e+01	3.22000e+02
833	3.24364e+02	8.33000e+02	1.10395e+01	3.23000e+02
834	3.25326e+02	8.34000e+02	1.10241e+01	3.24000e+02
835	3.26274e+02	8.35000e+02	1.10086e+01	3.25000e+02
836	3.27220e+02	8.36000e+02	1.09922e+01	3.26000e+02
837	3.28164e+02	8.37000e+02	1.09759e+01	3.27000e+02
838	3.29089e+02	8.38000e+02	1.09594e+01	3.28000e+02
839	3.30027e+02	8.39000e+02	1.09427e+01	3.29000e+02
840	3.30957e+02	8.40000e+02	1.09252e+01	3.30000e+02
841	3.31907e+02	8.41000e+02	1.09078e+01	3.31000e+02
842	3.32872e+02	8.42000e+02	1.08902e+01	3.32000e+02
843	3.33855e+02	8.43000e+02	1.08724e+01	3.33000e+02
844	3.34828e+02	8.44000e+02	1.08536e+01	3.34000e+02
845	3.35819e+02	8.45000e+02	1.08348e+01	3.35000e+02
846	3.36791e+02	8.46000e+02	1.08156e+01	3.36000e+02
847	3.37773e+02	8.47000e+02	1.07962e+01	3.37000e+02
848	3.38752e+02	8.48000e+02	1.07752e+01	3.38000e+02
849	3.39758e+02	8.49000e+02	1.07544e+01	3.39000e+02
850	3.40746e+02	8.50000e+02	1.07336e+01	3.40000e+02
851	3.41737e+02	8.51000e+02	1.07118e+01	3.41000e+02
852	3.42747e+02	8.52000e+02	1.06875e+01	3.42000e+02
853	3.43728e+02	8.53000e+02	1.06631e+01	3.43000e+02
854	3.44719e+02	8.54000e+02	1.06378e+01	3.44000e+02
855	3.45706e+02	8.55000e+02	1.06117e+01	3.45000e+02
856	3.46704e+02	8.56000e+02	1.05829e+01	3.46000e+02
857	3.47696e+02	8.57000e+02	1.05545e+01	3.47000e+02
858	3.48686e+02	8.58000e+02	1.05237e+01	3.48000e+02
859	3.49660e+02	8.59000e+02	1.04907e+01	3.49000e+02
860	3.50655e+02	8.60000e+02	1.04566e+01	3.50000e+02
861	3.51639e+02	8.61000e+02	1.04212e+01	3.51000e+02
862	3.52623e+02	8.62000e+02	1.03841e+01	3.52000e+02
863	3.53602e+02	8.63000e+02	1.03454e+01	3.53000e+02
864	3.54589e+02	8.64000e+02	1.03030e+01	3.54000e+02
865	3.55562e+02	8.65000e+02	1.02596e+01	3.55000e+02
866	3.56541e+02	8.66000e+02	1.02142e+01	3.56000e+02
867	3.57512e+02	8.67000e+02	1.01672e+01	3.57000e+02
868	3.58489e+02	8.68000e+02	1.01159e+01	3.58000e+02
869	3.59447e+02	8.69000e+02	1.00635e+01	3.59000e+02
870	3.60433e+02	8.70000e+02	1.00089e+01	3.60000e+02
871	3.61405e+02	8.71000e+02	9.95258e+00	3.61000e+02
872	3.62370e+02	8.72000e+02	9.89207e+00	3.62000e+02
873	3.63337e+02	8.73000e+02	9.83057e+00	3.63000e+02
874	3.64319e+02	8.74000e+02	9.76490e+00	3.64000e+02
875	3.65314e+02	8.75000e+02	9.69785e+00	3.65000e+02
876	3.66277e+02	8.76000e+02	9.62764e+00	3.66000e+02
877	3.67241e+02	8.77000e+02	9.55450e+00	3.67000e+02
878	3.68211e+02	8.78000e+02	9.47768e+00	3.68000e+02
879	3.69172e+02	8.79000e+02	9.39965e+00	3.69000e+02
880	3.70128e+02	8.80000e+02	9.31857e+00	3.70000e+02
881	3.71079e+02	8.81000e+02	9.23454e+00	3.71000e+02
882	3.72043e+02	8.82000e+02	9.14675e+00	3.72000e+02
883	3.72990e+02	8.83000e+02	9.05766e+00	3.73000e+02
884	3.73940e+02	8.84000e+02	8.96426e+00	3.74000e+02
885	3.74872e+02	8.85000e+02	8.87001e+00	3.75000e+02
886	3.75825e+02	8.86000e+02	8.77186e+00	3.76000e+02
887	3.76781e+02	8.87000e+02	8.67242e+00	3.77000e+02
888	3.77719e+02	8.88000e+02	8.56923e+00	3.78000e+02
889	3.78657e+02	8.89000e+02	8.46516e+00	3.79000e+02
890	3.79584e+02	8.90000e+02	8.35745e+00	3.80000e+02
891	3.80531e+02	8.91000e+02	8.24871e+00	3.81000e+02
892	3.81464e+02	8.92000e+02	8.13619e+00	3.82000e+02
893	3.82398e+02	8.93000e+02	8.02284e+00	3.83000e+02
894	3.83328e+02	8.94000e+02	7.90737e+00	3.84000e+02
895	3.84276e+02	8.95000e+02	7.78973e+00	3.85000e+02
896	3.85208e+02	8.96000e+02	7.67035e+00	3.86000e+02
897	3.86161e+02	8.97000e+02	7.55121e+00	3.87000e+02
898	3.87124e+02	8.98000e+02	7.42979e+00	3.88000e+02
899	3.88098e+02	8.99000e+02	7.30629e+00	3.89000e+02
900	3.89070e+02	9.00000e+02	7.18173e+00	3.90000e+02
901	3.90033e+02	9.01000e+02	7.05586e+00	3.91000e+02
902	3.91012e+02	9.02000e+02	6.92799e+00	3.92000e+02
903	3.91959e+02	9.03000e+02	6.79805e+00	3.93000e+02
904	3.92914e+02	9.04000e+02	6.66628e+00	3.94000e+02
905	3.93863e+02	9.05000e+02	6.53480e+00	3.95000e+02
906	3.94814e+02	9.06000e+02	6.40115e+00	3.96000e+02
907	3.95756e+02	9.07000e+02	6.26556e+00	3.97000e+02
908	3.96710e+02	9.08000e+02	6.12830e+00	3.98000e+02
909	3.97663e+02	9.09000e+02	5.99089e+00	3.99000e+02
910	3.98626e+02	9.10000e+02	5.85144e+00	4.00000e+02
911	3.99586e+02	9.11000e+02	5.71182e+00	4.01000e+02
912	4.00559e+02	9.12000e+02	5.56903e+00	4.02000e+02
913	4.01551e+02	9.13000e+02	5.42722e+00	4.03000e+02
914	4.02529e+02	9.14000e+02	5.28512e+00	4.04000e+02
915	4.03498e+02	9.15000e+02	5.14267e+00	4.05000e+02
916	4.04436e+02	9.16000e+02	4.99839e+00	4.06000e+02
917	4.05434e+02	9.17000e+02	4.85427e+00	4.07000e+02
918	4.06437e+02	9.18000e+02	4.70966e+00	4.08000e+02
919	4.07351e+02	9.19000e+02	4.56462e+00	4.09000e+02
920	4.08296e+02	9.20000e+02	4.41757e+00	4.10000e+02
921	4.09251e+02	9.21000e+02	4.27150e+00	4.11000e+02
922	4.10262e+02	9.22000e+02	4.12407e+00	4.12000e+02
923	4.11254e+02	9.23000e+02	3.97412e+00	4.13000e+02
924	4.12253e+02	9.24000e+02	3.82296e+00	4.14000e+02
925	4.13250e+02	9.25000e+02	3.67036e+00	4.15000e+02
926	4.14221e+02	9.26000e+02	3.51549e+00	4.16000e+02
927	4.15236e+02	9.27000e+02	3.35828e+00	4.17000e+02
928	4.16278e+02	9.28000e+02	3.19905e+00	4.18000e+02
929	4.17285e+02	9.29000e+02	3.04003e+00	4.19000e+02
930	4.18346e+02	9.30000e+02	2.88151e+00	4.20000e+02
931	4.19410e+02	9.31000e+02	2.72311e+00	4.21000e+02
932	4.20472e+02	9.32000e+02	2.56433e+00	4.22000e+02
933	4.21551e+02	9.33000e+02	2.40539e+00	4.23000e+02
934	4.22627e+02	9.34000e+02	2.24808e+00	4.24000e+02
935	4.23721e+02	9.35000e+02	2.09133e+00	4.25000e+02
936	4.24836e+02	9.36000e+02	1.94107e+00	4.26000e+02
937	4.25946e+02	9.37000e+02	1.79405e+00	4.27000e+02
938	4.27088e+02	9.38000e+02	1.65213e+00	4.28000e+02
939	4.28248e+02	9.39000e+02	1.51402e+00	4.29000e+02
940	4.29371e+02	9.40000e+02	1.38700e+00	4.30000e+02
941	4.30526e+02	9.41000e+02	1.26511e+00	4.31000e+02
942	4.31657e+02	9.42000e+02	1.15053e+00	4.32000e+02
943	4.32796e+02	9.43000e+02	1.04102e+00	4.33000e+02
944	4.33923e+02	9.44000e+02	9.44202e-01	4.34000e+02
945	4.35035e+02	9.45000e+02	8.52520e-01	4.35000e+02
946	4.36154e+02	9.46000e+02	7.67954e-01	4.36000e+02
947	4.37271e+02	9.47000e+02	6.88235e-01	4.37000e+02
948	4.38385e+02	9.48000e+02	6.20130e-01	4.38000e+02
949	4.39520e+02	9.49000e+02	5.56647e-01	4.39000e+02
950	4.40609e+02	9.50000e+02	4.99285e-01	4.40000e+02
951	4.41721e+02	9.51000e+02	4.45887e-01	4.41000e+02
952	4.42823e+02	9.52000e+02	4.01500e-01	4.42000e+02
953	4.43929e+02	9.53000e+02	3.60578e-01	4.43000e+02
954	4.45029e+02	9.54000e+02	3.24163e-01	4.44000e+02
955	4.46129e+02	9.55000e+02	2.90588e-01	4.45000e+02
956	4.47213e+02	9.56000e+02	2.63417e-01	4.46000e+02
957	4.48296e+02	9.57000e+02	2.39082e-01	4.47000e+02
958	4.49365e+02	9.58000e+02	2.18320e-01	4.48000e+02
959	4.50458e+02	9.59000e+02	1.98660e-01	4.49000e+02
960	4.51524e+02	9.60000e+02	1.83221e-01	4.50000e+02
961	4.52581e+02	9.61000e+02	1.68517e-01	4.51000e+02
962	4.53658e+02	9.62000e+02	1.55949e-01	4.52000e+02
963	4.54720e+02	9.63000e+02	1.45478e-01	4.53000e+02
964	4.55780e+02	9.64000e+02	1.37011e-01	4.54000e+02
965	4.56822e+02	9.65000e+02	1.28651e-01	4.55000e+02
966	4.57881e+02	9.66000e+02	1.21141e-01	4.56000e+02
967	4.58930e+02	9.67000e+02	1.14246e-01	4.57000e+02
968	4.59968e+02	9.68000e+02	1.10669e-01	4.58000e+02
969	4.61006e+02	9.69000e+02	1.06115e-01	4.59000e+02
970	4.62043e+02	9.70000e+02	1.01825e-01	4.60000e+02
971	4.63066e+02	9.71000e+02	9.78781e-02	4.61000e+02
972	4.64106e+02	9.72000e+02	9.56172e-02	4.62000e+02
973	4.65121e+02	9.73000e+02	9.29476e-02	4.63000e+02
974	4.66146e+02	9.74000e+02	9.04564e-02	4.64000e+02
975	4.67166e+02	9.75000e+02	8.81675e-02	4.65000e+02
976	4.68209e+02	9.76000e+02	8.69275e-02	4.66000e+02
977	4.69250e+02	9.77000e+02	8.54228e-02	4.67000e+02
978	4.70266e+02	9.78000e+02	8.40236e-02	4.68000e+02
979	4.71277e+02	9.79000e+02	8.27472e-02	4.69000e+02
980	4.72300e+02	9.80000e+02	8.21002e-02	4.70000e+02
981	4.73298e+02	9.81000e+02	8.12985e-02	4.71000e+02
982	4.74308e+02	9.82000e+02	8.05601e-02	4.72000e+02
983	4.75309e+02	9.83000e+02	7.98942e-02	4.73000e+02
984	4.76328e+02	9.84000e+02	7.96069e-02	4.74000e+02
985	4.77359e+02	9.85000e+02	7.92172e-02	4.75000e+02
986	4.78337e+02	9.86000e+02	7.88566e-02	4.76000e+02
987	4.79321e+02	9.87000e+02	7.85330e-02	4.77000e+02
988	4.80322e+02	9.88000e+02	7.84011e-02	4.78000e+02
989	4.81337e+02	9.89000e+02	7.82042e-02	4.79000e+02
990	4.82330e+02	9.90000e+02	7.80132e-02	4.80000e+02
991	4.83343e+02	9.91000e+02	7.78368e-02	4.81000e+02
992	4.84356e+02	9.92000e+02	7.77343e-02	4.82000e+02
993	4.85373e+02	9.93000e+02	7.76099e-02	4.83000e+02
994	4.86367e+02	9.94000e+02	7.74902e-02	4.84000e+02
995	4.87425e+02	9.95000e+02	7.73774e-02	4.85000e+02
996	4.88432e+02	9.96000e+02	7.73025e-02	4.86000e+02
997	4.89452e+02	9.97000e+02	7.72204e-02	4.87000e+02
998	4.90474e+02	9.98000e+02	7.71434e-02	4.88000e+02
999	4.91502e+02	9.99000e+02	7.70716e-02	4.89000e+02
1000	4.92503e+02	1.00000e+03	7.70258e-02	4.90000e+02
1001	4.93484e+02	1.00100e+03	7.69733e-02	4.91000e+02
1002	4.94474e+02	1.00200e+03	7.69230e-02	4.92000e+02
1003	4.95505e+02	1.00300e+03	7.68750e-02	4.93000e+02
1004	4.96486e+02	1.00400e+03	7.68393e-02	4.94000e+02
1005	4.97500e+02	1.00500e+03	7.67979e-02	4.95000e+02
1006	4.98502e+02	1.00600e+03	7.67556e-02	4.96000e+02
1007	4.99486e+02	1.00700e+03	7.67135e-02	4.97000e+02
1008	5.00493e+02	1.00800e+03	7.66726e-02	4.98000e+02
1009	5.01494e+02	1.00900e+03	7.66318e-02	4.99000e+02
1010	5.02491e+02	1.01000e+03	7.65916e-02	5.00000e+02
1011	5.03493e+02	1.01100e+03	7.65518e-02	5.01000e+02
1012	5.04490e+02	1.01200e+03	7.65118e-02	5.02000e+02
1013	5.05507e+02	1.01300e+03	7.64720e-02	5.03000e+02
1014	5.06505e+02	1.01400e+03	7.64318e-02	5.04000e+02
1015	5.07482e+02	1.01500e+03	7.63911e-02	5.05000e+02
1016	5.08476e+02	1.01600e+03	7.63501e-02	5.06000e+02
1017	5.09483e+02	1.01700e+03	7.63104e-02	5.07000e+02
1018	5.10484e+02	1.01800e+03	7.62726e-02	5.08000e+02
1019	5.11469e+02	1.01900e+03	7.62361e-02	5.09000e+02
1020	5.12462e+02	1.02000e+03	7.62060e-02	5.10000e+02
1021	5.13487e+02	1.02100e+03	7.61778e-02	5.11000e+02
1022	5.14500e+02	1.02200e+03	7.61518e-02	5.12000e+02
1023	5.15525e+02	1.02300e+03	7.61269e-02	5.13000e+02
1024	5.16516e+02	1.02400e+03	7.61097e-02	5.14000e+02
1025	5.17560e+02	1.02500e+03	7.60866e-02	5.15000e+02
1026	5.18586e+02	1.02600e+03	7.60620e-02	5.16000e+02
1027	5.19616e+02	1.02700e+03	7.60369e-02	5.17000e+02
1028	5.20645e+02	1.02800e+03	7.60083e-02	5.18000e+02
1029	5.21671e+02	1.02900e+03	7.59826e-02	5.19000e+02
1030	5.22673e+02	1.03000e+03	7.59578e-02	5.20000e+02
1031	5.23673e+02	1.03100e+03	7.59330e-02	5.21000e+02
1032	5.24679e+02	1.03200e+03	7.59070e-02	5.22000e+02
1033	5.25724e+02	1.03300e+03	7.58787e-02	5.23000e+02
1034	5.26820e+02	1.03400e+03	7.58480e-02	5.24000e+02
1035	5.28040e+02	1.03500e+03	7.58153e-02	5.25000e+02
1036	5.29089e+02	1.03600e+03	7.57772e-02	5.26000e+02
1037	5.30076e+02	1.03700e+03	7.57419e-02	5.27000e+02
1038	5.31082e+02	1.03800e+03	7.57070e-02	5.28000e+02
1039	5.32104e+02	1.03900e+03	7.56718e-02	5.29000e+02
1040	5.33083e+02	1.04000e+03	7.56352e-02	5.30000e+02
1041	5.34063e+02	1.04100e+03	7.56003e-02	5.31000e+02
1042	5.35049e+02	1.04200e+03	7.55662e-02	5.32000e+02
1043	5.36061e+02	1.04300e+03	7.55322e-02	5.33000e+02
1044	5.37047e+02	1.04400e+03	7.54992e-02	5.34000e+02
1045	5.38008e+02	1.04500e+03	7.54624e-02	5.35000e+02
1046	5.38940e+02	1.04600e+03	7.54207e-02	5.36000e+02
1047	5.39888e+02	1.04700e+03	7.53755e-02	5.37000e+02
1048	5.40790e+02	1.04800e+03	7.53198e-02	5.38000e+02
1049	5.41701e+02	1.04900e+03	7.52674e-02	5.39000e+02
1050	5.42583e+02	1.05000e+03	7.52188e-02	5.40000e+02
1051	5.43474e+02	1.05100e+03	7.51736e-02	5.41000e+02
1052	5.44432e+02	1.05200e+03	7.51356e-02	5.42000e+02
1053	5.45358e+02	1.05300e+03	7.51091e-02	5.43000e+02
1054	5.46296e+02	1.05400e+03	7.50907e-02	5.44000e+02
1055	5.47228e+02	1.05500e+03	7.50766e-02	5.45000e+02
1056	5.48173e+02	1.05600e+03	7.50911e-02	5.46000e+02
1057	5.49140e+02	1.05700e+03	7.50906e-02	5.47000e+02
1058	5.50106e+02	1.05800e+03	7.50869e-02	5.48000e+02
1059	5.51083e+02	1.05900e+03	7.50827e-02	5.49000e+02
1060	5.52028e+02	1.06000e+03	7.50799e-02	5.50000e+02
1061	5.52983e+02	1.06100e+03	7.50793e-02	5.51000e+02
1062	5.53956e+02	1.06200e+03	7.50818e-02	5.52000e+02
1063	5.54937e+02	1.06300e+03	7.50871e-02	5.53000e+02
1064	5.55928e+02	1.06400e+03	7.51035e-02	5.54000e+02
1065	5.56902e+02	1.06500e+03	7.51189e-02	5.55000e+02
1066	5.57906e+02	1.06600e+03	7.51332e-02	5.56000e+02
1067	5.58886e+02	1.06700e+03	7.51464e-02	5.57000e+02
1068	5.59875e+02	1.06800e+03	7.51599e-02	5.58000e+02
1069	5.60872e+02	1.06900e+03	7.51617e-02	5.59000e+02
1070	5.61859e+02	1.07000e+03	7.51547e-02	5.60000e+02
1071	5.62847e+02	1.07100e+03	7.51422e-02	5.61000e+02
1072	5.63849e+02	1.07200e+03	7.51012e-02	5.62000e+02
1073	5.64848e+02	1.07300e+03	7.50706e-02	5.63000e+02
1074	5.65861e+02	1.07400e+03	7.50416e-02	5.64000e+02
1075	5.66884e+02	1.07500e+03	7.50128e-02	5.65000e+02
1076	5.67914e+02	1.07600e+03	7.49803e-02	5.66000e+02
1077	5.68929e+02	1.07700e+03	7.49556e-02	5.67000e+02
1078	5.69963e+02	1.07800e+03	7.49332e-02	5.68000e+02
1079	5.71070e+02	1.07900e+03	7.49110e-02	5.69000e+02
1080	5.72125e+02	1.08000e+03	7.48989e-02	5.70000e+02
1081	5.73182e+02	1.08100e+03	7.48806e-02	5.71000e+02
1082	5.74151e+02	1.08200e+03	7.48615e-02	5.72000e+02
1083	5.75113e+02	1.08300e+03	7.48432e-02	5.73000e+02
1084	5.76120e+02	1.08400e+03	7.48260e-02	5.74000e+02
1085	5.77170e+02	1.08500e+03	7.48127e-02	5.75000e+02
1086	5.78196e+02	1.08600e+03	7.48004e-02	5.76000e+02
1087	5.79143e+02	1.08700e+03	7.47877e-02	5.77000e+02
1088	5.80111e+02	1.08800e+03	7.47780e-02	5.78000e+02
1089	5.81080e+02	1.08900e+03	7.47620e-02	5.79000e+02
1090	5.82046e+02	1.09000e+03	7.47425e-02	5.80000e+02
1091	5.83031e+02	1.09100e+03	7.47209e-02	5.81000e+02
1092	5.84036e+02	1.09200e+03	7.46921e-02	5.82000e+02
1093	5.85011e+02	1.09300e+03	7.46701e-02	5.83000e+02
1094	5.85902e+02	1.09400e+03	7.46503e-02	5.84000e+02
1095	5.86770e+02	1.09500e+03	7.46312e-02	5.85000e+02
1096	5.87700e+02	1.09600e+03	7.46183e-02	5.86000e+02
1097	5.88641e+02	1.09700e+03	7.46050e-02	5.87000e+02
1098	5.89613e+02	1.09800e+03	7.45929e-02	5.88000e+02
1099	5.90580e+02	1.09900e+03	7.45814e-02	5.89000e+02
1100	5.91534e+02	1.10000e+03	7.45730e-02	5.90000e+02
1101	5.92506e+02	1.10100e+03	7.45611e-02	5.91000e+02
1102	5.93457e+02	1.10200e+03	7.45475e-02	5.92000e+02
1103	5.94417e+02	1.10300e+03	7.45331e-02	5.93000e+02
1104	5.95380e+02	1.10400e+03	7.45132e-02	5.94000e+02
1105	5.96346e+02	1.10500e+03	7.44930e-02	5.95000e+02
1106	5.97315e+02	1.10600e+03	7.44686e-02	5.96000e+02
1107	5.98261e+02	1.10700e+03	7.44406e-02	5.97000e+02
1108	5.99216e+02	1.10800e+03	7.43997e-02	5.98000e+02
1109	6.00178e+02	1.10900e+03	7.43580e-02	5.99000e+02
1110	6.01128e+02	1.11000e+03	7.43134e-02	6.00000e+02
1111	6.02067e+02	1.11100e+03	7.42673e-02	6.01000e+02
1112	6.03023e+02	1.11200e+03	7.42084e-02	6.02000e+02
1113	6.03983e+02	1.11300e+03	7.41582e-02	6.03000e+02
1114	6.04941e+02	1.11400e+03	7.41112e-02	6.04000e+02
1115	6.05879e+02	1.11500e+03	7.40657e-02	6.05000e+02
1116	6.06834e+02	1.11600e+03	7.40289e-02	6.06000e+02
1117	6.07777e+02	1.11700e+03	7.39931e-02	6.07000e+02
1118	6.08724e+02	1.11800e+03	7.39602e-02	6.08000e+02
1119	6.09665e+02	1.11900e+03	7.39293e-02	6.09000e+02
1120	6.10620e+02	1.12000e+03	7.39102e-02	6.10000e+02
1121	6.11579e+02	1.12100e+03	7.38867e-02	6.11000e+02
1122	6.12529e+02	1.12200e+03	7.38625e-02	6.12000e+02
1123	6.13482e+02	1.12300e+03	7.38382e-02	6.13000e+02
1124	6.14451e+02	1.12400e+03	7.38170e-02	6.14000e+02
1125	6.15408e+02	1.12500e+03	7.37939e-02	6.15000e+02
1126	6.16354e+02	1.12600e+03	7.37704e-02	6.16000e+02
1127	6.17295e+02	1.12700e+03	7.37471e-02	6.17000e+02
1128	6.18190e+02	1.12800e+03	7.37272e-02	6.18000e+02
1129	6.19142e+02	1.12900e+03	7.37127e-02	6.19000e+02
1130	6.20084e+02	1.13000e+03	7.37046e-02	6.20000e+02
1131	6.21057e+02	1.13100e+03	7.37011e-02	6.21000e+02
1132	6.22031e+02	1.13200e+03	7.37162e-02	6.22000e+02
1133	6.22992e+02	1.13300e+03	7.37288e-02	6.23000e+02
1134	6.23933e+02	1.13400e+03	7.37429e-02	6.24000e+02
1135	6.24862e+02	1.13500e+03	7.37574e-02	6.25000e+02
1136	6.25830e+02	1.13600e+03	7.37800e-02	6.26000e+02
1137	6.26810e+02	1.13700e+03	7.37906e-02	6.27000e+02
1138	6.27806e+02	1.13800e+03	7.37933e-02	6.28000e+02
1139	6.28785e+02	1.13900e+03	7.37915e-02	6.29000e+02
1140	6.29760e+02	1.14000e+03	7.37664e-02	6.30000e+02
1141	6.30726e+02	1.14100e+03	7.37445e-02	6.31000e+02
1142	6.31696e+02	1.14200e+03	7.37206e-02	6.32000e+02
1143	6.32664e+02	1.14300e+03	7.36951e-02	6.33000e+02
1144	6.33638e+02	1.14400e+03	7.36554e-02	6.34000e+02
1145	6.34623e+02	1.14500e+03	7.36254e-02	6.35000e+02
1146	6.35601e+02	1.14600e+03	7.35976e-02	6.36000e+02
1147	6.36592e+02	1.14700e+03	7.35702e-02	6.37000e+02
1148	6.37577e+02	1.14800e+03	7.35492e-02	6.38000e+02
1149	6.38569e+02	1.14900e+03	7.35270e-02	6.39000e+02
1150	6.39562e+02	1.15000e+03	7.35067e-02	6.40000e+02
1151	6.40526e+02	1.15100e+03	7.34885e-02	6.41000e+02
1152	6.41510e+02	1.15200e+03	7.34805e-02	6.42000e+02
1153	6.42497e+02	1.15300e+03	7.34723e-02	6.43000e+02
1154	6.43476e+02	1.15400e+03	7.34646e-02	6.44000e+02
1155	6.44469e+02	1.15500e+03	7.34570e-02	6.45000e+02
1156	6.45468e+02	1.15600e+03	7.34538e-02	6.46000e+02
1157	6.46449e+02	1.15700e+03	7.34408e-02	6.47000e+02
1158	6.47443e+02	1.15800e+03	7.34212e-02	6.48000e+02
1159	6.48428e+02	1.15900e+03	7.33979e-02	6.49000e+02
1160	6.49427e+02	1.16000e+03	7.33585e-02	6.50000e+02
1161	6.50436e+02	1.16100e+03	7.33247e-02	6.51000e+02
1162	6.51442e+02	1.16200e+03	7.32907e-02	6.52000e+02
1163	6.52432e+02	1.16300e+03	7.32561e-02	6.53000e+02
1164	6.53432e+02	1.16400e+03	7.32151e-02	6.54000e+02
1165	6.54414e+02	1.16500e+03	7.31797e-02	6.55000e+02
1166	6.55416e+02	1.16600e+03	7.31479e-02	6.56000e+02
1167	6.56404e+02	1.16700e+03	7.31182e-02	6.57000e+02
1168	6.57418e+02	1.16800e+03	7.30997e-02	6.58000e+02
1169	6.58407e+02	1.16900e+03	7.30839e-02	6.59000e+02
1170	6.59416e+02	1.17000e+03	7.30726e-02	6.60000e+02
1171	6.60437e+02	1.17100e+03	7.30646e-02	6.61000e+02
1172	6.61453e+02	1.17200e+03	7.30758e-02	6.62000e+02
1173	6.62463e+02	1.17300e+03	7.30816e-02	6.63000e+02
1174	6.63467e+02	1.17400e+03	7.30878e-02	6.64000e+02
1175	6.64464e+02	1.17500e+03	7.30947e-02	6.65000e+02
1176	6.65459e+02	1.17600e+03	7.31068e-02	6.66000e+02
1177	6.66435e+02	1.17700e+03	7.31132e-02	6.67000e+02
1178	6.67437e+02	1.17800e+03	7.31153e-02	6.68000e+02
1179	6.68436e+02	1.17900e+03	7.31142e-02	6.69000e+02
1180	6.69450e+02	1.18000e+03	7.30986e-02	6.70000e+02
1181	6.70453e+02	1.18100e+03	7.30811e-02	6.71000e+02
1182	6.71461e+02	1.18200e+03	7.30591e-02	6.72000e+02
1183	6.72461e+02	1.18300e+03	7.30349e-02	6.73000e+02
1184	6.73505e+02	1.18400e+03	7.30005e-02	6.74000e+02
1185	6.73863e+02	1.18500e+03	7.29804e-02	6.75000e+02
1186	6.74195e+02	1.18600e+03	7.29693e-02	6.76000e+02
1187	6.74775e+02	1.18700e+03	7.29621e-02	6.77000e+02
1188	6.75458e+02	1.18800e+03	7.29825e-02	6.78000e+02
1189	6.76149e+02	1.18900e+03	7.29965e-02	6.79000e+02
1190	6.76843e+02	1.19000e+03	7.30039e-02	6.80000e+02
1191	6.77536e+02	1.19100e+03	7.30054e-02	6.81000e+02
1192	6.78231e+02	1.19200e+03	7.30193e-02	6.82000e+02
1193	6.78860e+02	1.19300e+03	7.30185e-02	6.83000e+02
1194	6.79472e+02	1.19400e+03	7.30076e-02	6.84000e+02
1195	6.80083e+02	1.19500e+03	7.29902e-02	6.85000e+02
1196	6.80658e+02	1.19600e+03	7.29500e-02	6.86000e+02
1197	6.81200e+02	1.19700e+03	7.29189e-02	6.87000e+02
1198	6.81802e+02	1.19800e+03	7.28877e-02	6.88000e+02
1199	6.82460e+02	1.19900e+03	7.28561e-02	6.89000e+02
1200	6.83023e+02	1.20000e+03	7.28213e-02	6.90000e+02
1201	6.83580e+02	1.20100e+03	7.27920e-02	6.91000e+02
1202	6.84091e+02	1.20200e+03	7.27650e-02	6.92000e+02
1203	6.84559e+02	1.20300e+03	7.27398e-02	6.93000e+02
1204	6.85018e+02	1.20400e+03	7.27208e-02	6.94000e+02
1205	6.85483e+02	1.20500e+03	7.26987e-02	6.95000e+02
1206	6.85932e+02	1.20600e+03	7.26773e-02	6.96000e+02
1207	6.86402e+02	1.20700e+03	7.26566e-02	6.97000e+02
1208	6.86815e+02	1.20800e+03	7.26342e-02	6.98000e+02
1209	6.87268e+02	1.20900e+03	7.26124e-02	6.99000e+02
1210	6.87637e+02	1.21000e+03	7.25928e-02	7.00000e+02