File: Experiments/TUBS/tga_nonisotherm/tga_dynamic_n2_dyn30_piece_3mg_r2.txt
index	ts	t	weight	tr
[#]	[°C]	[s]	[mg]	[°C]
683	1.31474e+02	6.83000e+02	3.01145e+00	1.31500e+02
685	1.32489e+02	6.85000e+02	3.01140e+00	1.32500e+02
687	1.33494e+02	6.87000e+02	3.01136e+00	1.33500e+02
689	1.34508e+02	6.89000e+02	3.01134e+00	1.34500e+02
691	1.35528e+02	6.91000e+02	3.01131e+00	1.35500e+02
693	1.36544e+02	6.93000e+02	3.01126e+00	1.36500e+02
695	1.37545e+02	6.95000e+02	3.01122e+00	1.37500e+02
697	1.38556e+02	6.97000e+02	3.01114e+00	1.38500e+02
699	1.39582e+02	6.99000e+02	3.01106e+00	1.39500e+02
701	1.40583e+02	7.01000e+02	3.01097e+00	1.40500e+02
703	1.41587e+02	7.03000e+02	3.01091e+00	1.41500e+02
705	1.42616e+02	7.05000e+02	3.01088e+00	1.42500e+02
707	1.43615e+02	7.07000e+02	3.01085e+00	1.43500e+02
709	1.44621e+02	7.09000e+02	3.01081e+00	1.44500e+02
711	1.45629e+02	7.11000e+02	3.01074e+00	1.45500e+02
713	1.46650e+02	7.13000e+02	3.01064e+00	1.46500e+02
715	1.47658e+02	7.15000e+02	3.01055e+00	1.47500e+02
717	1.48671e+02	7.17000e+02	3.01049e+00	1.48500e+02
719	1.49679e+02	7.19000e+02	3.01044e+00	1.49500e+02
721	1.50686e+02	7.21000e+02	3.01043e+00	1.50500e+02
723	1.51697e+02	7.23000e+02	3.01040e+00	1.51500e+02
725	1.52713e+02	7.25000e+02	3.01034e+00	1.52500e+02
727	1.53714e+02	7.27000e+02	3.01027e+00	1.53500e+02
729	1.54737e+02	7.29000e+02	3.01015e+00	1.54500e+02
731	1.55728e+02	7.31000e+02	3.01004e+00	1.55500e+02
733	1.56757e+02	7.33000e+02	3.00991e+00	1.56500e+02
735	1.57768e+02	7.35000e+02	3.00977e+00	1.57500e+02
737	1.58775e+02	7.37000e+02	3.00962e+00	1.58500e+02
739	1.59786e+02	7.39000e+02	3.00950e+00	1.59500e+02
741	1.60796e+02	7.41000e+02	3.00941e+00	1.60500e+02
743	1.61816e+02	7.43000e+02	3.00932e+00	1.61500e+02
745	1.62833e+02	7.45000e+02	3.00926e+00	1.62500e+02
747	1.63833e+02	7.47000e+02	3.00920e+00	1.63500e+02
749	1.64863e+02	7.49000e+02	3.00915e+00	1.64500e+02
751	1.65883e+02	7.51000e+02	3.00910e+00	1.65500e+02
753	1.66882e+02	7.53000e+02	3.00903e+00	1.66500e+02
755	1.67908e+02	7.55000e+02	3.00893e+00	1.67500e+02
757	1.68924e+02	7.57000e+02	3.00880e+00	1.68500e+02
759	1.69939e+02	7.59000e+02	3.00867e+00	1.69500e+02
761	1.70949e+02	7.61000e+02	3.00853e+00	1.70500e+02
763	1.71979e+02	7.63000e+02	3.00839e+00	1.71500e+02
765	1.72991e+02	7.65000e+02	3.00825e+00	1.72500e+02
767	1.74018e+02	7.67000e+02	3.00811e+00	1.73500e+02
769	1.75024e+02	7.69000e+02	3.00796e+00	1.74500e+02
771	1.76032e+02	7.71000e+02	3.00782e+00	1.75500e+02
773	1.77047e+02	7.73000e+02	3.00768e+00	1.76500e+02
775	1.78080e+02	7.75000e+02	3.00756e+00	1.77500e+02
777	1.79091e+02	7.77000e+02	3.00745e+00	1.78500e+02
779	1.80107e+02	7.79000e+02	3.00733e+00	1.79500e+02
781	1.81120e+02	7.81000e+02	3.00720e+00	1.80500e+02
783	1.82153e+02	7.83000e+02	3.00705e+00	1.81500e+02
785	1.83172e+02	7.85000e+02	3.00688e+00	1.82500e+02
787	1.84179e+02	7.87000e+02	3.00672e+00	1.83500e+02
789	1.85211e+02	7.89000e+02	3.00654e+00	1.84500e+02
791	1.86227e+02	7.91000e+02	3.00634e+00	1.85500e+02
793	1.87246e+02	7.93000e+02	3.00607e+00	1.86500e+02
795	1.88256e+02	7.95000e+02	3.00579e+00	1.87500e+02
797	1.89291e+02	7.97000e+02	3.00545e+00	1.88500e+02
799	1.90304e+02	7.99000e+02	3.00513e+00	1.89500e+02
801	1.91326e+02	8.01000e+02	3.00481e+00	1.90500e+02
803	1.92334e+02	8.03000e+02	3.00447e+00	1.91500e+02
805	1.93352e+02	8.05000e+02	3.00409e+00	1.92500e+02
807	1.94372e+02	8.07000e+02	3.00371e+00	1.93500e+02
809	1.95384e+02	8.09000e+02	3.00328e+00	1.94500e+02
811	1.96413e+02	8.11000e+02	3.00287e+00	1.95500e+02
813	1.97420e+02	8.13000e+02	3.00246e+00	1.96500e+02
815	1.98426e+02	8.15000e+02	3.00206e+00	1.97500e+02
817	1.99460e+02	8.17000e+02	3.00166e+00	1.98500e+02
819	2.00470e+02	8.19000e+02	3.00123e+00	1.99500e+02
821	2.01488e+02	8.21000e+02	3.00075e+00	2.00500e+02
823	2.02517e+02	8.23000e+02	3.00023e+00	2.01500e+02
825	2.03532e+02	8.25000e+02	2.99964e+00	2.02500e+02
827	2.04537e+02	8.27000e+02	2.99906e+00	2.03500e+02
829	2.05563e+02	8.29000e+02	2.99847e+00	2.04500e+02
831	2.06604e+02	8.31000e+02	2.99789e+00	2.05500e+02
833	2.07606e+02	8.33000e+02	2.99729e+00	2.06500e+02
835	2.08623e+02	8.35000e+02	2.99666e+00	2.07500e+02
837	2.09638e+02	8.37000e+02	2.99599e+00	2.08500e+02
839	2.10677e+02	8.39000e+02	2.99530e+00	2.09500e+02
841	2.11696e+02	8.41000e+02	2.99455e+00	2.10500e+02
843	2.12698e+02	8.43000e+02	2.99380e+00	2.11500e+02
845	2.13720e+02	8.45000e+02	2.99303e+00	2.12500e+02
847	2.14738e+02	8.47000e+02	2.99228e+00	2.13500e+02
849	2.15756e+02	8.49000e+02	2.99156e+00	2.14500e+02
851	2.16781e+02	8.51000e+02	2.99085e+00	2.15500e+02
853	2.17805e+02	8.53000e+02	2.99018e+00	2.16500e+02
855	2.18824e+02	8.55000e+02	2.98951e+00	2.17500e+02
857	2.19853e+02	8.57000e+02	2.98885e+00	2.18500e+02
859	2.20883e+02	8.59000e+02	2.98819e+00	2.19500e+02
861	2.21913e+02	8.61000e+02	2.98751e+00	2.20500e+02
863	2.22930e+02	8.63000e+02	2.98682e+00	2.21500e+02
865	2.23953e+02	8.65000e+02	2.98612e+00	2.22500e+02
867	2.24985e+02	8.67000e+02	2.98541e+00	2.23500e+02
869	2.26012e+02	8.69000e+02	2.98471e+00	2.24500e+02
871	2.27029e+02	8.71000e+02	2.98400e+00	2.25500e+02
873	2.28059e+02	8.73000e+02	2.98326e+00	2.26500e+02
875	2.29068e+02	8.75000e+02	2.98251e+00	2.27500e+02
877	2.30103e+02	8.77000e+02	2.98172e+00	2.28500e+02
879	2.31122e+02	8.79000e+02	2.98094e+00	2.29500e+02
881	2.32137e+02	8.81000e+02	2.98016e+00	2.30500e+02
883	2.33163e+02	8.83000e+02	2.97938e+00	2.31500e+02
885	2.34195e+02	8.85000e+02	2.97862e+00	2.32500e+02
887	2.35228e+02	8.87000e+02	2.97786e+00	2.33500e+02
889	2.36265e+02	8.89000e+02	2.97711e+00	2.34500e+02
891	2.37283e+02	8.91000e+02	2.97635e+00	2.35500e+02
893	2.38303e+02	8.93000e+02	2.97557e+00	2.36500e+02
895	2.39337e+02	8.95000e+02	2.97479e+00	2.37500e+02
897	2.40338e+02	8.97000e+02	2.97399e+00	2.38500e+02
899	2.41355e+02	8.99000e+02	2.97318e+00	2.39500e+02
901	2.42366e+02	9.01000e+02	2.97238e+00	2.40500e+02
903	2.43380e+02	9.03000e+02	2.97156e+00	2.41500e+02
905	2.44400e+02	9.05000e+02	2.97073e+00	2.42500e+02
907	2.45410e+02	9.07000e+02	2.96989e+00	2.43500e+02
909	2.46432e+02	9.09000e+02	2.96901e+00	2.44500e+02
911	2.47439e+02	9.11000e+02	2.96811e+00	2.45500e+02
913	2.48489e+02	9.13000e+02	2.96720e+00	2.46500e+02
915	2.49522e+02	9.15000e+02	2.96630e+00	2.47500e+02
917	2.50535e+02	9.17000e+02	2.96543e+00	2.48500e+02
919	2.51540e+02	9.19000e+02	2.96456e+00	2.49500e+02
921	2.52566e+02	9.21000e+02	2.96372e+00	2.50500e+02
923	2.53586e+02	9.23000e+02	2.96285e+00	2.51500e+02
925	2.54611e+02	9.25000e+02	2.96196e+00	2.52500e+02
927	2.55619e+02	9.27000e+02	2.96106e+00	2.53500e+02
929	2.56622e+02	9.29000e+02	2.96015e+00	2.54500e+02
931	2.57642e+02	9.31000e+02	2.95923e+00	2.55500e+02
933	2.58663e+02	9.33000e+02	2.95828e+00	2.56500e+02
935	2.59685e+02	9.35000e+02	2.95733e+00	2.57500e+02
937	2.60690e+02	9.37000e+02	2.95637e+00	2.58500e+02
939	2.61710e+02	9.39000e+02	2.95540e+00	2.59500e+02
941	2.62719e+02	9.41000e+02	2.95444e+00	2.60500e+02
943	2.63723e+02	9.43000e+02	2.95347e+00	2.61500e+02
945	2.64714e+02	9.45000e+02	2.95251e+00	2.62500e+02
947	2.65713e+02	9.47000e+02	2.95155e+00	2.63500e+02
949	2.66698e+02	9.49000e+02	2.95061e+00	2.64500e+02
951	2.67711e+02	9.51000e+02	2.94967e+00	2.65500e+02
953	2.68736e+02	9.53000e+02	2.94874e+00	2.66500e+02
955	2.69734e+02	9.55000e+02	2.94778e+00	2.67500e+02
957	2.70745e+02	9.57000e+02	2.94680e+00	2.68500e+02
959	2.71761e+02	9.59000e+02	2.94579e+00	2.69500e+02
961	2.72777e+02	9.61000e+02	2.94472e+00	2.70500e+02
963	2.73793e+02	9.63000e+02	2.94365e+00	2.71500e+02
965	2.74797e+02	9.65000e+02	2.94253e+00	2.72500e+02
967	2.75787e+02	9.67000e+02	2.94140e+00	2.73500e+02
969	2.76749e+02	9.69000e+02	2.94023e+00	2.74500e+02
971	2.77752e+02	9.71000e+02	2.93904e+00	2.75500e+02
973	2.78762e+02	9.73000e+02	2.93775e+00	2.76500e+02
975	2.79766e+02	9.75000e+02	2.93635e+00	2.77500e+02
977	2.80764e+02	9.77000e+02	2.93469e+00	2.78500e+02
979	2.81769e+02	9.79000e+02	2.93295e+00	2.79500e+02
981	2.82786e+02	9.81000e+02	2.93101e+00	2.80500e+02
983	2.83801e+02	9.83000e+02	2.92918e+00	2.81500e+02
985	2.84812e+02	9.85000e+02	2.92742e+00	2.82500e+02
987	2.85813e+02	9.87000e+02	2.92571e+00	2.83500e+02
989	2.86837e+02	9.89000e+02	2.92411e+00	2.84500e+02
991	2.87861e+02	9.91000e+02	2.92249e+00	2.85500e+02
993	2.88865e+02	9.93000e+02	2.92091e+00	2.86500e+02
995	2.89890e+02	9.95000e+02	2.91933e+00	2.87500e+02
997	2.90931e+02	9.97000e+02	2.91780e+00	2.88500e+02
999	2.91959e+02	9.99000e+02	2.91625e+00	2.89500e+02
1001	2.92982e+02	1.00100e+03	2.91467e+00	2.90500e+02
1003	2.94000e+02	1.00300e+03	2.91303e+00	2.91500e+02
1005	2.95022e+02	1.00500e+03	2.91127e+00	2.92500e+02
1007	2.96024e+02	1.00700e+03	2.90949e+00	2.93500e+02
1009	2.97047e+02	1.00900e+03	2.90761e+00	2.94500e+02
1011	2.98041e+02	1.01100e+03	2.90572e+00	2.95500e+02
1013	2.99037e+02	1.01300e+03	2.90376e+00	2.96500e+02
1015	3.00051e+02	1.01500e+03	2.90177e+00	2.97500e+02
1017	3.01077e+02	1.01700e+03	2.89968e+00	2.98500e+02
1019	3.02089e+02	1.01900e+03	2.89755e+00	2.99500e+02
1021	3.03092e+02	1.02100e+03	2.89531e+00	3.00500e+02
1023	3.04104e+02	1.02300e+03	2.89307e+00	3.01500e+02
1025	3.05126e+02	1.02500e+03	2.89076e+00	3.02500e+02
1027	3.06115e+02	1.02700e+03	2.88843e+00	3.03500e+02
1029	3.07111e+02	1.02900e+03	2.88602e+00	3.04500e+02
1031	3.08091e+02	1.03100e+03	2.88356e+00	3.05500e+02
1033	3.09106e+02	1.03300e+03	2.88098e+00	3.06500e+02
1035	3.10125e+02	1.03500e+03	2.87835e+00	3.07500e+02
1037	3.11127e+02	1.03700e+03	2.87558e+00	3.08500e+02
1039	3.12088e+02	1.03900e+03	2.87276e+00	3.09500e+02
1041	3.13074e+02	1.04100e+03	2.86978e+00	3.10500e+02
1043	3.14074e+02	1.04300e+03	2.86674e+00	3.11500e+02
1045	3.15075e+02	1.04500e+03	2.86349e+00	3.12500e+02
1047	3.16022e+02	1.04700e+03	2.86017e+00	3.13500e+02
1049	3.16940e+02	1.04900e+03	2.85662e+00	3.14500e+02
1051	3.17794e+02	1.05100e+03	2.85302e+00	3.15500e+02
1053	3.18634e+02	1.05300e+03	2.84919e+00	3.16500e+02
1055	3.19489e+02	1.05500e+03	2.84533e+00	3.17500e+02
1057	3.20391e+02	1.05700e+03	2.84128e+00	3.18500e+02
1059	3.21329e+02	1.05900e+03	2.83720e+00	3.19500e+02
1061	3.22283e+02	1.06100e+03	2.83297e+00	3.20500e+02
1063	3.23269e+02	1.06300e+03	2.82873e+00	3.21500e+02
1065	3.24256e+02	1.06500e+03	2.82443e+00	3.22500e+02
1067	3.25253e+02	1.06700e+03	2.82019e+00	3.23500e+02
1069	3.26247e+02	1.06900e+03	2.81601e+00	3.24500e+02
1071	3.27254e+02	1.07100e+03	2.81187e+00	3.25500e+02
1073	3.28252e+02	1.07300e+03	2.80782e+00	3.26500e+02
1075	3.29248e+02	1.07500e+03	2.80378e+00	3.27500e+02
1077	3.30254e+02	1.07700e+03	2.79979e+00	3.28500e+02
1079	3.31252e+02	1.07900e+03	2.79578e+00	3.29500e+02
1081	3.32256e+02	1.08100e+03	2.79174e+00	3.30500e+02
1083	3.33255e+02	1.08300e+03	2.78763e+00	3.31500e+02
1085	3.34260e+02	1.08500e+03	2.78337e+00	3.32500e+02
1087	3.35261e+02	1.08700e+03	2.77904e+00	3.33500e+02
1089	3.36263e+02	1.08900e+03	2.77448e+00	3.34500e+02
1091	3.37259e+02	1.09100e+03	2.76985e+00	3.35500e+02
1093	3.38257e+02	1.09300e+03	2.76494e+00	3.36500e+02
1095	3.39264e+02	1.09500e+03	2.75990e+00	3.37500e+02
1097	3.40250e+02	1.09700e+03	2.75443e+00	3.38500e+02
1099	3.41265e+02	1.09900e+03	2.74873e+00	3.39500e+02
1101	3.42260e+02	1.10100e+03	2.74237e+00	3.40500e+02
1103	3.43254e+02	1.10300e+03	2.73580e+00	3.41500e+02
1105	3.44245e+02	1.10500e+03	2.72849e+00	3.42500e+02
1107	3.45249e+02	1.10700e+03	2.72099e+00	3.43500e+02
1109	3.46238e+02	1.10900e+03	2.71272e+00	3.44500e+02
1111	3.47240e+02	1.11100e+03	2.70428e+00	3.45500e+02
1113	3.48226e+02	1.11300e+03	2.69508e+00	3.46500e+02
1115	3.49232e+02	1.11500e+03	2.68570e+00	3.47500e+02
1117	3.50229e+02	1.11700e+03	2.67554e+00	3.48500e+02
1119	3.51225e+02	1.11900e+03	2.66512e+00	3.49500e+02
1121	3.52210e+02	1.12100e+03	2.65369e+00	3.50500e+02
1123	3.53203e+02	1.12300e+03	2.64190e+00	3.51500e+02
1125	3.54188e+02	1.12500e+03	2.62887e+00	3.52500e+02
1127	3.55190e+02	1.12700e+03	2.61549e+00	3.53500e+02
1129	3.56171e+02	1.12900e+03	2.60068e+00	3.54500e+02
1131	3.57155e+02	1.13100e+03	2.58540e+00	3.55500e+02
1133	3.58150e+02	1.13300e+03	2.56831e+00	3.56500e+02
1135	3.59151e+02	1.13500e+03	2.55054e+00	3.57500e+02
1137	3.60142e+02	1.13700e+03	2.53049e+00	3.58500e+02
1139	3.61118e+02	1.13900e+03	2.50978e+00	3.59500e+02
1141	3.62111e+02	1.14100e+03	2.48658e+00	3.60500e+02
1143	3.63118e+02	1.14300e+03	2.46276e+00	3.61500e+02
1145	3.64113e+02	1.14500e+03	2.43637e+00	3.62500e+02
1147	3.65108e+02	1.14700e+03	2.40936e+00	3.63500e+02
1149	3.66083e+02	1.14900e+03	2.37981e+00	3.64500e+02
1151	3.67082e+02	1.15100e+03	2.34978e+00	3.65500e+02
1153	3.68069e+02	1.15300e+03	2.31748e+00	3.66500e+02
1155	3.69068e+02	1.15500e+03	2.28478e+00	3.67500e+02
1157	3.70035e+02	1.15700e+03	2.24997e+00	3.68500e+02
1159	3.71032e+02	1.15900e+03	2.21458e+00	3.69500e+02
1161	3.72003e+02	1.16100e+03	2.17692e+00	3.70500e+02
1163	3.72979e+02	1.16300e+03	2.13872e+00	3.71500e+02
1165	3.73959e+02	1.16500e+03	2.09831e+00	3.72500e+02
1167	3.74938e+02	1.16700e+03	2.05755e+00	3.73500e+02
1169	3.75924e+02	1.16900e+03	2.01495e+00	3.74500e+02
1171	3.76905e+02	1.17100e+03	1.97208e+00	3.75500e+02
1173	3.77883e+02	1.17300e+03	1.92763e+00	3.76500e+02
1175	3.78864e+02	1.17500e+03	1.88282e+00	3.77500e+02
1177	3.79850e+02	1.17700e+03	1.83652e+00	3.78500e+02
1179	3.80837e+02	1.17900e+03	1.78991e+00	3.79500e+02
1181	3.81823e+02	1.18100e+03	1.74187e+00	3.80500e+02
1183	3.82813e+02	1.18300e+03	1.69351e+00	3.81500e+02
1185	3.83784e+02	1.18500e+03	1.64387e+00	3.82500e+02
1187	3.84772e+02	1.18700e+03	1.59409e+00	3.83500e+02
1189	3.85750e+02	1.18900e+03	1.54339e+00	3.84500e+02
1191	3.86736e+02	1.19100e+03	1.49262e+00	3.85500e+02
1193	3.87721e+02	1.19300e+03	1.44128e+00	3.86500e+02
1195	3.88711e+02	1.19500e+03	1.38996e+00	3.87500e+02
1197	3.89714e+02	1.19700e+03	1.33832e+00	3.88500e+02
1199	3.90703e+02	1.19900e+03	1.28655e+00	3.89500e+02
1201	3.91690e+02	1.20100e+03	1.23433e+00	3.90500e+02
1203	3.92695e+02	1.20300e+03	1.18181e+00	3.91500e+02
1205	3.93692e+02	1.20500e+03	1.12827e+00	3.92500e+02
1207	3.94700e+02	1.20700e+03	1.07413e+00	3.93500e+02
1209	3.95703e+02	1.20900e+03	1.01848e+00	3.94500e+02
1211	3.96711e+02	1.21100e+03	9.62782e-01	3.95500e+02
1213	3.97724e+02	1.21300e+03	9.06574e-01	3.96500e+02
1215	3.98723e+02	1.21500e+03	8.51173e-01	3.97500e+02
1217	3.99772e+02	1.21700e+03	7.96929e-01	3.98500e+02
1219	4.00800e+02	1.21900e+03	7.43323e-01	3.99500e+02
1221	4.01820e+02	1.22100e+03	6.91637e-01	4.00500e+02
1223	4.02845e+02	1.22300e+03	6.40688e-01	4.01500e+02
1225	4.03883e+02	1.22500e+03	5.92284e-01	4.02500e+02
1227	4.04898e+02	1.22700e+03	5.44809e-01	4.03500e+02
1229	4.05928e+02	1.22900e+03	5.00625e-01	4.04500e+02
1231	4.06965e+02	1.23100e+03	4.57525e-01	4.05500e+02
1233	4.07993e+02	1.23300e+03	4.18292e-01	4.06500e+02
1235	4.09040e+02	1.23500e+03	3.80071e-01	4.07500e+02
1237	4.10071e+02	1.23700e+03	3.45922e-01	4.08500e+02
1239	4.11106e+02	1.23900e+03	3.12731e-01	4.09500e+02
1241	4.12142e+02	1.24100e+03	2.83575e-01	4.10500e+02
1243	4.13178e+02	1.24300e+03	2.55250e-01	4.11500e+02
1245	4.14237e+02	1.24500e+03	2.30693e-01	4.12500e+02
1247	4.15284e+02	1.24700e+03	2.06842e-01	4.13500e+02
1249	4.16320e+02	1.24900e+03	1.86370e-01	4.14500e+02
1251	4.17345e+02	1.25100e+03	1.66530e-01	4.15500e+02
1253	4.18357e+02	1.25300e+03	1.49734e-01	4.16500e+02
1255	4.19368e+02	1.25500e+03	1.33516e-01	4.17500e+02
1257	4.20389e+02	1.25700e+03	1.20000e-01	4.18500e+02
1259	4.21430e+02	1.25900e+03	1.06930e-01	4.19500e+02
1261	4.22442e+02	1.26100e+03	9.61347e-02	4.20500e+02
1263	4.23491e+02	1.26300e+03	8.56739e-02	4.21500e+02
1265	4.24519e+02	1.26500e+03	7.70713e-02	4.22500e+02
1267	4.25554e+02	1.26700e+03	6.87447e-02	4.23500e+02
1269	4.26581e+02	1.26900e+03	6.19292e-02	4.24500e+02
1271	4.27651e+02	1.27100e+03	5.53078e-02	4.25500e+02
1273	4.28691e+02	1.27300e+03	4.98563e-02	4.26500e+02
1275	4.29727e+02	1.27500e+03	4.45509e-02	4.27500e+02
1277	4.30746e+02	1.27700e+03	4.01585e-02	4.28500e+02
1279	4.31757e+02	1.27900e+03	3.58967e-02	4.29500e+02
1281	4.32802e+02	1.28100e+03	3.23843e-02	4.30500e+02
1283	4.33806e+02	1.28300e+03	2.89895e-02	4.31500e+02
1285	4.34832e+02	1.28500e+03	2.62145e-02	4.32500e+02
1287	4.35846e+02	1.28700e+03	2.35203e-02	4.33500e+02
1289	4.36856e+02	1.28900e+03	2.12938e-02	4.34500e+02
1291	4.37853e+02	1.29100e+03	1.90971e-02	4.35500e+02
1293	4.38862e+02	1.29300e+03	1.71938e-02	4.36500e+02
1295	4.39856e+02	1.29500e+03	1.53028e-02	4.37500e+02
1297	4.40844e+02	1.29700e+03	1.36186e-02	4.38500e+02
1299	4.41836e+02	1.29900e+03	1.19930e-02	4.39500e+02
1301	4.42828e+02	1.30100e+03	1.05990e-02	4.40500e+02
1303	4.43809e+02	1.30300e+03	9.26151e-03	4.41500e+02
1305	4.44782e+02	1.30500e+03	8.15024e-03	4.42500e+02
1307	4.45765e+02	1.30700e+03	7.05853e-03	4.43500e+02
1309	4.46744e+02	1.30900e+03	6.12300e-03	4.44500e+02
1311	4.47738e+02	1.31100e+03	5.19222e-03	4.45500e+02
1313	4.48723e+02	1.31300e+03	4.37209e-03	4.46500e+02
1315	4.49709e+02	1.31500e+03	3.57480e-03	4.47500e+02
1317	4.50704e+02	1.31700e+03	2.88080e-03	4.48500e+02
1319	4.51695e+02	1.31900e+03	2.20933e-03	4.49500e+02
1321	4.52683e+02	1.32100e+03	1.63515e-03	4.50500e+02
1323	4.53663e+02	1.32300e+03	1.09112e-03	4.51500e+02
1325	4.54651e+02	1.32500e+03	6.54414e-04	4.52500e+02
1327	4.55639e+02	1.32700e+03	2.39141e-04	4.53500e+02
1329	4.56618e+02	1.32900e+03	-8.79226e-05	4.54500e+02
1331	4.57613e+02	1.33100e+03	-4.04364e-04	4.55500e+02
1333	4.58596e+02	1.33300e+03	-6.43180e-04	4.56500e+02
1335	4.59586e+02	1.33500e+03	-8.50118e-04	4.57500e+02
1337	4.60568e+02	1.33700e+03	-9.47596e-04	4.58500e+02
1339	4.61552e+02	1.33900e+03	-1.03762e-03	4.59500e+02
1341	4.62533e+02	1.34100e+03	-1.07536e-03	4.60500e+02
1343	4.63525e+02	1.34300e+03	-1.15969e-03	4.61500e+02
1345	4.64501e+02	1.34500e+03	-1.30858e-03	4.62500e+02
1347	4.65493e+02	1.34700e+03	-1.47303e-03	4.63500e+02
1349	4.66468e+02	1.34900e+03	-1.67181e-03	4.64500e+02
1351	4.67457e+02	1.35100e+03	-1.82788e-03	4.65500e+02
1353	4.68446e+02	1.35300e+03	-1.95138e-03	4.66500e+02
1355	4.69439e+02	1.35500e+03	-2.08076e-03	4.67500e+02
1357	4.70427e+02	1.35700e+03	-2.19660e-03	4.68500e+02
1359	4.71390e+02	1.35900e+03	-2.30547e-03	4.69500e+02
1361	4.72354e+02	1.36100e+03	-2.39935e-03	4.70500e+02
1363	4.73343e+02	1.36300e+03	-2.49879e-03	4.71500e+02
1365	4.74309e+02	1.36500e+03	-2.58253e-03	4.72500e+02
1367	4.75284e+02	1.36700e+03	-2.66409e-03	4.73500e+02
1369	4.76255e+02	1.36900e+03	-2.73486e-03	4.74500e+02
1371	4.77225e+02	1.37100e+03	-2.80992e-03	4.75500e+02
1373	4.78207e+02	1.37300e+03	-2.87318e-03	4.76500e+02
1375	4.79171e+02	1.37500e+03	-2.92485e-03	4.77500e+02
1377	4.80159e+02	1.37700e+03	-2.96700e-03	4.78500e+02
1379	4.81136e+02	1.37900e+03	-3.01186e-03	4.79500e+02
1381	4.82113e+02	1.38100e+03	-3.05413e-03	4.80500e+02
1383	4.83096e+02	1.38300e+03	-3.09925e-03	4.81500e+02
1385	4.84085e+02	1.38500e+03	-3.15699e-03	4.82500e+02
1387	4.85075e+02	1.38700e+03	-3.22742e-03	4.83500e+02
1389	4.86055e+02	1.38900e+03	-3.31031e-03	4.84500e+02
1391	4.87041e+02	1.39100e+03	-3.37985e-03	4.85500e+02
1393	4.88024e+02	1.39300e+03	-3.43033e-03	4.86500e+02
1395	4.89016e+02	1.39500e+03	-3.47926e-03	4.87500e+02
1397	4.89987e+02	1.39700e+03	-3.52643e-03	4.88500e+02
1399	4.90982e+02	1.39900e+03	-3.59235e-03	4.89500e+02
1401	4.91965e+02	1.40100e+03	-3.67691e-03	4.90500e+02
1403	4.92943e+02	1.40300e+03	-3.75189e-03	4.91500e+02
1405	4.93934e+02	1.40500e+03	-3.84146e-03	4.92500e+02
1407	4.94895e+02	1.40700e+03	-3.94536e-03	4.93500e+02
1409	4.95850e+02	1.40900e+03	-4.07026e-03	4.94500e+02
1411	4.96817e+02	1.41100e+03	-4.17694e-03	4.95500e+02
1413	4.97781e+02	1.41300e+03	-4.26380e-03	4.96500e+02
1415	4.98752e+02	1.41500e+03	-4.33079e-03	4.97500e+02
1417	4.99718e+02	1.41700e+03	-4.35410e-03	4.98500e+02
1419	5.00692e+02	1.41900e+03	-4.37115e-03	4.99500e+02
1421	5.01657e+02	1.42100e+03	-4.35948e-03	5.00500e+02
1423	5.02646e+02	1.42300e+03	-4.36052e-03	5.01500e+02
1425	5.03624e+02	1.42500e+03	-4.38165e-03	5.02500e+02
1427	5.04603e+02	1.42700e+03	-4.42392e-03	5.03500e+02
1429	5.05580e+02	1.42900e+03	-4.48268e-03	5.04500e+02
1431	5.06553e+02	1.43100e+03	-4.51868e-03	5.05500e+02
1433	5.07527e+02	1.43300e+03	-4.53174e-03	5.06500e+02
1435	5.08503e+02	1.43500e+03	-4.54937e-03	5.07500e+02
1437	5.09483e+02	1.43700e+03	-4.57574e-03	5.08500e+02
1439	5.10457e+02	1.43900e+03	-4.62422e-03	5.09500e+02
1441	5.11438e+02	1.44100e+03	-4.71608e-03	5.10500e+02
1443	5.12414e+02	1.44300e+03	-4.80152e-03	5.11500e+02
1445	5.13400e+02	1.44500e+03	-4.90387e-03	5.12500e+02
1447	5.14377e+02	1.44700e+03	-5.01132e-03	5.13500e+02
1449	5.15353e+02	1.44900e+03	-5.14972e-03	5.14500e+02
1451	5.16346e+02	1.45100e+03	-5.27470e-03	5.15500e+02
1453	5.17314e+02	1.45300e+03	-5.32643e-03	5.16500e+02
1455	5.18298e+02	1.45500e+03	-5.28819e-03	5.17500e+02
1457	5.19280e+02	1.45700e+03	-5.08615e-03	5.18500e+02
1459	5.20254e+02	1.45900e+03	-4.93268e-03	5.19500e+02
1461	5.21239e+02	1.46100e+03	-4.81962e-03	5.20500e+02
1463	5.22212e+02	1.46300e+03	-4.78937e-03	5.21500e+02
1465	5.23197e+02	1.46500e+03	-4.89548e-03	5.22500e+02
1467	5.24176e+02	1.46700e+03	-4.98820e-03	5.23500e+02
1469	5.25156e+02	1.46900e+03	-5.12414e-03	5.24500e+02
1471	5.26137e+02	1.47100e+03	-5.23928e-03	5.25500e+02
1473	5.27117e+02	1.47300e+03	-5.34188e-03	5.26500e+02
1475	5.28098e+02	1.47500e+03	-5.43634e-03	5.27500e+02
1477	5.29084e+02	1.47700e+03	-5.49877e-03	5.28500e+02
1479	5.30068e+02	1.47900e+03	-5.54720e-03	5.29500e+02
1481	5.31044e+02	1.48100e+03	-5.56344e-03	5.30500e+02
1483	5.32012e+02	1.48300e+03	-5.58716e-03	5.31500e+02
1485	5.33005e+02	1.48500e+03	-5.60579e-03	5.32500e+02
1487	5.33978e+02	1.48700e+03	-5.62049e-03	5.33500e+02
1489	5.34953e+02	1.48900e+03	-5.63435e-03	5.34500e+02
1491	5.35942e+02	1.49100e+03	-5.64963e-03	5.35500e+02
1493	5.36910e+02	1.49300e+03	-5.68192e-03	5.36500e+02
1495	5.37889e+02	1.49500e+03	-5.73755e-03	5.37500e+02
1497	5.38854e+02	1.49700e+03	-5.83221e-03	5.38500e+02
1499	5.39849e+02	1.49900e+03	-5.92065e-03	5.39500e+02
1501	5.40824e+02	1.50100e+03	-6.00166e-03	5.40500e+02
1503	5.41788e+02	1.50300e+03	-6.05197e-03	5.41500e+02
1505	5.42784e+02	1.50500e+03	-6.04588e-03	5.42500e+02
1507	5.43754e+02	1.50700e+03	-6.04299e-03	5.43500e+02
1509	5.44729e+02	1.50900e+03	-6.03287e-03	5.44500e+02
1511	5.45722e+02	1.51100e+03	-6.05262e-03	5.45500e+02
1513	5.46714e+02	1.51300e+03	-6.10770e-03	5.46500e+02
1515	5.47691e+02	1.51500e+03	-6.15014e-03	5.47500e+02
1517	5.48674e+02	1.51700e+03	-6.19989e-03	5.48500e+02
1519	5.49659e+02	1.51900e+03	-6.25479e-03	5.49500e+02
1521	5.50645e+02	1.52100e+03	-6.32066e-03	5.50500e+02
1523	5.51639e+02	1.52300e+03	-6.38848e-03	5.51500e+02
1525	5.52632e+02	1.52500e+03	-6.45635e-03	5.52500e+02
1527	5.53621e+02	1.52700e+03	-6.52150e-03	5.53500e+02
1529	5.54613e+02	1.52900e+03	-6.60567e-03	5.54500e+02
1531	5.55616e+02	1.53100e+03	-6.71811e-03	5.55500e+02
1533	5.56602e+02	1.53300e+03	-6.85575e-03	5.56500e+02
1535	5.57576e+02	1.53500e+03	-6.94080e-03	5.57500e+02
1537	5.58569e+02	1.53700e+03	-6.91728e-03	5.58500e+02
1539	5.59546e+02	1.53900e+03	-6.85330e-03	5.59500e+02
1541	5.60541e+02	1.54100e+03	-6.71289e-03	5.60500e+02
1543	5.61505e+02	1.54300e+03	-6.63023e-03	5.61500e+02
1545	5.62489e+02	1.54500e+03	-6.61572e-03	5.62500e+02
1547	5.63475e+02	1.54700e+03	-6.62661e-03	5.63500e+02
1549	5.64467e+02	1.54900e+03	-6.70151e-03	5.64500e+02
1551	5.65455e+02	1.55100e+03	-6.76279e-03	5.65500e+02
1553	5.66430e+02	1.55300e+03	-6.82405e-03	5.66500e+02
1555	5.67408e+02	1.55500e+03	-6.86883e-03	5.67500e+02
1557	5.68397e+02	1.55700e+03	-6.89818e-03	5.68500e+02
1559	5.69373e+02	1.55900e+03	-6.94409e-03	5.69500e+02
1561	5.70356e+02	1.56100e+03	-7.02884e-03	5.70500e+02
1563	5.71331e+02	1.56300e+03	-7.12858e-03	5.71500e+02
1565	5.72317e+02	1.56500e+03	-7.24542e-03	5.72500e+02
1567	5.73286e+02	1.56700e+03	-7.33498e-03	5.73500e+02
1569	5.74278e+02	1.56900e+03	-7.38765e-03	5.74500e+02
1571	5.75265e+02	1.57100e+03	-7.42751e-03	5.75500e+02
1573	5.76248e+02	1.57300e+03	-7.42463e-03	5.76500e+02
1575	5.77245e+02	1.57500e+03	-7.41653e-03	5.77500e+02
1577	5.78237e+02	1.57700e+03	-7.38905e-03	5.78500e+02
1579	5.79232e+02	1.57900e+03	-7.37953e-03	5.79500e+02
1581	5.80213e+02	1.58100e+03	-7.39400e-03	5.80500e+02
1583	5.81199e+02	1.58300e+03	-7.42193e-03	5.81500e+02
1585	5.82205e+02	1.58500e+03	-7.49485e-03	5.82500e+02
1587	5.83195e+02	1.58700e+03	-7.56914e-03	5.83500e+02
1589	5.84183e+02	1.58900e+03	-7.64588e-03	5.84500e+02
1591	5.85193e+02	1.59100e+03	-7.69383e-03	5.85500e+02
1593	5.86185e+02	1.59300e+03	-7.69876e-03	5.86500e+02
1595	5.87200e+02	1.59500e+03	-7.70742e-03	5.87500e+02
1597	5.88208e+02	1.59700e+03	-7.70664e-03	5.88500e+02
1599	5.89216e+02	1.59900e+03	-7.72269e-03	5.89500e+02
1601	5.90215e+02	1.60100e+03	-7.76167e-03	5.90500e+02
1603	5.91221e+02	1.60300e+03	-7.80685e-03	5.91500e+02
1605	5.92212e+02	1.60500e+03	-7.86375e-03	5.92500e+02
1607	5.93201e+02	1.60700e+03	-7.90972e-03	5.93500e+02
1609	5.94202e+02	1.60900e+03	-7.93876e-03	5.94500e+02
1611	5.95190e+02	1.61100e+03	-7.96346e-03	5.95500e+02
1613	5.96192e+02	1.61300e+03	-7.97723e-03	5.96500e+02
1615	5.97188e+02	1.61500e+03	-7.99362e-03	5.97500e+02
1617	5.98186e+02	1.61700e+03	-8.01009e-03	5.98500e+02
1619	5.99147e+02	1.61900e+03	-8.02160e-03	5.99500e+02
1621	6.00149e+02	1.62100e+03	-8.03868e-03	6.00500e+02
1623	6.01144e+02	1.62300e+03	-8.06805e-03	6.01500e+02
1625	6.02143e+02	1.62500e+03	-8.12104e-03	6.02500e+02
1627	6.03132e+02	1.62700e+03	-8.18085e-03	6.03500e+02
1629	6.04115e+02	1.62900e+03	-8.24651e-03	6.04500e+02
1631	6.05118e+02	1.63100e+03	-8.29959e-03	6.05500e+02
1633	6.06111e+02	1.63300e+03	-8.34698e-03	6.06500e+02
1635	6.07106e+02	1.63500e+03	-8.40125e-03	6.07500e+02
1637	6.08089e+02	1.63700e+03	-8.45258e-03	6.08500e+02
1639	6.09080e+02	1.63900e+03	-8.48699e-03	6.09500e+02
1641	6.10061e+02	1.64100e+03	-8.48513e-03	6.10500e+02
1643	6.11064e+02	1.64300e+03	-8.46944e-03	6.11500e+02
1645	6.12070e+02	1.64500e+03	-8.42747e-03	6.12500e+02
1647	6.13054e+02	1.64700e+03	-8.40489e-03	6.13500e+02
1649	6.14045e+02	1.64900e+03	-8.39815e-03	6.14500e+02
1651	6.15067e+02	1.65100e+03	-8.39341e-03	6.15500e+02
1653	6.16068e+02	1.65300e+03	-8.39271e-03	6.16500e+02
1655	6.17078e+02	1.65500e+03	-8.38169e-03	6.17500e+02
1657	6.18057e+02	1.65700e+03	-8.37324e-03	6.18500e+02
1659	6.19015e+02	1.65900e+03	-8.38169e-03	6.19500e+02
1661	6.20009e+02	1.66100e+03	-8.41569e-03	6.20500e+02
1663	6.21009e+02	1.66300e+03	-8.44505e-03	6.21500e+02
1665	6.22002e+02	1.66500e+03	-8.47818e-03	6.22500e+02
1667	6.22985e+02	1.66700e+03	-8.50900e-03	6.23500e+02
1669	6.23976e+02	1.66900e+03	-8.53590e-03	6.24500e+02
1671	6.24954e+02	1.67100e+03	-8.56035e-03	6.25500e+02
1673	6.25950e+02	1.67300e+03	-8.58659e-03	6.26500e+02
1675	6.26919e+02	1.67500e+03	-8.61239e-03	6.27500e+02
1677	6.27925e+02	1.67700e+03	-8.64717e-03	6.28500e+02
1679	6.28914e+02	1.67900e+03	-8.69254e-03	6.29500e+02
1681	6.29910e+02	1.68100e+03	-8.74248e-03	6.30500e+02
1683	6.30910e+02	1.68300e+03	-8.76264e-03	6.31500e+02
1685	6.31892e+02	1.68500e+03	-8.74351e-03	6.32500e+02
1687	6.32903e+02	1.68700e+03	-8.72734e-03	6.33500e+02
1689	6.33910e+02	1.68900e+03	-8.70935e-03	6.34500e+02
1691	6.34915e+02	1.69100e+03	-8.71150e-03	6.35500e+02
1693	6.35935e+02	1.69300e+03	-8.73204e-03	6.36500e+02
1695	6.36937e+02	1.69500e+03	-8.73747e-03	6.37500e+02
1697	6.37933e+02	1.69700e+03	-8.73408e-03	6.38500e+02
1699	6.38947e+02	1.69900e+03	-8.73841e-03	6.39500e+02
1701	6.39945e+02	1.70100e+03	-8.76225e-03	6.40500e+02
1703	6.40962e+02	1.70300e+03	-8.79613e-03	6.41500e+02
1705	6.41960e+02	1.70500e+03	-8.85055e-03	6.42500e+02
1707	6.42967e+02	1.70700e+03	-8.88955e-03	6.43500e+02
1709	6.43971e+02	1.70900e+03	-8.91668e-03	6.44500e+02
1711	6.44959e+02	1.71100e+03	-8.93625e-03	6.45500e+02
1713	6.45973e+02	1.71300e+03	-8.94750e-03	6.46500e+02
1715	6.46966e+02	1.71500e+03	-8.97807e-03	6.47500e+02
1717	6.47975e+02	1.71700e+03	-9.05008e-03	6.48500e+02
1719	6.48979e+02	1.71900e+03	-9.14449e-03	6.49500e+02
1721	6.49993e+02	1.72100e+03	-9.28709e-03	6.50500e+02
1723	6.50977e+02	1.72300e+03	-9.38888e-03	6.51500e+02
1725	6.51971e+02	1.72500e+03	-9.39617e-03	6.52500e+02
1727	6.52975e+02	1.72700e+03	-9.32890e-03	6.53500e+02
1729	6.53965e+02	1.72900e+03	-9.10951e-03	6.54500e+02
1731	6.54960e+02	1.73100e+03	-8.91783e-03	6.55500e+02
1733	6.55969e+02	1.73300e+03	-8.72097e-03	6.56500e+02
1735	6.56971e+02	1.73500e+03	-8.58184e-03	6.57500e+02
1737	6.58003e+02	1.73700e+03	-8.54920e-03	6.58500e+02
1739	6.59010e+02	1.73900e+03	-8.54946e-03	6.59500e+02
1741	6.60015e+02	1.74100e+03	-8.66964e-03	6.60500e+02
1743	6.61024e+02	1.74300e+03	-8.79410e-03	6.61500e+02
1745	6.62053e+02	1.74500e+03	-8.95452e-03	6.62500e+02
1747	6.63079e+02	1.74700e+03	-9.08494e-03	6.63500e+02
1749	6.64112e+02	1.74900e+03	-9.18537e-03	6.64500e+02
1751	6.65121e+02	1.75100e+03	-9.26118e-03	6.65500e+02
1753	6.66137e+02	1.75300e+03	-9.26916e-03	6.66500e+02
1755	6.67153e+02	1.75500e+03	-9.25177e-03	6.67500e+02
1757	6.68183e+02	1.75700e+03	-9.18364e-03	6.68500e+02
1759	6.69176e+02	1.75900e+03	-9.15693e-03	6.69500e+02
1761	6.70183e+02	1.76100e+03	-9.16956e-03	6.70500e+02
1763	6.71178e+02	1.76300e+03	-9.18724e-03	6.71500e+02
1765	6.72162e+02	1.76500e+03	-9.22662e-03	6.72500e+02
1767	6.73176e+02	1.76700e+03	-9.24098e-03	6.73500e+02
1769	6.74184e+02	1.76900e+03	-9.22513e-03	6.74500e+02
1771	6.75170e+02	1.77100e+03	-9.21194e-03	6.75500e+02
1773	6.76174e+02	1.77300e+03	-9.20001e-03	6.76500e+02
1775	6.77187e+02	1.77500e+03	-9.21063e-03	6.77500e+02
1777	6.78227e+02	1.77700e+03	-9.25255e-03	6.78500e+02
1779	6.79247e+02	1.77900e+03	-9.29243e-03	6.79500e+02
1781	6.80290e+02	1.78100e+03	-9.34162e-03	6.80500e+02
1783	6.81315e+02	1.78300e+03	-9.39600e-03	6.81500e+02
1785	6.82327e+02	1.78500e+03	-9.48486e-03	6.82500e+02
1787	6.83338e+02	1.78700e+03	-9.59238e-03	6.83500e+02
1789	6.84330e+02	1.78900e+03	-9.70484e-03	6.84500e+02
1791	6.85328e+02	1.79100e+03	-9.75106e-03	6.85500e+02
1793	6.86300e+02	1.79300e+03	-9.66600e-03	6.86500e+02
1795	6.86890e+02	1.79500e+03	-9.55512e-03	6.87500e+02
1797	6.87283e+02	1.79700e+03	-9.38433e-03	6.88500e+02
1799	6.88006e+02	1.79900e+03	-9.28512e-03	6.89500e+02
1801	6.88679e+02	1.80100e+03	-9.27433e-03	6.90500e+02
1803	6.89322e+02	1.80300e+03	-9.29834e-03	6.91500e+02
1805	6.89891e+02	1.80500e+03	-9.38972e-03	6.92500e+02
1807	6.90438e+02	1.80700e+03	-9.46328e-03	6.93500e+02
1809	6.90951e+02	1.80900e+03	-9.53863e-03	6.94500e+02
1811	6.91484e+02	1.81100e+03	-9.59776e-03	6.95500e+02
1813	6.91969e+02	1.81300e+03	-9.62641e-03	6.96500e+02
1815	6.92425e+02	1.81500e+03	-9.63710e-03	6.97500e+02
1817	6.92840e+02	1.81700e+03	-9.59273e-03	6.98500e+02
1819	6.93239e+02	1.81900e+03	-9.53226e-03	6.99500e+02
1820	6.93422e+02	1.82000e+03	-9.47888e-03	7.00000e+02