File: Experiments/TUBS/tga_nonisotherm/tga_dynamic_n2high60_dyn30_piece_3mg_r2.txt
Index	Ts	t	Weight	Tr
[#]	[°C]	[s]	[mg]	[°C]
682	1.30241e+02	6.82000e+02	2.96644	131.0
684	1.31242e+02	6.84000e+02	2.96638	132.0
686	1.32237e+02	6.86000e+02	2.96632	133.0
688	1.33246e+02	6.88000e+02	2.96628	134.0
690	1.34244e+02	6.90000e+02	2.96628	135.0
692	1.35245e+02	6.92000e+02	2.96631	136.0
694	1.36248e+02	6.94000e+02	2.96634	137.0
696	1.37249e+02	6.96000e+02	2.96636	138.0
698	1.38266e+02	6.98000e+02	2.96636	139.0
700	1.39263e+02	7.00000e+02	2.96632	140.0
702	1.40264e+02	7.02000e+02	2.96626	141.0
704	1.41276e+02	7.04000e+02	2.96617	142.0
706	1.42288e+02	7.06000e+02	2.96608	143.0
708	1.43284e+02	7.08000e+02	2.966	144.0
710	1.44283e+02	7.10000e+02	2.96593	145.0
712	1.45296e+02	7.12000e+02	2.96586	146.0
714	1.46306e+02	7.14000e+02	2.9658	147.0
716	1.47304e+02	7.16000e+02	2.96574	148.0
718	1.48314e+02	7.18000e+02	2.96568	149.0
720	1.49319e+02	7.20000e+02	2.96563	150.0
722	1.50319e+02	7.22000e+02	2.96561	151.0
724	1.51325e+02	7.24000e+02	2.96562	152.0
726	1.52328e+02	7.26000e+02	2.96559	153.0
728	1.53338e+02	7.28000e+02	2.96552	154.0
730	1.54355e+02	7.30000e+02	2.96544	155.0
732	1.55360e+02	7.32000e+02	2.96534	156.0
734	1.56369e+02	7.34000e+02	2.96523	157.0
736	1.57371e+02	7.36000e+02	2.96511	158.0
738	1.58375e+02	7.38000e+02	2.96502	159.0
740	1.59392e+02	7.40000e+02	2.96494	160.0
742	1.60389e+02	7.42000e+02	2.96485	161.0
744	1.61412e+02	7.44000e+02	2.96477	162.0
746	1.62414e+02	7.46000e+02	2.96471	163.0
748	1.63425e+02	7.48000e+02	2.96468	164.0
750	1.64431e+02	7.50000e+02	2.96463	165.0
752	1.65443e+02	7.52000e+02	2.96456	166.0
754	1.66450e+02	7.54000e+02	2.96449	167.0
756	1.67466e+02	7.56000e+02	2.96441	168.0
758	1.68475e+02	7.58000e+02	2.9643	169.0
760	1.69491e+02	7.60000e+02	2.96413	170.0
762	1.70498e+02	7.62000e+02	2.96396	171.0
764	1.71507e+02	7.64000e+02	2.9638	172.0
766	1.72514e+02	7.66000e+02	2.96367	173.0
768	1.73516e+02	7.68000e+02	2.9636	174.0
770	1.74528e+02	7.70000e+02	2.96354	175.0
772	1.75537e+02	7.72000e+02	2.96349	176.0
774	1.76553e+02	7.74000e+02	2.96341	177.0
776	1.77565e+02	7.76000e+02	2.96327	178.0
778	1.78582e+02	7.78000e+02	2.96311	179.0
780	1.79590e+02	7.80000e+02	2.96292	180.0
782	1.80601e+02	7.82000e+02	2.96273	181.0
784	1.81629e+02	7.84000e+02	2.96253	182.0
786	1.82642e+02	7.86000e+02	2.96232	183.0
788	1.83642e+02	7.88000e+02	2.9621	184.0
790	1.84669e+02	7.90000e+02	2.96189	185.0
792	1.85668e+02	7.92000e+02	2.96166	186.0
794	1.86691e+02	7.94000e+02	2.96141	187.0
796	1.87714e+02	7.96000e+02	2.96114	188.0
798	1.88720e+02	7.98000e+02	2.96086	189.0
800	1.89729e+02	8.00000e+02	2.96055	190.0
802	1.90750e+02	8.02000e+02	2.96021	191.0
804	1.91762e+02	8.04000e+02	2.95986	192.0
806	1.92777e+02	8.06000e+02	2.95952	193.0
808	1.93785e+02	8.08000e+02	2.95917	194.0
810	1.94795e+02	8.10000e+02	2.95879	195.0
812	1.95822e+02	8.12000e+02	2.95835	196.0
814	1.96828e+02	8.14000e+02	2.95791	197.0
816	1.97843e+02	8.16000e+02	2.95743	198.0
818	1.98851e+02	8.18000e+02	2.95694	199.0
820	1.99874e+02	8.20000e+02	2.95644	200.0
822	2.00885e+02	8.22000e+02	2.95593	201.0
824	2.01918e+02	8.24000e+02	2.95541	202.0
826	2.02927e+02	8.26000e+02	2.95482	203.0
828	2.03936e+02	8.28000e+02	2.95416	204.0
830	2.04961e+02	8.30000e+02	2.95351	205.0
832	2.05974e+02	8.32000e+02	2.95285	206.0
834	2.06978e+02	8.34000e+02	2.95218	207.0
836	2.07994e+02	8.36000e+02	2.95151	208.0
838	2.09011e+02	8.38000e+02	2.95083	209.0
840	2.10026e+02	8.40000e+02	2.95013	210.0
842	2.11051e+02	8.42000e+02	2.94944	211.0
844	2.12054e+02	8.44000e+02	2.94876	212.0
846	2.13075e+02	8.46000e+02	2.9481	213.0
848	2.14077e+02	8.48000e+02	2.94747	214.0
850	2.15080e+02	8.50000e+02	2.94682	215.0
852	2.16086e+02	8.52000e+02	2.94614	216.0
854	2.17093e+02	8.54000e+02	2.94544	217.0
856	2.18097e+02	8.56000e+02	2.94472	218.0
858	2.19121e+02	8.58000e+02	2.94401	219.0
860	2.20128e+02	8.60000e+02	2.94331	220.0
862	2.21142e+02	8.62000e+02	2.9426	221.0
864	2.22152e+02	8.64000e+02	2.9419	222.0
866	2.23159e+02	8.66000e+02	2.94118	223.0
868	2.24168e+02	8.68000e+02	2.94044	224.0
870	2.25186e+02	8.70000e+02	2.9397	225.0
872	2.26186e+02	8.72000e+02	2.93895	226.0
874	2.27200e+02	8.74000e+02	2.93822	227.0
876	2.28210e+02	8.76000e+02	2.93751	228.0
878	2.29225e+02	8.78000e+02	2.93679	229.0
880	2.30232e+02	8.80000e+02	2.93608	230.0
882	2.31249e+02	8.82000e+02	2.93537	231.0
884	2.32276e+02	8.84000e+02	2.93465	232.0
886	2.33284e+02	8.86000e+02	2.93392	233.0
888	2.34304e+02	8.88000e+02	2.93316	234.0
890	2.35320e+02	8.90000e+02	2.93239	235.0
892	2.36336e+02	8.92000e+02	2.93159	236.0
894	2.37351e+02	8.94000e+02	2.93078	237.0
896	2.38357e+02	8.96000e+02	2.92996	238.0
898	2.39369e+02	8.98000e+02	2.92917	239.0
900	2.40392e+02	9.00000e+02	2.92841	240.0
902	2.41400e+02	9.02000e+02	2.92764	241.0
904	2.42401e+02	9.04000e+02	2.92683	242.0
906	2.43413e+02	9.06000e+02	2.92605	243.0
908	2.44414e+02	9.08000e+02	2.92528	244.0
910	2.45426e+02	9.10000e+02	2.9245	245.0
912	2.46442e+02	9.12000e+02	2.92372	246.0
914	2.47446e+02	9.14000e+02	2.92294	247.0
916	2.48458e+02	9.16000e+02	2.92216	248.0
918	2.49469e+02	9.18000e+02	2.92138	249.0
920	2.50479e+02	9.20000e+02	2.92061	250.0
922	2.51487e+02	9.22000e+02	2.91986	251.0
924	2.52502e+02	9.24000e+02	2.91909	252.0
926	2.53512e+02	9.26000e+02	2.91827	253.0
928	2.54519e+02	9.28000e+02	2.91738	254.0
930	2.55530e+02	9.30000e+02	2.91648	255.0
932	2.56560e+02	9.32000e+02	2.91557	256.0
934	2.57573e+02	9.34000e+02	2.91466	257.0
936	2.58599e+02	9.36000e+02	2.91374	258.0
938	2.59596e+02	9.38000e+02	2.91282	259.0
940	2.60614e+02	9.40000e+02	2.91188	260.0
942	2.61631e+02	9.42000e+02	2.91093	261.0
944	2.62646e+02	9.44000e+02	2.90995	262.0
946	2.63656e+02	9.46000e+02	2.90897	263.0
948	2.64657e+02	9.48000e+02	2.90799	264.0
950	2.65663e+02	9.50000e+02	2.90703	265.0
952	2.66665e+02	9.52000e+02	2.9061	266.0
954	2.67688e+02	9.54000e+02	2.90518	267.0
956	2.68702e+02	9.56000e+02	2.9043	268.0
958	2.69717e+02	9.58000e+02	2.90343	269.0
960	2.70731e+02	9.60000e+02	2.90256	270.0
962	2.71729e+02	9.62000e+02	2.90166	271.0
964	2.72761e+02	9.64000e+02	2.90071	272.0
966	2.73786e+02	9.66000e+02	2.89974	273.0
968	2.74813e+02	9.68000e+02	2.89874	274.0
970	2.75834e+02	9.70000e+02	2.89772	275.0
972	2.76860e+02	9.72000e+02	2.89665	276.0
974	2.77882e+02	9.74000e+02	2.89556	277.0
976	2.78888e+02	9.76000e+02	2.89436	278.0
978	2.79892e+02	9.78000e+02	2.89306	279.0
980	2.80898e+02	9.80000e+02	2.89163	280.0
982	2.81925e+02	9.82000e+02	2.89021	281.0
984	2.82937e+02	9.84000e+02	2.88881	282.0
986	2.83931e+02	9.86000e+02	2.88741	283.0
988	2.84928e+02	9.88000e+02	2.88601	284.0
990	2.85926e+02	9.90000e+02	2.88459	285.0
992	2.86935e+02	9.92000e+02	2.88314	286.0
994	2.87942e+02	9.94000e+02	2.88167	287.0
996	2.88949e+02	9.96000e+02	2.88018	288.0
998	2.89970e+02	9.98000e+02	2.87871	289.0
1000	2.90975e+02	1.00000e+03	2.87726	290.0
1002	2.92013e+02	1.00200e+03	2.87582	291.0
1004	2.93075e+02	1.00400e+03	2.87436	292.0
1006	2.94091e+02	1.00600e+03	2.87284	293.0
1008	2.95139e+02	1.00800e+03	2.87124	294.0
1010	2.96171e+02	1.01000e+03	2.86959	295.0
1012	2.97221e+02	1.01200e+03	2.86788	296.0
1014	2.98251e+02	1.01400e+03	2.86613	297.0
1016	2.99321e+02	1.01600e+03	2.86434	298.0
1018	3.00301e+02	1.01800e+03	2.86249	299.0
1020	3.01296e+02	1.02000e+03	2.86057	300.0
1022	3.02410e+02	1.02200e+03	2.85863	301.0
1024	3.03477e+02	1.02400e+03	2.85661	302.0
1026	3.04481e+02	1.02600e+03	2.85452	303.0
1028	3.05495e+02	1.02800e+03	2.85233	304.0
1030	3.06539e+02	1.03000e+03	2.85007	305.0
1032	3.07511e+02	1.03200e+03	2.84772	306.0
1034	3.08545e+02	1.03400e+03	2.84529	307.0
1036	3.09608e+02	1.03600e+03	2.8427	308.0
1038	3.10693e+02	1.03800e+03	2.83996	309.0
1040	3.11664e+02	1.04000e+03	2.837	310.0
1042	3.12704e+02	1.04200e+03	2.83398	311.0
1044	3.13680e+02	1.04400e+03	2.83086	312.0
1046	3.14691e+02	1.04600e+03	2.82774	313.0
1048	3.15650e+02	1.04800e+03	2.82462	314.0
1050	3.16649e+02	1.05000e+03	2.82152	315.0
1052	3.17608e+02	1.05200e+03	2.81843	316.0
1054	3.18608e+02	1.05400e+03	2.81534	317.0
1056	3.19589e+02	1.05600e+03	2.81225	318.0
1058	3.20551e+02	1.05800e+03	2.80916	319.0
1060	3.21529e+02	1.06000e+03	2.80605	320.0
1062	3.22511e+02	1.06200e+03	2.8029	321.0
1064	3.23501e+02	1.06400e+03	2.79967	322.0
1066	3.24488e+02	1.06600e+03	2.79641	323.0
1068	3.25454e+02	1.06800e+03	2.79311	324.0
1070	3.26453e+02	1.07000e+03	2.78976	325.0
1072	3.27441e+02	1.07200e+03	2.78634	326.0
1074	3.28454e+02	1.07400e+03	2.78287	327.0
1076	3.29477e+02	1.07600e+03	2.7793	328.0
1078	3.30496e+02	1.07800e+03	2.77566	329.0
1080	3.31517e+02	1.08000e+03	2.77191	330.0
1082	3.32503e+02	1.08200e+03	2.76807	331.0
1084	3.33520e+02	1.08400e+03	2.76408	332.0
1086	3.34509e+02	1.08600e+03	2.75995	333.0
1088	3.35504e+02	1.08800e+03	2.75561	334.0
1090	3.36512e+02	1.09000e+03	2.75114	335.0
1092	3.37524e+02	1.09200e+03	2.74644	336.0
1094	3.38546e+02	1.09400e+03	2.74155	337.0
1096	3.39545e+02	1.09600e+03	2.73635	338.0
1098	3.40531e+02	1.09800e+03	2.73096	339.0
1100	3.41537e+02	1.10000e+03	2.72525	340.0
1102	3.42544e+02	1.10200e+03	2.7193	341.0
1104	3.43569e+02	1.10400e+03	2.71298	342.0
1106	3.44611e+02	1.10600e+03	2.70649	343.0
1108	3.45654e+02	1.10800e+03	2.6995	344.0
1110	3.46636e+02	1.11000e+03	2.69176	345.0
1112	3.47640e+02	1.11200e+03	2.68266	346.0
1114	3.48632e+02	1.11400e+03	2.67273	347.0
1116	3.49627e+02	1.11600e+03	2.66156	348.0
1118	3.50645e+02	1.11800e+03	2.65004	349.0
1120	3.51625e+02	1.12000e+03	2.63795	350.0
1122	3.52578e+02	1.12200e+03	2.6255	351.0
1124	3.53565e+02	1.12400e+03	2.61238	352.0
1126	3.54552e+02	1.12600e+03	2.59873	353.0
1128	3.55548e+02	1.12800e+03	2.5841	354.0
1130	3.56534e+02	1.13000e+03	2.56876	355.0
1132	3.57519e+02	1.13200e+03	2.55216	356.0
1134	3.58499e+02	1.13400e+03	2.53468	357.0
1136	3.59470e+02	1.13600e+03	2.51575	358.0
1138	3.60451e+02	1.13800e+03	2.496	359.0
1140	3.61421e+02	1.14000e+03	2.47483	360.0
1142	3.62409e+02	1.14200e+03	2.45273	361.0
1144	3.63392e+02	1.14400e+03	2.42897	362.0
1146	3.64359e+02	1.14600e+03	2.40402	363.0
1148	3.65332e+02	1.14800e+03	2.3771	364.0
1150	3.66311e+02	1.15000e+03	2.34906	365.0
1152	3.67282e+02	1.15200e+03	2.31912	366.0
1154	3.68263e+02	1.15400e+03	2.28812	367.0
1156	3.69223e+02	1.15600e+03	2.25534	368.0
1158	3.70207e+02	1.15800e+03	2.22151	369.0
1160	3.71189e+02	1.16000e+03	2.18591	370.0
1162	3.72158e+02	1.16200e+03	2.14926	371.0
1164	3.73134e+02	1.16400e+03	2.11093	372.0
1166	3.74112e+02	1.16600e+03	2.07171	373.0
1168	3.75099e+02	1.16800e+03	2.03102	374.0
1170	3.76074e+02	1.17000e+03	1.98941	375.0
1172	3.77086e+02	1.17200e+03	1.94629	376.0
1174	3.78086e+02	1.17400e+03	1.90232	377.0
1176	3.79082e+02	1.17600e+03	1.85693	378.0
1178	3.80077e+02	1.17800e+03	1.81073	379.0
1180	3.81098e+02	1.18000e+03	1.76329	380.0
1182	3.82336e+02	1.18200e+03	1.71526	381.0
1184	3.83550e+02	1.18400e+03	1.66631	382.0
1186	3.84742e+02	1.18600e+03	1.61699	383.0
1188	3.85767e+02	1.18800e+03	1.56709	384.0
1190	3.86756e+02	1.19000e+03	1.51706	385.0
1192	3.87781e+02	1.19200e+03	1.46685	386.0
1194	3.88797e+02	1.19400e+03	1.41663	387.0
1196	3.89810e+02	1.19600e+03	1.36637	388.0
1198	3.90823e+02	1.19800e+03	1.31613	389.0
1200	3.91845e+02	1.20000e+03	1.26597	390.0
1202	3.92810e+02	1.20200e+03	1.21596	391.0
1204	3.93784e+02	1.20400e+03	1.16611	392.0
1206	3.94769e+02	1.20600e+03	1.11623	393.0
1208	3.95775e+02	1.20800e+03	1.06614	394.0
1210	3.96773e+02	1.21000e+03	1.01564	395.0
1212	3.97752e+02	1.21200e+03	0.964424	396.0
1214	3.98763e+02	1.21400e+03	0.912863	397.0
1216	3.99771e+02	1.21600e+03	0.860934	398.0
1218	4.00799e+02	1.21800e+03	0.809192	399.0
1220	4.01818e+02	1.22000e+03	0.75781	400.0
1222	4.02814e+02	1.22200e+03	0.706825	401.0
1224	4.03794e+02	1.22400e+03	0.656755	402.0
1226	4.04830e+02	1.22600e+03	0.607719	403.0
1228	4.05834e+02	1.22800e+03	0.560603	404.0
1230	4.06838e+02	1.23000e+03	0.515054	405.0
1232	4.07887e+02	1.23200e+03	0.47226	406.0
1234	4.08931e+02	1.23400e+03	0.431365	407.0
1236	4.09991e+02	1.23600e+03	0.393688	408.0
1238	4.11008e+02	1.23800e+03	0.357946	409.0
1240	4.12047e+02	1.24000e+03	0.325467	410.0
1242	4.13085e+02	1.24200e+03	0.2949	411.0
1244	4.14118e+02	1.24400e+03	0.267489	412.0
1246	4.15069e+02	1.24600e+03	0.241777	413.0
1248	4.16055e+02	1.24800e+03	0.218871	414.0
1250	4.17053e+02	1.25000e+03	0.197476	415.0
1252	4.18057e+02	1.25200e+03	0.178577	416.0
1254	4.19046e+02	1.25400e+03	0.161	417.0
1256	4.20019e+02	1.25600e+03	0.145601	418.0
1258	4.21001e+02	1.25800e+03	0.131347	419.0
1260	4.21958e+02	1.26000e+03	0.118974	420.0
1262	4.22915e+02	1.26200e+03	0.10757	421.0
1264	4.23881e+02	1.26400e+03	0.0977505	422.0
1266	4.24848e+02	1.26600e+03	0.0887371	423.0
1268	4.25827e+02	1.26800e+03	0.081047	424.0
1270	4.26788e+02	1.27000e+03	0.0740221	425.0
1272	4.27774e+02	1.27200e+03	0.0680724	426.0
1274	4.28743e+02	1.27400e+03	0.0626305	427.0
1276	4.29727e+02	1.27600e+03	0.0580168	428.0
1278	4.30726e+02	1.27800e+03	0.0537932	429.0
1280	4.31723e+02	1.28000e+03	0.0501941	430.0
1282	4.32706e+02	1.28200e+03	0.0468772	431.0
1284	4.33700e+02	1.28400e+03	0.044021	432.0
1286	4.34680e+02	1.28600e+03	0.0413904	433.0
1288	4.35677e+02	1.28800e+03	0.0391302	434.0
1290	4.36655e+02	1.29000e+03	0.0370601	435.0
1292	4.37626e+02	1.29200e+03	0.0352987	436.0
1294	4.38597e+02	1.29400e+03	0.0336762	437.0
1296	4.39568e+02	1.29600e+03	0.0322701	438.0
1298	4.40539e+02	1.29800e+03	0.0309682	439.0
1300	4.41524e+02	1.30000e+03	0.0298401	440.0
1302	4.42523e+02	1.30200e+03	0.0288008	441.0
1304	4.43511e+02	1.30400e+03	0.0278949	442.0
1306	4.44483e+02	1.30600e+03	0.0270392	443.0
1308	4.45453e+02	1.30800e+03	0.0262761	444.0
1310	4.46434e+02	1.31000e+03	0.0255599	445.0
1312	4.47395e+02	1.31200e+03	0.0249074	446.0
1314	4.48364e+02	1.31400e+03	0.0242664	447.0
1316	4.49370e+02	1.31600e+03	0.0236612	448.0
1318	4.50337e+02	1.31800e+03	0.0231054	449.0
1320	4.51300e+02	1.32000e+03	0.0226272	450.0
1322	4.52262e+02	1.32200e+03	0.022198	451.0
1324	4.53228e+02	1.32400e+03	0.0218491	452.0
1326	4.54181e+02	1.32600e+03	0.0215608	453.0
1328	4.55130e+02	1.32800e+03	0.0213547	454.0
1330	4.56098e+02	1.33000e+03	0.0211683	455.0
1332	4.57059e+02	1.33200e+03	0.0210189	456.0
1334	4.58034e+02	1.33400e+03	0.0208881	457.0
1336	4.59007e+02	1.33600e+03	0.0207723	458.0
1338	4.59980e+02	1.33800e+03	0.0206425	459.0
1340	4.60928e+02	1.34000e+03	0.0205114	460.0
1342	4.61898e+02	1.34200e+03	0.0204033	461.0
1344	4.62877e+02	1.34400e+03	0.0203302	462.0
1346	4.63856e+02	1.34600e+03	0.0202635	463.0
1348	4.64808e+02	1.34800e+03	0.0202124	464.0
1350	4.65743e+02	1.35000e+03	0.0201709	465.0
1352	4.66717e+02	1.35200e+03	0.0201469	466.0
1354	4.67687e+02	1.35400e+03	0.020131	467.0
1356	4.68663e+02	1.35600e+03	0.0201366	468.0
1358	4.69653e+02	1.35800e+03	0.020169	469.0
1360	4.70632e+02	1.36000e+03	0.0202255	470.0
1362	4.71616e+02	1.36200e+03	0.0202562	471.0
1364	4.72596e+02	1.36400e+03	0.020228	472.0
1366	4.73599e+02	1.36600e+03	0.0201577	473.0
1368	4.74591e+02	1.36800e+03	0.0200417	474.0
1370	4.75575e+02	1.37000e+03	0.0199365	475.0
1372	4.76564e+02	1.37200e+03	0.0198471	476.0
1374	4.77539e+02	1.37400e+03	0.0197716	477.0
1376	4.78538e+02	1.37600e+03	0.0197201	478.0
1378	4.79544e+02	1.37800e+03	0.0196799	479.0
1380	4.80514e+02	1.38000e+03	0.0196466	480.0
1382	4.81498e+02	1.38200e+03	0.0196079	481.0
1384	4.82493e+02	1.38400e+03	0.0195619	482.0
1386	4.83467e+02	1.38600e+03	0.0195154	483.0
1388	4.84450e+02	1.38800e+03	0.0194741	484.0
1390	4.85446e+02	1.39000e+03	0.0194474	485.0
1392	4.86413e+02	1.39200e+03	0.0194434	486.0
1394	4.87390e+02	1.39400e+03	0.0194354	487.0
1396	4.88383e+02	1.39600e+03	0.0194155	488.0
1398	4.89363e+02	1.39800e+03	0.0193775	489.0
1400	4.90358e+02	1.40000e+03	0.0193355	490.0
1402	4.91337e+02	1.40200e+03	0.0193281	491.0
1404	4.92350e+02	1.40400e+03	0.0193551	492.0
1406	4.93350e+02	1.40600e+03	0.0193728	493.0
1408	4.94389e+02	1.40800e+03	0.0193848	494.0
1410	4.95407e+02	1.41000e+03	0.0193999	495.0
1412	4.96398e+02	1.41200e+03	0.0194009	496.0
1414	4.97438e+02	1.41400e+03	0.0193598	497.0
1416	4.98413e+02	1.41600e+03	0.0192584	498.0
1418	4.99381e+02	1.41800e+03	0.0191654	499.0
1420	5.00354e+02	1.42000e+03	0.0190916	500.0
1422	5.01354e+02	1.42200e+03	0.0190432	501.0
1424	5.02361e+02	1.42400e+03	0.0190339	502.0
1426	5.03361e+02	1.42600e+03	0.0190291	503.0
1428	5.04346e+02	1.42800e+03	0.01902	504.0
1430	5.05346e+02	1.43000e+03	0.0189888	505.0
1432	5.06337e+02	1.43200e+03	0.0189382	506.0
1434	5.07305e+02	1.43400e+03	0.0189099	507.0
1436	5.08280e+02	1.43600e+03	0.018917	508.0
1438	5.09274e+02	1.43800e+03	0.0189376	509.0
1440	5.10249e+02	1.44000e+03	0.0189844	510.0
1442	5.11228e+02	1.44200e+03	0.0190435	511.0
1444	5.12246e+02	1.44400e+03	0.019113	512.0
1446	5.13278e+02	1.44600e+03	0.0191658	513.0
1448	5.14289e+02	1.44800e+03	0.0191907	514.0
1450	5.15287e+02	1.45000e+03	0.019203	515.0
1452	5.16287e+02	1.45200e+03	0.0192065	516.0
1454	5.17277e+02	1.45400e+03	0.0192114	517.0
1456	5.18299e+02	1.45600e+03	0.0192047	518.0
1458	5.19365e+02	1.45800e+03	0.01917	519.0
1460	5.20359e+02	1.46000e+03	0.0191097	520.0
1462	5.21378e+02	1.46200e+03	0.019061	521.0
1464	5.22376e+02	1.46400e+03	0.0190391	522.0
1466	5.23358e+02	1.46600e+03	0.0190431	523.0
1468	5.24337e+02	1.46800e+03	0.0190827	524.0
1470	5.25351e+02	1.47000e+03	0.0191125	525.0
1472	5.26409e+02	1.47200e+03	0.0190997	526.0
1474	5.27440e+02	1.47400e+03	0.0190356	527.0
1476	5.28627e+02	1.47600e+03	0.0189339	528.0
1478	5.29611e+02	1.47800e+03	0.0188771	529.0
1480	5.31736e+02	1.48000e+03	0.018883	530.0
1482	5.32630e+02	1.48200e+03	0.018908	531.0
1484	5.33444e+02	1.48400e+03	0.0189594	532.0
1486	5.34322e+02	1.48600e+03	0.0190117	533.0
1488	5.35141e+02	1.48800e+03	0.0190546	534.0
1490	5.35928e+02	1.49000e+03	0.0190744	535.0
1492	5.36708e+02	1.49200e+03	0.0190607	536.0
1494	5.37652e+02	1.49400e+03	0.0190358	537.0
1496	5.38615e+02	1.49600e+03	0.0189898	538.0
1498	5.39592e+02	1.49800e+03	0.0189404	539.0
1500	5.40600e+02	1.50000e+03	0.0188989	540.0
1502	5.41590e+02	1.50200e+03	0.0188883	541.0
1504	5.42570e+02	1.50400e+03	0.0189187	542.0
1506	5.43569e+02	1.50600e+03	0.0189428	543.0
1508	5.44508e+02	1.50800e+03	0.01895	544.0
1510	5.45430e+02	1.51000e+03	0.0189281	545.0
1512	5.46435e+02	1.51200e+03	0.0188724	546.0
1514	5.47465e+02	1.51400e+03	0.0188172	547.0
1516	5.48489e+02	1.51600e+03	0.0187773	548.0
1518	5.49559e+02	1.51800e+03	0.0187761	549.0
1520	5.50538e+02	1.52000e+03	0.0188251	550.0
1522	5.51573e+02	1.52200e+03	0.0188682	551.0
1524	5.52505e+02	1.52400e+03	0.0189004	552.0
1526	5.53438e+02	1.52600e+03	0.0189227	553.0
1528	5.54371e+02	1.52800e+03	0.0189333	554.0
1530	5.55316e+02	1.53000e+03	0.0189365	555.0
1532	5.56271e+02	1.53200e+03	0.0189313	556.0
1534	5.57206e+02	1.53400e+03	0.018932	557.0
1536	5.58157e+02	1.53600e+03	0.0189473	558.0
1538	5.59118e+02	1.53800e+03	0.0189678	559.0
1540	5.60046e+02	1.54000e+03	0.0189857	560.0
1542	5.61014e+02	1.54200e+03	0.0189888	561.0
1544	5.62002e+02	1.54400e+03	0.0189675	562.0
1546	5.62967e+02	1.54600e+03	0.018929	563.0
1548	5.63954e+02	1.54800e+03	0.018873	564.0
1550	5.64924e+02	1.55000e+03	0.0188355	565.0
1552	5.65904e+02	1.55200e+03	0.0188363	566.0
1554	5.66861e+02	1.55400e+03	0.018855	567.0
1556	5.67835e+02	1.55600e+03	0.0188823	568.0
1558	5.68802e+02	1.55800e+03	0.0188912	569.0
1560	5.69775e+02	1.56000e+03	0.0188829	570.0
1562	5.70742e+02	1.56200e+03	0.0188792	571.0
1564	5.71709e+02	1.56400e+03	0.0188792	572.0
1566	5.72676e+02	1.56600e+03	0.0188753	573.0
1568	5.73640e+02	1.56800e+03	0.0188741	574.0
1570	5.74603e+02	1.57000e+03	0.0188778	575.0
1572	5.75570e+02	1.57200e+03	0.0188859	576.0
1574	5.76534e+02	1.57400e+03	0.0188952	577.0
1576	5.77518e+02	1.57600e+03	0.0189112	578.0
1578	5.78479e+02	1.57800e+03	0.0189318	579.0
1580	5.79450e+02	1.58000e+03	0.0189504	580.0
1582	5.80415e+02	1.58200e+03	0.0189507	581.0
1584	5.81392e+02	1.58400e+03	0.0189338	582.0
1586	5.82377e+02	1.58600e+03	0.0189294	583.0
1588	5.83365e+02	1.58800e+03	0.0189324	584.0
1590	5.84385e+02	1.59000e+03	0.0189116	585.0
1592	5.85386e+02	1.59200e+03	0.0188681	586.0
1594	5.86363e+02	1.59400e+03	0.0188471	587.0
1596	5.87322e+02	1.59600e+03	0.0188601	588.0
1598	5.88309e+02	1.59800e+03	0.0188929	589.0
1600	5.89274e+02	1.60000e+03	0.018961	590.0
1602	5.90259e+02	1.60200e+03	0.0190391	591.0
1604	5.91250e+02	1.60400e+03	0.019117	592.0
1606	5.92244e+02	1.60600e+03	0.0191592	593.0
1608	5.93234e+02	1.60800e+03	0.0191482	594.0
1610	5.94265e+02	1.61000e+03	0.0191303	595.0
1612	5.95301e+02	1.61200e+03	0.0191107	596.0
1614	5.96315e+02	1.61400e+03	0.0191043	597.0
1616	5.97308e+02	1.61600e+03	0.0191075	598.0
1618	5.98312e+02	1.61800e+03	0.0191095	599.0
1620	5.99319e+02	1.62000e+03	0.0191182	600.0
1622	6.00343e+02	1.62200e+03	0.0191304	601.0
1624	6.01347e+02	1.62400e+03	0.0191393	602.0
1626	6.02367e+02	1.62600e+03	0.019137	603.0
1628	6.03303e+02	1.62800e+03	0.019128	604.0
1630	6.04302e+02	1.63000e+03	0.0191217	605.0
1632	6.05354e+02	1.63200e+03	0.019108	606.0
1634	6.06302e+02	1.63400e+03	0.0190704	607.0
1636	6.07281e+02	1.63600e+03	0.0190114	608.0
1638	6.08313e+02	1.63800e+03	0.0189641	609.0
1640	6.09373e+02	1.64000e+03	0.0189272	610.0
1642	6.10323e+02	1.64200e+03	0.0188886	611.0
1644	6.11211e+02	1.64400e+03	0.0188555	612.0
1646	6.12166e+02	1.64600e+03	0.0188395	613.0
1648	6.13116e+02	1.64800e+03	0.0188444	614.0
1650	6.14081e+02	1.65000e+03	0.0188564	615.0
1652	6.15033e+02	1.65200e+03	0.0188826	616.0
1654	6.16017e+02	1.65400e+03	0.018914	617.0
1656	6.17019e+02	1.65600e+03	0.0189422	618.0
1658	6.17958e+02	1.65800e+03	0.0189553	619.0
1660	6.18973e+02	1.66000e+03	0.0189518	620.0
1662	6.20015e+02	1.66200e+03	0.0189435	621.0
1664	6.21035e+02	1.66400e+03	0.0189181	622.0
1666	6.22060e+02	1.66600e+03	0.0188736	623.0
1668	6.23175e+02	1.66800e+03	0.0188317	624.0
1670	6.24323e+02	1.67000e+03	0.0188282	625.0
1672	6.25274e+02	1.67200e+03	0.0188691	626.0
1674	6.26148e+02	1.67400e+03	0.0188939	627.0
1676	6.27068e+02	1.67600e+03	0.018893	628.0
1678	6.28035e+02	1.67800e+03	0.0188716	629.0
1680	6.28998e+02	1.68000e+03	0.0188212	630.0
1682	6.29969e+02	1.68200e+03	0.0187656	631.0
1684	6.30933e+02	1.68400e+03	0.0187211	632.0
1686	6.31925e+02	1.68600e+03	0.0187164	633.0
1688	6.32893e+02	1.68800e+03	0.0187657	634.0
1690	6.33855e+02	1.69000e+03	0.0188143	635.0
1692	6.34847e+02	1.69200e+03	0.018861	636.0
1694	6.35826e+02	1.69400e+03	0.0188943	637.0
1696	6.36786e+02	1.69600e+03	0.0189043	638.0
1698	6.37764e+02	1.69800e+03	0.0189035	639.0
1700	6.38751e+02	1.70000e+03	0.0188968	640.0
1702	6.39724e+02	1.70200e+03	0.0188985	641.0
1704	6.40717e+02	1.70400e+03	0.0189104	642.0
1706	6.41703e+02	1.70600e+03	0.0189196	643.0
1708	6.42687e+02	1.70800e+03	0.0189201	644.0
1710	6.43673e+02	1.71000e+03	0.0189209	645.0
1712	6.44656e+02	1.71200e+03	0.018923	646.0
1714	6.45632e+02	1.71400e+03	0.01893	647.0
1716	6.46599e+02	1.71600e+03	0.0189348	648.0
1718	6.47586e+02	1.71800e+03	0.0189389	649.0
1720	6.48568e+02	1.72000e+03	0.0189445	650.0
1722	6.49550e+02	1.72200e+03	0.0189407	651.0
1724	6.50538e+02	1.72400e+03	0.0189126	652.0
1726	6.51528e+02	1.72600e+03	0.0188625	653.0
1728	6.52516e+02	1.72800e+03	0.018793	654.0
1730	6.53495e+02	1.73000e+03	0.0187257	655.0
1732	6.54487e+02	1.73200e+03	0.0186494	656.0
1734	6.55465e+02	1.73400e+03	0.0185586	657.0
1736	6.56444e+02	1.73600e+03	0.0184695	658.0
1738	6.57430e+02	1.73800e+03	0.0184206	659.0
1740	6.58431e+02	1.74000e+03	0.018431	660.0
1742	6.59429e+02	1.74200e+03	0.0184653	661.0
1744	6.60430e+02	1.74400e+03	0.0185331	662.0
1746	6.61426e+02	1.74600e+03	0.0186052	663.0
1748	6.62417e+02	1.74800e+03	0.0186588	664.0
1750	6.63420e+02	1.75000e+03	0.0186688	665.0
1752	6.64409e+02	1.75200e+03	0.0186441	666.0
1754	6.65420e+02	1.75400e+03	0.018652	667.0
1756	6.66399e+02	1.75600e+03	0.0186935	668.0
1758	6.67397e+02	1.75800e+03	0.0187157	669.0
1760	6.68393e+02	1.76000e+03	0.0187078	670.0
1762	6.69381e+02	1.76200e+03	0.0186787	671.0
1764	6.70382e+02	1.76400e+03	0.0186227	672.0
1766	6.71373e+02	1.76600e+03	0.0185722	673.0
1768	6.72359e+02	1.76800e+03	0.01854	674.0
1770	6.73342e+02	1.77000e+03	0.0185339	675.0
1772	6.74312e+02	1.77200e+03	0.0185618	676.0
1774	6.75309e+02	1.77400e+03	0.0185848	677.0
1776	6.76299e+02	1.77600e+03	0.0185888	678.0
1778	6.77300e+02	1.77800e+03	0.0185683	679.0
1780	6.78289e+02	1.78000e+03	0.0185077	680.0
1782	6.79287e+02	1.78200e+03	0.0184367	681.0
1784	6.80286e+02	1.78400e+03	0.0183721	682.0
1786	6.81277e+02	1.78600e+03	0.0183292	683.0
1788	6.82285e+02	1.78800e+03	0.0183225	684.0
1790	6.83275e+02	1.79000e+03	0.0183339	685.0
1792	6.84283e+02	1.79200e+03	0.0183707	686.0
1794	6.85279e+02	1.79400e+03	0.0184173	687.0
1796	6.85639e+02	1.79600e+03	0.0184853	688.0
1798	6.86280e+02	1.79800e+03	0.0185691	689.0
1800	6.86993e+02	1.80000e+03	0.018659	690.0
1802	6.87655e+02	1.80200e+03	0.0187055	691.0
1804	6.88282e+02	1.80400e+03	0.0186793	692.0
1806	6.88867e+02	1.80600e+03	0.0186297	693.0
1808	6.89422e+02	1.80800e+03	0.0185623	694.0
1810	6.89947e+02	1.81000e+03	0.0185156	695.0
1812	6.90448e+02	1.81200e+03	0.0185003	696.0
1814	6.90900e+02	1.81400e+03	0.018497	697.0
1816	6.91345e+02	1.81600e+03	0.0185103	698.0
1818	6.91747e+02	1.81800e+03	0.01851	699.0
1820	6.92140e+02	1.82000e+03	0.0184762	700.0
1822	6.92504e+02	1.82200e+03	0.0184338	700.0
1824	6.92863e+02	1.82400e+03	0.0183975	700.0
1826	6.93186e+02	1.82600e+03	0.0183923	700.0
1828	6.93498e+02	1.82800e+03	0.0184072	700.0
1830	6.93795e+02	1.83000e+03	0.0183909	700.0
1832	6.94070e+02	1.83200e+03	0.0183526	700.0
1834	6.94326e+02	1.83400e+03	0.018332	700.0
1836	6.94559e+02	1.83600e+03	0.0183187	700.0
1838	6.94784e+02	1.83800e+03	0.0183029	700.0
1840	6.94996e+02	1.84000e+03	0.0183077	700.0
1842	6.95202e+02	1.84200e+03	0.0183404	700.0
1844	6.95385e+02	1.84400e+03	0.0183998	700.0
1846	6.95570e+02	1.84600e+03	0.0184354	700.0
1848	6.95736e+02	1.84800e+03	0.0184354	700.0
1850	6.95909e+02	1.85000e+03	0.0184316	700.0
1852	6.96068e+02	1.85200e+03	0.0184096	700.0
1854	6.96217e+02	1.85400e+03	0.0183773	700.0
1856	6.96358e+02	1.85600e+03	0.0183444	700.0
1858	6.96504e+02	1.85800e+03	0.0183271	700.0
1860	6.96624e+02	1.86000e+03	0.018329	700.0
1862	6.96742e+02	1.86200e+03	0.0183291	700.0
1864	6.96863e+02	1.86400e+03	0.0183247	700.0
1866	6.96955e+02	1.86600e+03	0.0183145	700.0
1868	6.97072e+02	1.86800e+03	0.0182901	700.0
1870	6.97169e+02	1.87000e+03	0.018256	700.0
1872	6.97260e+02	1.87200e+03	0.0182182	700.0
1874	6.97341e+02	1.87400e+03	0.0181913	700.0
1876	6.97408e+02	1.87600e+03	0.0181828	700.0
1878	6.97479e+02	1.87800e+03	0.0181784	700.0
1880	6.97559e+02	1.88000e+03	0.0181888	700.0
1882	6.97616e+02	1.88200e+03	0.018225	700.0
1884	6.97695e+02	1.88400e+03	0.0182947	700.0
1886	6.97763e+02	1.88600e+03	0.0183566	700.0
1888	6.97812e+02	1.88800e+03	0.0183862	700.0
1890	6.97884e+02	1.89000e+03	0.0183826	700.0
1892	6.97950e+02	1.89200e+03	0.0183442	700.0
1894	6.97999e+02	1.89400e+03	0.018297	700.0
1896	6.98040e+02	1.89600e+03	0.0182439	700.0
1898	6.98092e+02	1.89800e+03	0.0181918	700.0
1900	6.98138e+02	1.90000e+03	0.0181532	700.0
1902	6.98171e+02	1.90200e+03	0.0181396	700.0
1904	6.98215e+02	1.90400e+03	0.0181463	700.0
1906	6.98251e+02	1.90600e+03	0.0181508	700.0
1908	6.98286e+02	1.90800e+03	0.0181715	700.0
1910	6.98319e+02	1.91000e+03	0.0182073	700.0
1912	6.98356e+02	1.91200e+03	0.0182542	700.0
1914	6.98396e+02	1.91400e+03	0.0182869	700.0
1916	6.98426e+02	1.91600e+03	0.0183003	700.0
1918	6.98452e+02	1.91800e+03	0.0183042	700.0
1920	6.98502e+02	1.92000e+03	0.0182988	700.0
1922	6.98509e+02	1.92200e+03	0.0182961	700.0
1924	6.98538e+02	1.92400e+03	0.0183019	700.0
1926	6.98563e+02	1.92600e+03	0.0183193	700.0
1928	6.98575e+02	1.92800e+03	0.0183482	700.0
1930	6.98588e+02	1.93000e+03	0.0183645	700.0
1932	6.98596e+02	1.93200e+03	0.018373	700.0
1934	6.98627e+02	1.93400e+03	0.0183835	700.0
1936	6.98640e+02	1.93600e+03	0.0183922	700.0
1938	6.98664e+02	1.93800e+03	0.0183923	700.0
1940	6.98682e+02	1.94000e+03	0.0183771	700.0
1942	6.98684e+02	1.94200e+03	0.0183514	700.0
1944	6.98719e+02	1.94400e+03	0.0183126	700.0
1946	6.98723e+02	1.94600e+03	0.0182749	700.0
1948	6.98738e+02	1.94800e+03	0.0182459	700.0
1950	6.98749e+02	1.95000e+03	0.0182291	700.0
1952	6.98755e+02	1.95200e+03	0.0182115	700.0
1954	6.98778e+02	1.95400e+03	0.0181696	700.0
1956	6.98781e+02	1.95600e+03	0.0180886	700.0
1958	6.98787e+02	1.95800e+03	0.0180172	700.0
1960	6.98796e+02	1.96000e+03	0.0179867	700.0
1962	6.98812e+02	1.96200e+03	0.018001	700.0
1964	6.98818e+02	1.96400e+03	0.0180684	700.0
1966	6.98834e+02	1.96600e+03	0.0181231	700.0
1968	6.98832e+02	1.96800e+03	0.0181651	700.0
1970	6.98850e+02	1.97000e+03	0.0181961	700.0
1972	6.98848e+02	1.97200e+03	0.0182085	700.0
1974	6.98854e+02	1.97400e+03	0.0182089	700.0
1976	6.98857e+02	1.97600e+03	0.0181986	700.0
1978	6.98857e+02	1.97800e+03	0.0181912	700.0
1980	6.98870e+02	1.98000e+03	0.0181746	700.0
1982	6.98868e+02	1.98200e+03	0.0181424	700.0
1984	6.98871e+02	1.98400e+03	0.0180962	700.0
1986	6.98879e+02	1.98600e+03	0.0180625	700.0
1988	6.98877e+02	1.98800e+03	0.0180485	700.0
1990	6.98889e+02	1.99000e+03	0.018043	700.0
1992	6.98900e+02	1.99200e+03	0.0180453	700.0
1994	6.98899e+02	1.99400e+03	0.0180392	700.0
1996	6.98902e+02	1.99600e+03	0.0180194	700.0
1998	6.98907e+02	1.99800e+03	0.0179952	700.0
2000	6.98919e+02	2.00000e+03	0.0179752	700.0
2002	6.98925e+02	2.00200e+03	0.0179784	700.0
2004	6.98921e+02	2.00400e+03	0.0179914	700.0
2006	6.98929e+02	2.00600e+03	0.0179853	700.0
2008	6.98938e+02	2.00800e+03	0.0179573	700.0
2010	6.98935e+02	2.01000e+03	0.0179302	700.0
2012	6.98936e+02	2.01200e+03	0.017908	700.0
2014	6.98940e+02	2.01400e+03	0.0178923	700.0
2016	6.98946e+02	2.01600e+03	0.0178854	700.0
2018	6.98945e+02	2.01800e+03	0.0179051	700.0
2020	6.98951e+02	2.02000e+03	0.0179511	700.0
2022	6.98946e+02	2.02200e+03	0.0179959	700.0
2024	6.98953e+02	2.02400e+03	0.0180459	700.0
2026	6.98951e+02	2.02600e+03	0.018091	700.0
2028	6.98952e+02	2.02800e+03	0.0181176	700.0
2030	6.98946e+02	2.03000e+03	0.0181258	700.0
2032	6.98952e+02	2.03200e+03	0.0181105	700.0
2034	6.98950e+02	2.03400e+03	0.0180942	700.0
2036	6.98953e+02	2.03600e+03	0.0180732	700.0
2038	6.98959e+02	2.03800e+03	0.0180463	700.0
2040	6.98959e+02	2.04000e+03	0.0180174	700.0
2042	6.98960e+02	2.04200e+03	0.0180124	700.0
2044	6.98961e+02	2.04400e+03	0.0180393	700.0
2046	6.98958e+02	2.04600e+03	0.0180659	700.0
2048	6.98963e+02	2.04800e+03	0.0180941	700.0
2050	6.98954e+02	2.05000e+03	0.0181209	700.0
2052	6.98969e+02	2.05200e+03	0.0181441	700.0
2054	6.98959e+02	2.05400e+03	0.0181467	700.0
2056	6.98961e+02	2.05600e+03	0.0181137	700.0
2058	6.98954e+02	2.05800e+03	0.0180738	700.0
2060	6.98958e+02	2.06000e+03	0.0180404	700.0
2062	6.98968e+02	2.06200e+03	0.0180289	700.0
2064	6.98963e+02	2.06400e+03	0.0180454	700.0
2066	6.98959e+02	2.06600e+03	0.0180642	700.0
2068	6.98960e+02	2.06800e+03	0.0180933	700.0
2070	6.98978e+02	2.07000e+03	0.0181353	700.0
2072	6.98959e+02	2.07200e+03	0.0181818	700.0
2074	6.98964e+02	2.07400e+03	0.0182019	700.0
2076	6.98960e+02	2.07600e+03	0.0181928	700.0
2078	6.98956e+02	2.07800e+03	0.0181743	700.0
2080	6.98955e+02	2.08000e+03	0.0181369	700.0
2082	6.98964e+02	2.08200e+03	0.0180921	700.0
2084	6.98952e+02	2.08400e+03	0.0180507	700.0
2086	6.98961e+02	2.08600e+03	0.0180195	700.0
2088	6.98954e+02	2.08800e+03	0.0179984	700.0
2090	6.98952e+02	2.09000e+03	0.0179651	700.0
2092	6.98953e+02	2.09200e+03	0.0179259	700.0
2094	6.98941e+02	2.09400e+03	0.0178951	700.0
2096	6.98956e+02	2.09600e+03	0.017875	700.0
2098	6.98947e+02	2.09800e+03	0.0178657	700.0
2100	6.98950e+02	2.10000e+03	0.0178771	700.0
2102	6.98949e+02	2.10200e+03	0.0179005	700.0
2104	6.98953e+02	2.10400e+03	0.017932	700.0
2106	6.98943e+02	2.10600e+03	0.0179544	700.0
2108	6.98952e+02	2.10800e+03	0.0179659	700.0
2110	6.98946e+02	2.11000e+03	0.0179797	700.0
2112	6.98944e+02	2.11200e+03	0.0179953	700.0
2114	6.98940e+02	2.11400e+03	0.0180063	700.0
2116	6.98937e+02	2.11600e+03	0.0180048	700.0
2118	6.98935e+02	2.11800e+03	0.0179904	700.0
2120	6.98938e+02	2.12000e+03	0.0179572	700.0
2122	6.98934e+02	2.12200e+03	0.0179202	700.0
2124	6.98934e+02	2.12400e+03	0.0178846	700.0
2126	6.98931e+02	2.12600e+03	0.0178709	700.0
2128	6.98924e+02	2.12800e+03	0.0178824	700.0
2130	6.98930e+02	2.13000e+03	0.0178862	700.0
2132	6.98928e+02	2.13200e+03	0.017878	700.0
2134	6.98928e+02	2.13400e+03	0.0178588	700.0
2136	6.98924e+02	2.13600e+03	0.0178278	700.0
2138	6.98918e+02	2.13800e+03	0.0177968	700.0
2140	6.98917e+02	2.14000e+03	0.0177599	700.0
2142	6.98919e+02	2.14200e+03	0.0177254	700.0
2144	6.98900e+02	2.14400e+03	0.0176927	700.0
2146	6.98899e+02	2.14600e+03	0.0176641	700.0
2148	6.98906e+02	2.14800e+03	0.0176423	700.0
2150	6.98901e+02	2.15000e+03	0.0176251	700.0
2152	6.98900e+02	2.15200e+03	0.0176179	700.0
2154	6.98904e+02	2.15400e+03	0.0176195	700.0
2156	6.98900e+02	2.15600e+03	0.0176333	700.0
2158	6.98895e+02	2.15800e+03	0.0176633	700.0
2160	6.98892e+02	2.16000e+03	0.0177315	700.0
2162	6.98896e+02	2.16200e+03	0.0178088	700.0
2164	6.98897e+02	2.16400e+03	0.017891	700.0
2166	6.98896e+02	2.16600e+03	0.0179479	700.0
2168	6.98889e+02	2.16800e+03	0.0179667	700.0
2170	6.98886e+02	2.17000e+03	0.0179723	700.0
2172	6.98890e+02	2.17200e+03	0.0179584	700.0
2174	6.98876e+02	2.17400e+03	0.0179419	700.0
2176	6.98874e+02	2.17600e+03	0.017933	700.0
2178	6.98872e+02	2.17800e+03	0.0179226	700.0
2180	6.98878e+02	2.18000e+03	0.0179005	700.0
2182	6.98867e+02	2.18200e+03	0.0178566	700.0
2184	6.98871e+02	2.18400e+03	0.0177899	700.0
2186	6.98870e+02	2.18600e+03	0.0177452	700.0
2188	6.98871e+02	2.18800e+03	0.0177326	700.0
2190	6.98870e+02	2.19000e+03	0.0177341	700.0
2192	6.98866e+02	2.19200e+03	0.0177569	700.0
2194	6.98867e+02	2.19400e+03	0.0177907	700.0
2196	6.98856e+02	2.19600e+03	0.0178358	700.0
2198	6.98862e+02	2.19800e+03	0.0178715	700.0
2200	6.98867e+02	2.20000e+03	0.0178916	700.0
2202	6.98860e+02	2.20200e+03	0.0178986	700.0
2204	6.98862e+02	2.20400e+03	0.017884	700.0
2206	6.98848e+02	2.20600e+03	0.0178574	700.0
2208	6.98853e+02	2.20800e+03	0.0178359	700.0
2210	6.98852e+02	2.21000e+03	0.0178534	700.0
2212	6.98858e+02	2.21200e+03	0.0179069	700.0
2214	6.98839e+02	2.21400e+03	0.0179445	700.0
2216	6.98848e+02	2.21600e+03	0.0179431	700.0
2218	6.98839e+02	2.21800e+03	0.0179177	700.0
2220	6.98841e+02	2.22000e+03	0.0178644	700.0
2222	6.98844e+02	2.22200e+03	0.0178228	700.0
2224	6.98833e+02	2.22400e+03	0.017799	700.0
2226	6.98835e+02	2.22600e+03	0.0177818	700.0
2228	6.98831e+02	2.22800e+03	0.0177734	700.0
2230	6.98827e+02	2.23000e+03	0.017763	700.0
2232	6.98828e+02	2.23200e+03	0.0177471	700.0
2234	6.98819e+02	2.23400e+03	0.0177354	700.0
2236	6.98819e+02	2.23600e+03	0.01772	700.0
2238	6.98811e+02	2.23800e+03	0.0176939	700.0
2240	6.98809e+02	2.24000e+03	0.0176534	700.0
2242	6.98818e+02	2.24200e+03	0.0176091	700.0
2244	6.98811e+02	2.24400e+03	0.0175737	700.0
2246	6.98815e+02	2.24600e+03	0.0175575	700.0
2248	6.98817e+02	2.24800e+03	0.0175633	700.0
2250	6.98803e+02	2.25000e+03	0.0175704	700.0
2252	6.98803e+02	2.25200e+03	0.0175807	700.0
2254	6.98801e+02	2.25400e+03	0.017593	700.0
2256	6.98799e+02	2.25600e+03	0.0176043	700.0
2258	6.98797e+02	2.25800e+03	0.0176086	700.0
2260	6.98794e+02	2.26000e+03	0.0176027	700.0
2262	6.98800e+02	2.26200e+03	0.0175945	700.0
2264	6.98787e+02	2.26400e+03	0.0175842	700.0
2266	6.98782e+02	2.26600e+03	0.017584	700.0
2268	6.98788e+02	2.26800e+03	0.0176115	700.0
2270	6.98788e+02	2.27000e+03	0.017652	700.0
2272	6.98794e+02	2.27200e+03	0.0177022	700.0
2274	6.98775e+02	2.27400e+03	0.0177374	700.0
2276	6.98786e+02	2.27600e+03	0.0177501	700.0
2278	6.98780e+02	2.27800e+03	0.0177547	700.0
2280	6.98780e+02	2.28000e+03	0.017746	700.0
2282	6.98784e+02	2.28200e+03	0.0177321	700.0
2284	6.98784e+02	2.28400e+03	0.0177126	700.0
2286	6.98780e+02	2.28600e+03	0.0176955	700.0
2288	6.98771e+02	2.28800e+03	0.0176807	700.0
2290	6.98771e+02	2.29000e+03	0.0176642	700.0
2292	6.98782e+02	2.29200e+03	0.0176445	700.0
2294	6.98773e+02	2.29400e+03	0.0176235	700.0
2296	6.98773e+02	2.29600e+03	0.0176028	700.0
2298	6.98771e+02	2.29800e+03	0.0175867	700.0
2300	6.98764e+02	2.30000e+03	0.0175834	700.0
2302	6.98777e+02	2.30200e+03	0.0176041	700.0
2304	6.98765e+02	2.30400e+03	0.0176528	700.0
2306	6.98779e+02	2.30600e+03	0.0176955	700.0
2308	6.98767e+02	2.30800e+03	0.0177312	700.0
2310	6.98777e+02	2.31000e+03	0.0177713	700.0
2312	6.98775e+02	2.31200e+03	0.0178117	700.0
2314	6.98771e+02	2.31400e+03	0.0178425	700.0
2316	6.98775e+02	2.31600e+03	0.0178552	700.0
2318	6.98767e+02	2.31800e+03	0.0178511	700.0
2320	6.98764e+02	2.32000e+03	0.0178241	700.0
2322	6.98776e+02	2.32200e+03	0.0177948	700.0
2324	6.98758e+02	2.32400e+03	0.0177628	700.0
2326	6.98767e+02	2.32600e+03	0.0177382	700.0
2328	6.98764e+02	2.32800e+03	0.0177339	700.0
2330	6.98759e+02	2.33000e+03	0.0177372	700.0
2332	6.98759e+02	2.33200e+03	0.0177425	700.0
2334	6.98755e+02	2.33400e+03	0.0177299	700.0
2336	6.98756e+02	2.33600e+03	0.0177027	700.0
2338	6.98758e+02	2.33800e+03	0.0176909	700.0
2340	6.98748e+02	2.34000e+03	0.017679	700.0
2342	6.98746e+02	2.34200e+03	0.017655	700.0
2344	6.98747e+02	2.34400e+03	0.0176224	700.0
2346	6.98746e+02	2.34600e+03	0.0176036	700.0
2348	6.98750e+02	2.34800e+03	0.0176056	700.0
2350	6.98751e+02	2.35000e+03	0.0176145	700.0
2352	6.98756e+02	2.35200e+03	0.0176298	700.0
2354	6.98742e+02	2.35400e+03	0.0176367	700.0
2356	6.98746e+02	2.35600e+03	0.0176274	700.0
2358	6.98754e+02	2.35800e+03	0.0176067	700.0
2360	6.98758e+02	2.36000e+03	0.0175794	700.0
2362	6.98750e+02	2.36200e+03	0.0175658	700.0
2364	6.98757e+02	2.36400e+03	0.0175612	700.0
2366	6.98741e+02	2.36600e+03	0.0175509	700.0
2368	6.98752e+02	2.36800e+03	0.0175354	700.0
2370	6.98753e+02	2.37000e+03	0.0175279	700.0
2372	6.98747e+02	2.37200e+03	0.0175359	700.0
2374	6.98732e+02	2.37400e+03	0.0175551	700.0
2376	6.98743e+02	2.37600e+03	0.0175859	700.0
2378	6.98738e+02	2.37800e+03	0.0176163	700.0
2380	6.98735e+02	2.38000e+03	0.017638	700.0
2382	6.98736e+02	2.38200e+03	0.0176391	700.0
2384	6.98742e+02	2.38400e+03	0.0176126	700.0
2386	6.98738e+02	2.38600e+03	0.0175786	700.0
2388	6.98730e+02	2.38800e+03	0.0175386	700.0
2390	6.98736e+02	2.39000e+03	0.0175075	700.0
2392	6.98728e+02	2.39200e+03	0.0174896	700.0
2394	6.98737e+02	2.39400e+03	0.0174769	700.0
2396	6.98728e+02	2.39600e+03	0.0174711	700.0
2398	6.98729e+02	2.39800e+03	0.017463	700.0
2400	6.98719e+02	2.40000e+03	0.0174375	700.0
2402	6.98721e+02	2.40200e+03	0.0174056	700.0
2404	6.98731e+02	2.40400e+03	0.0173724	700.0
2406	6.98726e+02	2.40600e+03	0.0173428	700.0
2408	6.98721e+02	2.40800e+03	0.0173189	700.0
2410	6.98719e+02	2.41000e+03	0.0172946	700.0
2412	6.98726e+02	2.41200e+03	0.0172781	700.0
2414	6.98722e+02	2.41400e+03	0.0172817	700.0
2416	6.98734e+02	2.41600e+03	0.0173159	700.0
2418	6.98720e+02	2.41800e+03	0.0173617	700.0
2420	6.98722e+02	2.42000e+03	0.0174305	700.0
2422	6.98717e+02	2.42200e+03	0.0175101	700.0
2424	6.98717e+02	2.42400e+03	0.0175858	700.0
2426	6.98716e+02	2.42600e+03	0.0176314	700.0
2428	6.98716e+02	2.42800e+03	0.017636	700.0
2430	6.98712e+02	2.43000e+03	0.0176342	700.0
2432	6.98709e+02	2.43200e+03	0.017629	700.0
2434	6.98712e+02	2.43400e+03	0.0176356	700.0
2436	6.98720e+02	2.43600e+03	0.0176525	700.0
2438	6.98708e+02	2.43800e+03	0.0176442	700.0
2440	6.98716e+02	2.44000e+03	0.0175933	700.0
2442	6.98709e+02	2.44200e+03	0.0175229	700.0
2444	6.98705e+02	2.44400e+03	0.0174402	700.0
2446	6.98714e+02	2.44600e+03	0.0173898	700.0
2448	6.98715e+02	2.44800e+03	0.0173911	700.0
2450	6.98710e+02	2.45000e+03	0.0174143	700.0
2452	6.98711e+02	2.45200e+03	0.0174615	700.0
2454	6.98708e+02	2.45400e+03	0.0174998	700.0
2456	6.98702e+02	2.45600e+03	0.0175219	700.0
2458	6.98719e+02	2.45800e+03	0.0175334	700.0
2460	6.98696e+02	2.46000e+03	0.0175321	700.0
2462	6.98705e+02	2.46200e+03	0.0175308	700.0
2464	6.98700e+02	2.46400e+03	0.0175279	700.0
2466	6.98708e+02	2.46600e+03	0.0175207	700.0
2468	6.98693e+02	2.46800e+03	0.0175169	700.0
2470	6.98700e+02	2.47000e+03	0.0175233	700.0
2472	6.98703e+02	2.47200e+03	0.0175417	700.0
2474	6.98695e+02	2.47400e+03	0.0175476	700.0
2476	6.98693e+02	2.47600e+03	0.0175325	700.0
2478	6.98707e+02	2.47800e+03	0.0175191	700.0
2480	6.98707e+02	2.48000e+03	0.0175165	700.0
2482	6.98698e+02	2.48200e+03	0.0175242	700.0
2484	6.98691e+02	2.48400e+03	0.0175551	700.0
2486	6.98699e+02	2.48600e+03	0.0175988	700.0
2488	6.98709e+02	2.48800e+03	0.0176608	700.0
2490	6.98697e+02	2.49000e+03	0.0177107	700.0
2492	6.98704e+02	2.49200e+03	0.0177329	700.0
2494	6.98703e+02	2.49400e+03	0.017738	700.0
2496	6.98698e+02	2.49600e+03	0.0177163	700.0
2498	6.98697e+02	2.49800e+03	0.0176894	700.0
2500	6.98695e+02	2.50000e+03	0.0176531	700.0
2502	6.98693e+02	2.50200e+03	0.0176116	700.0
2504	6.98691e+02	2.50400e+03	0.0175638	700.0
2506	6.98681e+02	2.50600e+03	0.0175153	700.0
2508	6.98693e+02	2.50800e+03	0.0174649	700.0
2510	6.98689e+02	2.51000e+03	0.0174168	700.0
2512	6.98694e+02	2.51200e+03	0.0173875	700.0
2514	6.98682e+02	2.51400e+03	0.0173933	700.0
2516	6.98689e+02	2.51600e+03	0.0174354	700.0
2518	6.98696e+02	2.51800e+03	0.0174714	700.0
2520	6.98687e+02	2.52000e+03	0.0175152	700.0
2522	6.98688e+02	2.52200e+03	0.017569	700.0
2524	6.98688e+02	2.52400e+03	0.017616	700.0
2526	6.98683e+02	2.52600e+03	0.0176255	700.0
2528	6.98683e+02	2.52800e+03	0.017591	700.0
2530	6.98681e+02	2.53000e+03	0.0175515	700.0
2532	6.98674e+02	2.53200e+03	0.0175045	700.0
2534	6.98689e+02	2.53400e+03	0.0174629	700.0
2536	6.98674e+02	2.53600e+03	0.0174375	700.0
2538	6.98682e+02	2.53800e+03	0.0174287	700.0
2540	6.98677e+02	2.54000e+03	0.017441	700.0
2542	6.98672e+02	2.54200e+03	0.0174526	700.0
2544	6.98671e+02	2.54400e+03	0.0174667	700.0
2546	6.98676e+02	2.54600e+03	0.0174854	700.0
2548	6.98691e+02	2.54800e+03	0.0175097	700.0
2550	6.98673e+02	2.55000e+03	0.0175309	700.0
2552	6.98682e+02	2.55200e+03	0.0175418	700.0
2554	6.98666e+02	2.55400e+03	0.0175392	700.0
2556	6.98666e+02	2.55600e+03	0.0175191	700.0
2558	6.98664e+02	2.55800e+03	0.0174963	700.0
2560	6.98666e+02	2.56000e+03	0.0174709	700.0
2562	6.98664e+02	2.56200e+03	0.0174493	700.0
2564	6.98665e+02	2.56400e+03	0.0174369	700.0
2566	6.98667e+02	2.56600e+03	0.0174336	700.0
2568	6.98669e+02	2.56800e+03	0.017444	700.0
2570	6.98660e+02	2.57000e+03	0.017459	700.0
2572	6.98664e+02	2.57200e+03	0.0174808	700.0
2574	6.98666e+02	2.57400e+03	0.0175036	700.0
2576	6.98661e+02	2.57600e+03	0.0175192	700.0
2578	6.98655e+02	2.57800e+03	0.0175154	700.0
2580	6.98655e+02	2.58000e+03	0.0174921	700.0
2582	6.98655e+02	2.58200e+03	0.0174655	700.0
2584	6.98650e+02	2.58400e+03	0.0174322	700.0
2586	6.98663e+02	2.58600e+03	0.0173996	700.0
2588	6.98653e+02	2.58800e+03	0.0173869	700.0
2590	6.98663e+02	2.59000e+03	0.0174035	700.0
2592	6.98650e+02	2.59200e+03	0.017451	700.0
2594	6.98653e+02	2.59400e+03	0.017492	700.0
2596	6.98656e+02	2.59600e+03	0.0175189	700.0
2598	6.98656e+02	2.59800e+03	0.0175311	700.0
2600	6.98647e+02	2.60000e+03	0.0175192	700.0
2602	6.98654e+02	2.60200e+03	0.0174988	700.0
2604	6.98648e+02	2.60400e+03	0.017468	700.0
2606	6.98648e+02	2.60600e+03	0.0174317	700.0
2608	6.98647e+02	2.60800e+03	0.017392	700.0
2610	6.98660e+02	2.61000e+03	0.0173485	700.0
2612	6.98639e+02	2.61200e+03	0.0173163	700.0
2614	6.98648e+02	2.61400e+03	0.0173096	700.0
2616	6.98653e+02	2.61600e+03	0.0173286	700.0
2618	6.98643e+02	2.61800e+03	0.0173441	700.0
2620	6.98646e+02	2.62000e+03	0.0173539	700.0
2622	6.98642e+02	2.62200e+03	0.0173587	700.0
2624	6.98651e+02	2.62400e+03	0.017354	700.0
2626	6.98646e+02	2.62600e+03	0.0173445	700.0
2628	6.98646e+02	2.62800e+03	0.0173319	700.0
2630	6.98642e+02	2.63000e+03	0.0173277	700.0
2632	6.98642e+02	2.63200e+03	0.017338	700.0
2634	6.98641e+02	2.63400e+03	0.0173539	700.0
2636	6.98638e+02	2.63600e+03	0.0173766	700.0
2638	6.98637e+02	2.63800e+03	0.0174081	700.0
2640	6.98640e+02	2.64000e+03	0.0174414	700.0
2642	6.98640e+02	2.64200e+03	0.0174645	700.0
2644	6.98651e+02	2.64400e+03	0.0174665	700.0
2646	6.98645e+02	2.64600e+03	0.0174479	700.0
2648	6.98648e+02	2.64800e+03	0.0173999	700.0
2650	6.98637e+02	2.65000e+03	0.0173473	700.0
2652	6.98642e+02	2.65200e+03	0.0172959	700.0
2654	6.98641e+02	2.65400e+03	0.0172665	700.0
2656	6.98644e+02	2.65600e+03	0.0172818	700.0
2658	6.98648e+02	2.65800e+03	0.0173106	700.0
2660	6.98649e+02	2.66000e+03	0.0173447	700.0
2662	6.98643e+02	2.66200e+03	0.0173636	700.0
2664	6.98644e+02	2.66400e+03	0.0173596	700.0
2666	6.98640e+02	2.66600e+03	0.0173508	700.0
2668	6.98640e+02	2.66800e+03	0.0173336	700.0
2670	6.98649e+02	2.67000e+03	0.0173251	700.0
2672	6.98650e+02	2.67200e+03	0.017324	700.0
2674	6.98641e+02	2.67400e+03	0.0173279	700.0
2676	6.98645e+02	2.67600e+03	0.0173403	700.0
2678	6.98647e+02	2.67800e+03	0.0173579	700.0
2680	6.98652e+02	2.68000e+03	0.0173898	700.0
2682	6.98639e+02	2.68200e+03	0.0174415	700.0
2684	6.98644e+02	2.68400e+03	0.017505	700.0
2686	6.98639e+02	2.68600e+03	0.017552	700.0
2688	6.98647e+02	2.68800e+03	0.017573	700.0
2690	6.98645e+02	2.69000e+03	0.0175779	700.0
2692	6.98638e+02	2.69200e+03	0.0175462	700.0
2694	6.98638e+02	2.69400e+03	0.0174906	700.0
2696	6.98644e+02	2.69600e+03	0.0174137	700.0
2698	6.98641e+02	2.69800e+03	0.0173521	700.0
2700	6.98638e+02	2.70000e+03	0.0173131	700.0
2702	6.98635e+02	2.70200e+03	0.0172752	700.0
2704	6.98646e+02	2.70400e+03	0.017249	700.0
2706	6.98639e+02	2.70600e+03	0.0172502	700.0
2708	6.98636e+02	2.70800e+03	0.0172859	700.0
2710	6.98638e+02	2.71000e+03	0.0173201	700.0
2712	6.98634e+02	2.71200e+03	0.0173468	700.0
2714	6.98637e+02	2.71400e+03	0.0173675	700.0
2716	6.98622e+02	2.71600e+03	0.0173644	700.0
2718	6.98641e+02	2.71800e+03	0.0173522	700.0
2720	6.98633e+02	2.72000e+03	0.0173429	700.0