File: Experiments/TUBS/tga_nonisotherm/tga_dynamic_n2_dyn10_piece_2mg_r1.txt
index	ts	t	weight	tr
[#]	[°C]	[s]	[mg]	[°C]
843	1.30705e+02	8.43000e+02	2.00321e+00	1.30500e+02
847	1.31374e+02	8.47000e+02	2.00292e+00	1.31167e+02
851	1.32045e+02	8.51000e+02	2.00275e+00	1.31833e+02
855	1.32722e+02	8.55000e+02	2.00279e+00	1.32500e+02
859	1.33409e+02	8.59000e+02	2.00280e+00	1.33167e+02
863	1.34082e+02	8.63000e+02	2.00282e+00	1.33833e+02
867	1.34749e+02	8.67000e+02	2.00287e+00	1.34500e+02
871	1.35432e+02	8.71000e+02	2.00281e+00	1.35167e+02
875	1.36083e+02	8.75000e+02	2.00266e+00	1.35833e+02
879	1.36776e+02	8.79000e+02	2.00259e+00	1.36500e+02
883	1.37435e+02	8.83000e+02	2.00263e+00	1.37167e+02
887	1.38117e+02	8.87000e+02	2.00265e+00	1.37833e+02
891	1.38800e+02	8.91000e+02	2.00274e+00	1.38500e+02
895	1.39480e+02	8.95000e+02	2.00286e+00	1.39167e+02
899	1.40151e+02	8.99000e+02	2.00280e+00	1.39833e+02
903	1.40823e+02	9.03000e+02	2.00264e+00	1.40500e+02
907	1.41503e+02	9.07000e+02	2.00249e+00	1.41167e+02
911	1.42174e+02	9.11000e+02	2.00242e+00	1.41833e+02
915	1.42846e+02	9.15000e+02	2.00249e+00	1.42500e+02
919	1.43522e+02	9.19000e+02	2.00248e+00	1.43167e+02
923	1.44199e+02	9.23000e+02	2.00221e+00	1.43833e+02
927	1.44866e+02	9.27000e+02	2.00203e+00	1.44500e+02
931	1.45560e+02	9.31000e+02	2.00238e+00	1.45167e+02
935	1.46233e+02	9.35000e+02	2.00274e+00	1.45833e+02
939	1.46908e+02	9.39000e+02	2.00260e+00	1.46500e+02
943	1.47578e+02	9.43000e+02	2.00226e+00	1.47167e+02
947	1.48247e+02	9.47000e+02	2.00202e+00	1.47833e+02
951	1.48934e+02	9.51000e+02	2.00203e+00	1.48500e+02
955	1.49606e+02	9.55000e+02	2.00225e+00	1.49167e+02
959	1.50271e+02	9.59000e+02	2.00230e+00	1.49833e+02
963	1.50957e+02	9.63000e+02	2.00205e+00	1.50500e+02
967	1.51634e+02	9.67000e+02	2.00181e+00	1.51167e+02
971	1.52309e+02	9.71000e+02	2.00175e+00	1.51833e+02
975	1.52977e+02	9.75000e+02	2.00187e+00	1.52500e+02
979	1.53652e+02	9.79000e+02	2.00198e+00	1.53167e+02
983	1.54345e+02	9.83000e+02	2.00192e+00	1.53833e+02
987	1.55006e+02	9.87000e+02	2.00157e+00	1.54500e+02
991	1.55685e+02	9.91000e+02	2.00115e+00	1.55167e+02
995	1.56356e+02	9.95000e+02	2.00105e+00	1.55833e+02
999	1.57041e+02	9.99000e+02	2.00114e+00	1.56500e+02
1003	1.57720e+02	1.00300e+03	2.00127e+00	1.57167e+02
1007	1.58401e+02	1.00700e+03	2.00153e+00	1.57833e+02
1011	1.59064e+02	1.01100e+03	2.00168e+00	1.58500e+02
1015	1.59755e+02	1.01500e+03	2.00152e+00	1.59167e+02
1019	1.60427e+02	1.01900e+03	2.00136e+00	1.59833e+02
1023	1.61112e+02	1.02300e+03	2.00128e+00	1.60500e+02
1027	1.61785e+02	1.02700e+03	2.00125e+00	1.61167e+02
1031	1.62469e+02	1.03100e+03	2.00129e+00	1.61833e+02
1035	1.63131e+02	1.03500e+03	2.00126e+00	1.62500e+02
1039	1.63817e+02	1.03900e+03	2.00115e+00	1.63167e+02
1043	1.64486e+02	1.04300e+03	2.00100e+00	1.63833e+02
1047	1.65175e+02	1.04700e+03	2.00087e+00	1.64500e+02
1051	1.65846e+02	1.05100e+03	2.00082e+00	1.65167e+02
1055	1.66520e+02	1.05500e+03	2.00080e+00	1.65833e+02
1059	1.67193e+02	1.05900e+03	2.00068e+00	1.66500e+02
1063	1.67872e+02	1.06300e+03	2.00050e+00	1.67167e+02
1067	1.68541e+02	1.06700e+03	2.00047e+00	1.67833e+02
1071	1.69219e+02	1.07100e+03	2.00045e+00	1.68500e+02
1075	1.69892e+02	1.07500e+03	2.00028e+00	1.69167e+02
1079	1.70568e+02	1.07900e+03	2.00010e+00	1.69833e+02
1083	1.71245e+02	1.08300e+03	2.00011e+00	1.70500e+02
1087	1.71931e+02	1.08700e+03	2.00019e+00	1.71167e+02
1091	1.72600e+02	1.09100e+03	2.00011e+00	1.71833e+02
1095	1.73263e+02	1.09500e+03	1.99985e+00	1.72500e+02
1099	1.73948e+02	1.09900e+03	1.99968e+00	1.73167e+02
1103	1.74624e+02	1.10300e+03	1.99972e+00	1.73833e+02
1107	1.75302e+02	1.10700e+03	1.99970e+00	1.74500e+02
1111	1.75981e+02	1.11100e+03	1.99948e+00	1.75167e+02
1115	1.76671e+02	1.11500e+03	1.99922e+00	1.75833e+02
1119	1.77329e+02	1.11900e+03	1.99908e+00	1.76500e+02
1123	1.78019e+02	1.12300e+03	1.99907e+00	1.77167e+02
1127	1.78690e+02	1.12700e+03	1.99898e+00	1.77833e+02
1131	1.79376e+02	1.13100e+03	1.99879e+00	1.78500e+02
1135	1.80048e+02	1.13500e+03	1.99870e+00	1.79167e+02
1139	1.80713e+02	1.13900e+03	1.99854e+00	1.79833e+02
1143	1.81394e+02	1.14300e+03	1.99814e+00	1.80500e+02
1147	1.82079e+02	1.14700e+03	1.99773e+00	1.81167e+02
1151	1.82759e+02	1.15100e+03	1.99748e+00	1.81833e+02
1155	1.83430e+02	1.15500e+03	1.99719e+00	1.82500e+02
1159	1.84116e+02	1.15900e+03	1.99677e+00	1.83167e+02
1163	1.84764e+02	1.16300e+03	1.99630e+00	1.83833e+02
1167	1.85455e+02	1.16700e+03	1.99584e+00	1.84500e+02
1171	1.86128e+02	1.17100e+03	1.99547e+00	1.85167e+02
1175	1.86790e+02	1.17500e+03	1.99518e+00	1.85833e+02
1179	1.87465e+02	1.17900e+03	1.99489e+00	1.86500e+02
1183	1.88133e+02	1.18300e+03	1.99455e+00	1.87167e+02
1187	1.88802e+02	1.18700e+03	1.99414e+00	1.87833e+02
1191	1.89474e+02	1.19100e+03	1.99370e+00	1.88500e+02
1195	1.90147e+02	1.19500e+03	1.99332e+00	1.89167e+02
1199	1.90823e+02	1.19900e+03	1.99308e+00	1.89833e+02
1203	1.91495e+02	1.20300e+03	1.99296e+00	1.90500e+02
1207	1.92180e+02	1.20700e+03	1.99278e+00	1.91167e+02
1211	1.92863e+02	1.21100e+03	1.99238e+00	1.91833e+02
1215	1.93539e+02	1.21500e+03	1.99163e+00	1.92500e+02
1219	1.94222e+02	1.21900e+03	1.99065e+00	1.93167e+02
1223	1.94886e+02	1.22300e+03	1.98987e+00	1.93833e+02
1227	1.95543e+02	1.22700e+03	1.98943e+00	1.94500e+02
1231	1.96228e+02	1.23100e+03	1.98902e+00	1.95167e+02
1235	1.96894e+02	1.23500e+03	1.98854e+00	1.95833e+02
1239	1.97581e+02	1.23900e+03	1.98828e+00	1.96500e+02
1243	1.98244e+02	1.24300e+03	1.98814e+00	1.97167e+02
1247	1.98916e+02	1.24700e+03	1.98767e+00	1.97833e+02
1251	1.99601e+02	1.25100e+03	1.98700e+00	1.98500e+02
1255	2.00269e+02	1.25500e+03	1.98639e+00	1.99167e+02
1259	2.00958e+02	1.25900e+03	1.98578e+00	1.99833e+02
1263	2.01621e+02	1.26300e+03	1.98521e+00	2.00500e+02
1267	2.02309e+02	1.26700e+03	1.98472e+00	2.01167e+02
1271	2.02999e+02	1.27100e+03	1.98428e+00	2.01833e+02
1275	2.03671e+02	1.27500e+03	1.98380e+00	2.02500e+02
1279	2.04362e+02	1.27900e+03	1.98320e+00	2.03167e+02
1283	2.05046e+02	1.28300e+03	1.98256e+00	2.03833e+02
1287	2.05752e+02	1.28700e+03	1.98202e+00	2.04500e+02
1291	2.06427e+02	1.29100e+03	1.98151e+00	2.05167e+02
1295	2.07119e+02	1.29500e+03	1.98099e+00	2.05833e+02
1299	2.07806e+02	1.29900e+03	1.98051e+00	2.06500e+02
1303	2.08500e+02	1.30300e+03	1.98001e+00	2.07167e+02
1307	2.09182e+02	1.30700e+03	1.97948e+00	2.07833e+02
1311	2.09859e+02	1.31100e+03	1.97887e+00	2.08500e+02
1315	2.10561e+02	1.31500e+03	1.97823e+00	2.09167e+02
1319	2.11213e+02	1.31900e+03	1.97797e+00	2.09833e+02
1323	2.11897e+02	1.32300e+03	1.97793e+00	2.10500e+02
1327	2.12574e+02	1.32700e+03	1.97746e+00	2.11167e+02
1331	2.13227e+02	1.33100e+03	1.97663e+00	2.11833e+02
1335	2.13902e+02	1.33500e+03	1.97594e+00	2.12500e+02
1339	2.14580e+02	1.33900e+03	1.97533e+00	2.13167e+02
1343	2.15258e+02	1.34300e+03	1.97485e+00	2.13833e+02
1347	2.15907e+02	1.34700e+03	1.97455e+00	2.14500e+02
1351	2.16566e+02	1.35100e+03	1.97409e+00	2.15167e+02
1355	2.17254e+02	1.35500e+03	1.97343e+00	2.15833e+02
1359	2.17924e+02	1.35900e+03	1.97271e+00	2.16500e+02
1363	2.18590e+02	1.36300e+03	1.97216e+00	2.17167e+02
1367	2.19269e+02	1.36700e+03	1.97175e+00	2.17833e+02
1371	2.19931e+02	1.37100e+03	1.97121e+00	2.18500e+02
1375	2.20604e+02	1.37500e+03	1.97043e+00	2.19167e+02
1379	2.21259e+02	1.37900e+03	1.96951e+00	2.19833e+02
1383	2.21952e+02	1.38300e+03	1.96883e+00	2.20500e+02
1387	2.22613e+02	1.38700e+03	1.96860e+00	2.21167e+02
1391	2.23289e+02	1.39100e+03	1.96843e+00	2.21833e+02
1395	2.23963e+02	1.39500e+03	1.96795e+00	2.22500e+02
1399	2.24653e+02	1.39900e+03	1.96718e+00	2.23167e+02
1403	2.25326e+02	1.40300e+03	1.96638e+00	2.23833e+02
1407	2.25995e+02	1.40700e+03	1.96579e+00	2.24500e+02
1411	2.26663e+02	1.41100e+03	1.96525e+00	2.25167e+02
1415	2.27333e+02	1.41500e+03	1.96461e+00	2.25833e+02
1419	2.28007e+02	1.41900e+03	1.96399e+00	2.26500e+02
1423	2.28676e+02	1.42300e+03	1.96349e+00	2.27167e+02
1427	2.29356e+02	1.42700e+03	1.96298e+00	2.27833e+02
1431	2.30029e+02	1.43100e+03	1.96237e+00	2.28500e+02
1435	2.30706e+02	1.43500e+03	1.96174e+00	2.29167e+02
1439	2.31367e+02	1.43900e+03	1.96122e+00	2.29833e+02
1443	2.32038e+02	1.44300e+03	1.96068e+00	2.30500e+02
1447	2.32712e+02	1.44700e+03	1.95990e+00	2.31167e+02
1451	2.33374e+02	1.45100e+03	1.95919e+00	2.31833e+02
1455	2.34041e+02	1.45500e+03	1.95871e+00	2.32500e+02
1459	2.34720e+02	1.45900e+03	1.95808e+00	2.33167e+02
1463	2.35387e+02	1.46300e+03	1.95745e+00	2.33833e+02
1467	2.36043e+02	1.46700e+03	1.95706e+00	2.34500e+02
1471	2.36714e+02	1.47100e+03	1.95671e+00	2.35167e+02
1475	2.37387e+02	1.47500e+03	1.95614e+00	2.35833e+02
1479	2.38050e+02	1.47900e+03	1.95545e+00	2.36500e+02
1483	2.38711e+02	1.48300e+03	1.95476e+00	2.37167e+02
1487	2.39377e+02	1.48700e+03	1.95404e+00	2.37833e+02
1491	2.40048e+02	1.49100e+03	1.95339e+00	2.38500e+02
1495	2.40728e+02	1.49500e+03	1.95284e+00	2.39167e+02
1499	2.41382e+02	1.49900e+03	1.95230e+00	2.39833e+02
1503	2.42041e+02	1.50300e+03	1.95170e+00	2.40500e+02
1507	2.42716e+02	1.50700e+03	1.95098e+00	2.41167e+02
1511	2.43391e+02	1.51100e+03	1.95035e+00	2.41833e+02
1515	2.44048e+02	1.51500e+03	1.94986e+00	2.42500e+02
1519	2.44716e+02	1.51900e+03	1.94935e+00	2.43167e+02
1523	2.45397e+02	1.52300e+03	1.94889e+00	2.43833e+02
1527	2.46057e+02	1.52700e+03	1.94849e+00	2.44500e+02
1531	2.46723e+02	1.53100e+03	1.94783e+00	2.45167e+02
1535	2.47404e+02	1.53500e+03	1.94705e+00	2.45833e+02
1539	2.48065e+02	1.53900e+03	1.94635e+00	2.46500e+02
1543	2.48738e+02	1.54300e+03	1.94563e+00	2.47167e+02
1547	2.49397e+02	1.54700e+03	1.94496e+00	2.47833e+02
1551	2.50067e+02	1.55100e+03	1.94440e+00	2.48500e+02
1555	2.50746e+02	1.55500e+03	1.94387e+00	2.49167e+02
1559	2.51393e+02	1.55900e+03	1.94330e+00	2.49833e+02
1563	2.52067e+02	1.56300e+03	1.94271e+00	2.50500e+02
1567	2.52741e+02	1.56700e+03	1.94217e+00	2.51167e+02
1571	2.53405e+02	1.57100e+03	1.94161e+00	2.51833e+02
1575	2.54082e+02	1.57500e+03	1.94090e+00	2.52500e+02
1579	2.54741e+02	1.57900e+03	1.94014e+00	2.53167e+02
1583	2.55406e+02	1.58300e+03	1.93943e+00	2.53833e+02
1587	2.56077e+02	1.58700e+03	1.93875e+00	2.54500e+02
1591	2.56735e+02	1.59100e+03	1.93834e+00	2.55167e+02
1595	2.57384e+02	1.59500e+03	1.93820e+00	2.55833e+02
1599	2.58045e+02	1.59900e+03	1.93775e+00	2.56500e+02
1603	2.58722e+02	1.60300e+03	1.93691e+00	2.57167e+02
1607	2.59369e+02	1.60700e+03	1.93618e+00	2.57833e+02
1611	2.60048e+02	1.61100e+03	1.93560e+00	2.58500e+02
1615	2.60692e+02	1.61500e+03	1.93498e+00	2.59167e+02
1619	2.61366e+02	1.61900e+03	1.93446e+00	2.59833e+02
1623	2.62039e+02	1.62300e+03	1.93398e+00	2.60500e+02
1627	2.62696e+02	1.62700e+03	1.93339e+00	2.61167e+02
1631	2.63367e+02	1.63100e+03	1.93276e+00	2.61833e+02
1635	2.64030e+02	1.63500e+03	1.93210e+00	2.62500e+02
1639	2.64694e+02	1.63900e+03	1.93148e+00	2.63167e+02
1643	2.65349e+02	1.64300e+03	1.93104e+00	2.63833e+02
1647	2.66018e+02	1.64700e+03	1.93045e+00	2.64500e+02
1651	2.66679e+02	1.65100e+03	1.92959e+00	2.65167e+02
1655	2.67357e+02	1.65500e+03	1.92884e+00	2.65833e+02
1659	2.68012e+02	1.65900e+03	1.92827e+00	2.66500e+02
1663	2.68687e+02	1.66300e+03	1.92769e+00	2.67167e+02
1667	2.69356e+02	1.66700e+03	1.92694e+00	2.67833e+02
1671	2.70015e+02	1.67100e+03	1.92612e+00	2.68500e+02
1675	2.70680e+02	1.67500e+03	1.92551e+00	2.69167e+02
1679	2.71351e+02	1.67900e+03	1.92504e+00	2.69833e+02
1683	2.72020e+02	1.68300e+03	1.92454e+00	2.70500e+02
1687	2.72685e+02	1.68700e+03	1.92397e+00	2.71167e+02
1691	2.73362e+02	1.69100e+03	1.92329e+00	2.71833e+02
1695	2.74024e+02	1.69500e+03	1.92258e+00	2.72500e+02
1699	2.74704e+02	1.69900e+03	1.92190e+00	2.73167e+02
1703	2.75366e+02	1.70300e+03	1.92126e+00	2.73833e+02
1707	2.76026e+02	1.70700e+03	1.92060e+00	2.74500e+02
1711	2.76696e+02	1.71100e+03	1.91980e+00	2.75167e+02
1715	2.77370e+02	1.71500e+03	1.91881e+00	2.75833e+02
1719	2.78026e+02	1.71900e+03	1.91782e+00	2.76500e+02
1723	2.78699e+02	1.72300e+03	1.91705e+00	2.77167e+02
1727	2.79363e+02	1.72700e+03	1.91641e+00	2.77833e+02
1731	2.80030e+02	1.73100e+03	1.91571e+00	2.78500e+02
1735	2.80705e+02	1.73500e+03	1.91495e+00	2.79167e+02
1739	2.81365e+02	1.73900e+03	1.91418e+00	2.79833e+02
1743	2.82045e+02	1.74300e+03	1.91333e+00	2.80500e+02
1747	2.82738e+02	1.74700e+03	1.91249e+00	2.81167e+02
1751	2.83415e+02	1.75100e+03	1.91169e+00	2.81833e+02
1755	2.84079e+02	1.75500e+03	1.91080e+00	2.82500e+02
1759	2.84751e+02	1.75900e+03	1.90980e+00	2.83167e+02
1763	2.85418e+02	1.76300e+03	1.90870e+00	2.83833e+02
1767	2.86082e+02	1.76700e+03	1.90764e+00	2.84500e+02
1771	2.86757e+02	1.77100e+03	1.90673e+00	2.85167e+02
1775	2.87426e+02	1.77500e+03	1.90587e+00	2.85833e+02
1779	2.88080e+02	1.77900e+03	1.90490e+00	2.86500e+02
1783	2.88759e+02	1.78300e+03	1.90369e+00	2.87167e+02
1787	2.89414e+02	1.78700e+03	1.90238e+00	2.87833e+02
1791	2.90084e+02	1.79100e+03	1.90116e+00	2.88500e+02
1795	2.90776e+02	1.79500e+03	1.90004e+00	2.89167e+02
1799	2.91448e+02	1.79900e+03	1.89886e+00	2.89833e+02
1803	2.92114e+02	1.80300e+03	1.89768e+00	2.90500e+02
1807	2.92779e+02	1.80700e+03	1.89647e+00	2.91167e+02
1811	2.93442e+02	1.81100e+03	1.89504e+00	2.91833e+02
1815	2.94100e+02	1.81500e+03	1.89355e+00	2.92500e+02
1819	2.94766e+02	1.81900e+03	1.89232e+00	2.93167e+02
1823	2.95428e+02	1.82300e+03	1.89115e+00	2.93833e+02
1827	2.96095e+02	1.82700e+03	1.88964e+00	2.94500e+02
1831	2.96755e+02	1.83100e+03	1.88803e+00	2.95167e+02
1835	2.97418e+02	1.83500e+03	1.88658e+00	2.95833e+02
1839	2.98075e+02	1.83900e+03	1.88507e+00	2.96500e+02
1843	2.98729e+02	1.84300e+03	1.88331e+00	2.97167e+02
1847	2.99381e+02	1.84700e+03	1.88142e+00	2.97833e+02
1851	3.00049e+02	1.85100e+03	1.87964e+00	2.98500e+02
1855	3.00689e+02	1.85500e+03	1.87802e+00	2.99167e+02
1859	3.01339e+02	1.85900e+03	1.87631e+00	2.99833e+02
1863	3.01974e+02	1.86300e+03	1.87423e+00	3.00500e+02
1867	3.02610e+02	1.86700e+03	1.87185e+00	3.01167e+02
1871	3.03249e+02	1.87100e+03	1.86940e+00	3.01833e+02
1875	3.03909e+02	1.87500e+03	1.86694e+00	3.02500e+02
1879	3.04551e+02	1.87900e+03	1.86453e+00	3.03167e+02
1883	3.05191e+02	1.88300e+03	1.86219e+00	3.03833e+02
1887	3.05832e+02	1.88700e+03	1.85991e+00	3.04500e+02
1891	3.06491e+02	1.89100e+03	1.85776e+00	3.05167e+02
1895	3.07125e+02	1.89500e+03	1.85563e+00	3.05833e+02
1899	3.07776e+02	1.89900e+03	1.85356e+00	3.06500e+02
1903	3.08426e+02	1.90300e+03	1.85179e+00	3.07167e+02
1907	3.09089e+02	1.90700e+03	1.84989e+00	3.07833e+02
1911	3.09753e+02	1.91100e+03	1.84751e+00	3.08500e+02
1915	3.10417e+02	1.91500e+03	1.84528e+00	3.09167e+02
1919	3.11074e+02	1.91900e+03	1.84348e+00	3.09833e+02
1923	3.11732e+02	1.92300e+03	1.84160e+00	3.10500e+02
1927	3.12406e+02	1.92700e+03	1.83953e+00	3.11167e+02
1931	3.13059e+02	1.93100e+03	1.83749e+00	3.11833e+02
1935	3.13737e+02	1.93500e+03	1.83563e+00	3.12500e+02
1939	3.14393e+02	1.93900e+03	1.83378e+00	3.13167e+02
1943	3.15053e+02	1.94300e+03	1.83169e+00	3.13833e+02
1947	3.15720e+02	1.94700e+03	1.82955e+00	3.14500e+02
1951	3.16392e+02	1.95100e+03	1.82755e+00	3.15167e+02
1955	3.17049e+02	1.95500e+03	1.82552e+00	3.15833e+02
1959	3.17715e+02	1.95900e+03	1.82324e+00	3.16500e+02
1963	3.18377e+02	1.96300e+03	1.82082e+00	3.17167e+02
1967	3.19053e+02	1.96700e+03	1.81856e+00	3.17833e+02
1971	3.19715e+02	1.97100e+03	1.81641e+00	3.18500e+02
1975	3.20382e+02	1.97500e+03	1.81408e+00	3.19167e+02
1979	3.21047e+02	1.97900e+03	1.81140e+00	3.19833e+02
1983	3.21715e+02	1.98300e+03	1.80845e+00	3.20500e+02
1987	3.22389e+02	1.98700e+03	1.80549e+00	3.21167e+02
1991	3.23059e+02	1.99100e+03	1.80281e+00	3.21833e+02
1995	3.23732e+02	1.99500e+03	1.80022e+00	3.22500e+02
1999	3.24390e+02	1.99900e+03	1.79741e+00	3.23167e+02
2003	3.25065e+02	2.00300e+03	1.79433e+00	3.23833e+02
2007	3.25731e+02	2.00700e+03	1.79112e+00	3.24500e+02
2011	3.26391e+02	2.01100e+03	1.78782e+00	3.25167e+02
2015	3.27064e+02	2.01500e+03	1.78444e+00	3.25833e+02
2019	3.27720e+02	2.01900e+03	1.78100e+00	3.26500e+02
2023	3.28382e+02	2.02300e+03	1.77716e+00	3.27167e+02
2027	3.29052e+02	2.02700e+03	1.77304e+00	3.27833e+02
2031	3.29718e+02	2.03100e+03	1.76901e+00	3.28500e+02
2035	3.30376e+02	2.03500e+03	1.76488e+00	3.29167e+02
2039	3.31040e+02	2.03900e+03	1.76053e+00	3.29833e+02
2043	3.31689e+02	2.04300e+03	1.75629e+00	3.30500e+02
2047	3.32356e+02	2.04700e+03	1.75194e+00	3.31167e+02
2051	3.33007e+02	2.05100e+03	1.74683e+00	3.31833e+02
2055	3.33678e+02	2.05500e+03	1.74113e+00	3.32500e+02
2059	3.34335e+02	2.05900e+03	1.73566e+00	3.33167e+02
2063	3.35006e+02	2.06300e+03	1.73064e+00	3.33833e+02
2067	3.35664e+02	2.06700e+03	1.72533e+00	3.34500e+02
2071	3.36335e+02	2.07100e+03	1.71923e+00	3.35167e+02
2075	3.37002e+02	2.07500e+03	1.71256e+00	3.35833e+02
2079	3.37662e+02	2.07900e+03	1.70570e+00	3.36500e+02
2083	3.38327e+02	2.08300e+03	1.69876e+00	3.37167e+02
2087	3.38972e+02	2.08700e+03	1.69159e+00	3.37833e+02
2091	3.39642e+02	2.09100e+03	1.68415e+00	3.38500e+02
2095	3.40308e+02	2.09500e+03	1.67639e+00	3.39167e+02
2099	3.40985e+02	2.09900e+03	1.66818e+00	3.39833e+02
2103	3.41642e+02	2.10300e+03	1.65954e+00	3.40500e+02
2107	3.42306e+02	2.10700e+03	1.65044e+00	3.41167e+02
2111	3.42961e+02	2.11100e+03	1.64082e+00	3.41833e+02
2115	3.43627e+02	2.11500e+03	1.63079e+00	3.42500e+02
2119	3.44308e+02	2.11900e+03	1.62048e+00	3.43167e+02
2123	3.44958e+02	2.12300e+03	1.60990e+00	3.43833e+02
2127	3.45625e+02	2.12700e+03	1.59872e+00	3.44500e+02
2131	3.46303e+02	2.13100e+03	1.58704e+00	3.45167e+02
2135	3.46984e+02	2.13500e+03	1.57534e+00	3.45833e+02
2139	3.47638e+02	2.13900e+03	1.56346e+00	3.46500e+02
2143	3.48301e+02	2.14300e+03	1.55068e+00	3.47167e+02
2147	3.48957e+02	2.14700e+03	1.53683e+00	3.47833e+02
2151	3.49630e+02	2.15100e+03	1.52230e+00	3.48500e+02
2155	3.50336e+02	2.15500e+03	1.50738e+00	3.49167e+02
2159	3.51027e+02	2.15900e+03	1.49206e+00	3.49833e+02
2163	3.51697e+02	2.16300e+03	1.47602e+00	3.50500e+02
2167	3.52378e+02	2.16700e+03	1.45915e+00	3.51167e+02
2171	3.53054e+02	2.17100e+03	1.44161e+00	3.51833e+02
2175	3.53743e+02	2.17500e+03	1.42359e+00	3.52500e+02
2179	3.54425e+02	2.17900e+03	1.40517e+00	3.53167e+02
2183	3.55099e+02	2.18300e+03	1.38639e+00	3.53833e+02
2187	3.55794e+02	2.18700e+03	1.36728e+00	3.54500e+02
2191	3.56530e+02	2.19100e+03	1.34783e+00	3.55167e+02
2195	3.57205e+02	2.19500e+03	1.32794e+00	3.55833e+02
2199	3.57865e+02	2.19900e+03	1.30750e+00	3.56500e+02
2203	3.58516e+02	2.20300e+03	1.28648e+00	3.57167e+02
2207	3.59164e+02	2.20700e+03	1.26490e+00	3.57833e+02
2211	3.59819e+02	2.21100e+03	1.24279e+00	3.58500e+02
2215	3.60480e+02	2.21500e+03	1.22034e+00	3.59167e+02
2219	3.61158e+02	2.21900e+03	1.19774e+00	3.59833e+02
2223	3.61805e+02	2.22300e+03	1.17496e+00	3.60500e+02
2227	3.62472e+02	2.22700e+03	1.15174e+00	3.61167e+02
2231	3.63122e+02	2.23100e+03	1.12784e+00	3.61833e+02
2235	3.63786e+02	2.23500e+03	1.10338e+00	3.62500e+02
2239	3.64437e+02	2.23900e+03	1.07866e+00	3.63167e+02
2243	3.65098e+02	2.24300e+03	1.05382e+00	3.63833e+02
2247	3.65767e+02	2.24700e+03	1.02857e+00	3.64500e+02
2251	3.66438e+02	2.25100e+03	1.00276e+00	3.65167e+02
2255	3.67094e+02	2.25500e+03	9.76725e-01	3.65833e+02
2259	3.67759e+02	2.25900e+03	9.50858e-01	3.66500e+02
2263	3.68422e+02	2.26300e+03	9.25095e-01	3.67167e+02
2267	3.69086e+02	2.26700e+03	8.99111e-01	3.67833e+02
2271	3.69747e+02	2.27100e+03	8.73145e-01	3.68500e+02
2275	3.70423e+02	2.27500e+03	8.47133e-01	3.69167e+02
2279	3.71111e+02	2.27900e+03	8.20525e-01	3.69833e+02
2283	3.71774e+02	2.28300e+03	7.93384e-01	3.70500e+02
2287	3.72406e+02	2.28700e+03	7.66198e-01	3.71167e+02
2291	3.73069e+02	2.29100e+03	7.39162e-01	3.71833e+02
2295	3.73751e+02	2.29500e+03	7.12236e-01	3.72500e+02
2299	3.74419e+02	2.29900e+03	6.85533e-01	3.73167e+02
2303	3.75071e+02	2.30300e+03	6.59060e-01	3.73833e+02
2307	3.75725e+02	2.30700e+03	6.32709e-01	3.74500e+02
2311	3.76417e+02	2.31100e+03	6.06702e-01	3.75167e+02
2315	3.77090e+02	2.31500e+03	5.81192e-01	3.75833e+02
2319	3.77770e+02	2.31900e+03	5.56228e-01	3.76500e+02
2323	3.78446e+02	2.32300e+03	5.31607e-01	3.77167e+02
2327	3.79106e+02	2.32700e+03	5.07109e-01	3.77833e+02
2331	3.79774e+02	2.33100e+03	4.83092e-01	3.78500e+02
2335	3.80461e+02	2.33500e+03	4.59710e-01	3.79167e+02
2339	3.81162e+02	2.33900e+03	4.36768e-01	3.79833e+02
2343	3.81863e+02	2.34300e+03	4.14370e-01	3.80500e+02
2347	3.82558e+02	2.34700e+03	3.92635e-01	3.81167e+02
2351	3.83285e+02	2.35100e+03	3.71664e-01	3.81833e+02
2355	3.84042e+02	2.35500e+03	3.51610e-01	3.82500e+02
2359	3.84760e+02	2.35900e+03	3.32127e-01	3.83167e+02
2363	3.85419e+02	2.36300e+03	3.13085e-01	3.83833e+02
2367	3.86078e+02	2.36700e+03	2.94708e-01	3.84500e+02
2371	3.86764e+02	2.37100e+03	2.77304e-01	3.85167e+02
2375	3.87448e+02	2.37500e+03	2.61101e-01	3.85833e+02
2379	3.88117e+02	2.37900e+03	2.45461e-01	3.86500e+02
2383	3.88799e+02	2.38300e+03	2.30107e-01	3.87167e+02
2387	3.89481e+02	2.38700e+03	2.15622e-01	3.87833e+02
2391	3.90151e+02	2.39100e+03	2.01966e-01	3.88500e+02
2395	3.90815e+02	2.39500e+03	1.88843e-01	3.89167e+02
2399	3.91490e+02	2.39900e+03	1.76368e-01	3.89833e+02
2403	3.92172e+02	2.40300e+03	1.64657e-01	3.90500e+02
2407	3.92851e+02	2.40700e+03	1.53661e-01	3.91167e+02
2411	3.93531e+02	2.41100e+03	1.43276e-01	3.91833e+02
2415	3.94206e+02	2.41500e+03	1.33446e-01	3.92500e+02
2419	3.94907e+02	2.41900e+03	1.24190e-01	3.93167e+02
2423	3.95581e+02	2.42300e+03	1.15535e-01	3.93833e+02
2427	3.96262e+02	2.42700e+03	1.07429e-01	3.94500e+02
2431	3.96924e+02	2.43100e+03	9.97506e-02	3.95167e+02
2435	3.97621e+02	2.43500e+03	9.25035e-02	3.95833e+02
2439	3.98302e+02	2.43900e+03	8.58281e-02	3.96500e+02
2443	3.98973e+02	2.44300e+03	7.97436e-02	3.97167e+02
2447	3.99626e+02	2.44700e+03	7.40882e-02	3.97833e+02
2451	4.00314e+02	2.45100e+03	6.87438e-02	3.98500e+02
2455	4.00983e+02	2.45500e+03	6.37285e-02	3.99167e+02
2459	4.01650e+02	2.45900e+03	5.90740e-02	3.99833e+02
2463	4.02333e+02	2.46300e+03	5.47742e-02	4.00500e+02
2467	4.02998e+02	2.46700e+03	5.06692e-02	4.01167e+02
2471	4.03664e+02	2.47100e+03	4.68424e-02	4.01833e+02
2475	4.04336e+02	2.47500e+03	4.35583e-02	4.02500e+02
2479	4.04994e+02	2.47900e+03	4.05535e-02	4.03167e+02
2483	4.05669e+02	2.48300e+03	3.75382e-02	4.03833e+02
2487	4.06341e+02	2.48700e+03	3.46196e-02	4.04500e+02
2491	4.07010e+02	2.49100e+03	3.19437e-02	4.05167e+02
2495	4.07668e+02	2.49500e+03	2.94804e-02	4.05833e+02
2499	4.08331e+02	2.49900e+03	2.70893e-02	4.06500e+02
2503	4.08981e+02	2.50300e+03	2.49093e-02	4.07167e+02
2507	4.09629e+02	2.50700e+03	2.31146e-02	4.07833e+02
2511	4.10282e+02	2.51100e+03	2.14951e-02	4.08500e+02
2515	4.10947e+02	2.51500e+03	1.98788e-02	4.09167e+02
2519	4.11595e+02	2.51900e+03	1.82952e-02	4.09833e+02
2523	4.12251e+02	2.52300e+03	1.67769e-02	4.10500e+02
2527	4.12906e+02	2.52700e+03	1.53774e-02	4.11167e+02
2531	4.13550e+02	2.53100e+03	1.40884e-02	4.11833e+02
2535	4.14191e+02	2.53500e+03	1.28596e-02	4.12500e+02
2539	4.14835e+02	2.53900e+03	1.16731e-02	4.13167e+02
2543	4.15497e+02	2.54300e+03	1.05378e-02	4.13833e+02
2547	4.16152e+02	2.54700e+03	9.53335e-03	4.14500e+02
2551	4.16820e+02	2.55100e+03	8.68891e-03	4.15167e+02
2555	4.17472e+02	2.55500e+03	7.89157e-03	4.15833e+02
2559	4.18132e+02	2.55900e+03	7.02538e-03	4.16500e+02
2563	4.18791e+02	2.56300e+03	6.14685e-03	4.17167e+02
2567	4.19441e+02	2.56700e+03	5.34853e-03	4.17833e+02
2571	4.20099e+02	2.57100e+03	4.61939e-03	4.18500e+02
2575	4.20760e+02	2.57500e+03	3.98136e-03	4.19167e+02
2579	4.21418e+02	2.57900e+03	3.49457e-03	4.19833e+02
2583	4.22081e+02	2.58300e+03	3.05525e-03	4.20500e+02
2587	4.22742e+02	2.58700e+03	2.52418e-03	4.21167e+02
2591	4.23396e+02	2.59100e+03	1.88780e-03	4.21833e+02
2595	4.24044e+02	2.59500e+03	1.08348e-03	4.22500e+02
2599	4.24715e+02	2.59900e+03	2.54626e-04	4.23167e+02
2603	4.25380e+02	2.60300e+03	-3.27700e-04	4.23833e+02
2607	4.26033e+02	2.60700e+03	-7.33451e-04	4.24500e+02
2611	4.26679e+02	2.61100e+03	-1.14256e-03	4.25167e+02
2615	4.27334e+02	2.61500e+03	-1.53126e-03	4.25833e+02
2619	4.27988e+02	2.61900e+03	-1.85391e-03	4.26500e+02
2623	4.28632e+02	2.62300e+03	-2.11205e-03	4.27167e+02
2627	4.29279e+02	2.62700e+03	-2.32775e-03	4.27833e+02
2631	4.29923e+02	2.63100e+03	-2.56306e-03	4.28500e+02
2635	4.30571e+02	2.63500e+03	-2.81400e-03	4.29167e+02
2639	4.31221e+02	2.63900e+03	-3.04577e-03	4.29833e+02
2643	4.31857e+02	2.64300e+03	-3.39607e-03	4.30500e+02
2647	4.32513e+02	2.64700e+03	-3.90395e-03	4.31167e+02
2651	4.33148e+02	2.65100e+03	-4.28550e-03	4.31833e+02
2655	4.33785e+02	2.65500e+03	-4.53415e-03	4.32500e+02
2659	4.34436e+02	2.65900e+03	-4.87708e-03	4.33167e+02
2663	4.35079e+02	2.66300e+03	-5.09728e-03	4.33833e+02
2667	4.35728e+02	2.66700e+03	-4.98253e-03	4.34500e+02
2671	4.36380e+02	2.67100e+03	-4.85611e-03	4.35167e+02
2675	4.37032e+02	2.67500e+03	-4.95961e-03	4.35833e+02
2679	4.37689e+02	2.67900e+03	-5.14026e-03	4.36500e+02
2683	4.38334e+02	2.68300e+03	-5.26141e-03	4.37167e+02
2687	4.38996e+02	2.68700e+03	-5.32282e-03	4.37833e+02
2691	4.39645e+02	2.69100e+03	-5.33954e-03	4.38500e+02
2695	4.40291e+02	2.69500e+03	-5.45513e-03	4.39167e+02
2699	4.40955e+02	2.69900e+03	-5.65417e-03	4.39833e+02
2703	4.41612e+02	2.70300e+03	-5.66213e-03	4.40500e+02
2707	4.42268e+02	2.70700e+03	-5.57392e-03	4.41167e+02
2711	4.42932e+02	2.71100e+03	-5.60311e-03	4.41833e+02
2715	4.43594e+02	2.71500e+03	-5.72160e-03	4.42500e+02
2719	4.44259e+02	2.71900e+03	-5.76565e-03	4.43167e+02
2723	4.44928e+02	2.72300e+03	-5.71826e-03	4.43833e+02
2727	4.45580e+02	2.72700e+03	-5.75902e-03	4.44500e+02
2731	4.46245e+02	2.73100e+03	-5.83865e-03	4.45167e+02
2735	4.46889e+02	2.73500e+03	-5.87063e-03	4.45833e+02
2739	4.47543e+02	2.73900e+03	-5.91729e-03	4.46500e+02
2743	4.48193e+02	2.74300e+03	-5.97707e-03	4.47167e+02
2747	4.48847e+02	2.74700e+03	-6.02580e-03	4.47833e+02
2751	4.49501e+02	2.75100e+03	-6.12591e-03	4.48500e+02
2755	4.50171e+02	2.75500e+03	-6.19767e-03	4.49167e+02
2759	4.50823e+02	2.75900e+03	-6.19878e-03	4.49833e+02
2763	4.51473e+02	2.76300e+03	-6.12066e-03	4.50500e+02
2767	4.52121e+02	2.76700e+03	-6.09635e-03	4.51167e+02
2771	4.52775e+02	2.77100e+03	-6.26589e-03	4.51833e+02
2775	4.53419e+02	2.77500e+03	-6.51029e-03	4.52500e+02
2779	4.54070e+02	2.77900e+03	-6.68879e-03	4.53167e+02
2783	4.54731e+02	2.78300e+03	-6.64897e-03	4.53833e+02
2787	4.55387e+02	2.78700e+03	-6.39821e-03	4.54500e+02
2791	4.56040e+02	2.79100e+03	-6.21327e-03	4.55167e+02
2795	4.56705e+02	2.79500e+03	-6.22647e-03	4.55833e+02
2799	4.57353e+02	2.79900e+03	-6.27547e-03	4.56500e+02
2803	4.58012e+02	2.80300e+03	-6.33824e-03	4.57167e+02
2807	4.58650e+02	2.80700e+03	-6.47925e-03	4.57833e+02
2811	4.59312e+02	2.81100e+03	-6.74271e-03	4.58500e+02
2815	4.59950e+02	2.81500e+03	-7.03204e-03	4.59167e+02
2819	4.60609e+02	2.81900e+03	-7.20127e-03	4.59833e+02
2823	4.61267e+02	2.82300e+03	-7.18973e-03	4.60500e+02
2827	4.61908e+02	2.82700e+03	-6.98383e-03	4.61167e+02
2831	4.62555e+02	2.83100e+03	-6.85224e-03	4.61833e+02
2835	4.63201e+02	2.83500e+03	-6.82704e-03	4.62500e+02
2839	4.63858e+02	2.83900e+03	-6.77395e-03	4.63167e+02
2843	4.64525e+02	2.84300e+03	-6.83923e-03	4.63833e+02
2847	4.65168e+02	2.84700e+03	-6.98997e-03	4.64500e+02
2851	4.65834e+02	2.85100e+03	-7.16955e-03	4.65167e+02
2855	4.66493e+02	2.85500e+03	-7.25029e-03	4.65833e+02
2859	4.67158e+02	2.85900e+03	-7.18726e-03	4.66500e+02
2863	4.67824e+02	2.86300e+03	-7.03215e-03	4.67167e+02
2867	4.68482e+02	2.86700e+03	-6.81560e-03	4.67833e+02
2871	4.69134e+02	2.87100e+03	-6.76903e-03	4.68500e+02
2875	4.69796e+02	2.87500e+03	-6.92718e-03	4.69167e+02
2879	4.70448e+02	2.87900e+03	-7.06190e-03	4.69833e+02
2883	4.71105e+02	2.88300e+03	-7.02609e-03	4.70500e+02
2887	4.71765e+02	2.88700e+03	-7.06021e-03	4.71167e+02
2891	4.72431e+02	2.89100e+03	-7.27264e-03	4.71833e+02
2895	4.73090e+02	2.89500e+03	-7.32126e-03	4.72500e+02
2899	4.73749e+02	2.89900e+03	-7.29385e-03	4.73167e+02
2903	4.74401e+02	2.90300e+03	-7.44136e-03	4.73833e+02
2907	4.75073e+02	2.90700e+03	-7.53859e-03	4.74500e+02
2911	4.75726e+02	2.91100e+03	-7.49381e-03	4.75167e+02
2915	4.76382e+02	2.91500e+03	-7.42062e-03	4.75833e+02
2919	4.77046e+02	2.91900e+03	-7.29618e-03	4.76500e+02
2923	4.77703e+02	2.92300e+03	-7.22825e-03	4.77167e+02
2927	4.78374e+02	2.92700e+03	-7.27319e-03	4.77833e+02
2931	4.79041e+02	2.93100e+03	-7.30729e-03	4.78500e+02
2935	4.79680e+02	2.93500e+03	-7.41166e-03	4.79167e+02
2939	4.80337e+02	2.93900e+03	-7.54329e-03	4.79833e+02
2943	4.80997e+02	2.94300e+03	-7.55973e-03	4.80500e+02
2947	4.81664e+02	2.94700e+03	-7.64047e-03	4.81167e+02
2951	4.82311e+02	2.95100e+03	-7.80614e-03	4.81833e+02
2955	4.82978e+02	2.95500e+03	-7.69843e-03	4.82500e+02
2959	4.83632e+02	2.95900e+03	-7.41770e-03	4.83167e+02
2963	4.84296e+02	2.96300e+03	-7.41662e-03	4.83833e+02
2967	4.84946e+02	2.96700e+03	-7.58113e-03	4.84500e+02
2971	4.85603e+02	2.97100e+03	-7.61256e-03	4.85167e+02
2975	4.86267e+02	2.97500e+03	-7.55774e-03	4.85833e+02
2979	4.86927e+02	2.97900e+03	-7.61274e-03	4.86500e+02
2983	4.87587e+02	2.98300e+03	-7.80990e-03	4.87167e+02
2987	4.88237e+02	2.98700e+03	-7.87399e-03	4.87833e+02
2991	4.88905e+02	2.99100e+03	-7.68300e-03	4.88500e+02
2995	4.89568e+02	2.99500e+03	-7.54729e-03	4.89167e+02
2999	4.90230e+02	2.99900e+03	-7.73316e-03	4.89833e+02
3003	4.90891e+02	3.00300e+03	-8.04557e-03	4.90500e+02
3007	4.91545e+02	3.00700e+03	-8.10319e-03	4.91167e+02
3011	4.92209e+02	3.01100e+03	-7.93730e-03	4.91833e+02
3015	4.92878e+02	3.01500e+03	-7.73923e-03	4.92500e+02
3019	4.93546e+02	3.01900e+03	-7.68613e-03	4.93167e+02
3023	4.94222e+02	3.02300e+03	-7.79822e-03	4.93833e+02
3027	4.94887e+02	3.02700e+03	-7.86189e-03	4.94500e+02
3031	4.95549e+02	3.03100e+03	-7.88337e-03	4.95167e+02
3035	4.96233e+02	3.03500e+03	-7.82031e-03	4.95833e+02
3039	4.96908e+02	3.03900e+03	-7.62372e-03	4.96500e+02
3043	4.97573e+02	3.04300e+03	-7.42598e-03	4.97167e+02
3047	4.98240e+02	3.04700e+03	-7.39165e-03	4.97833e+02
3051	4.98901e+02	3.05100e+03	-7.51260e-03	4.98500e+02
3055	4.99569e+02	3.05500e+03	-7.66702e-03	4.99167e+02
3059	5.00224e+02	3.05900e+03	-7.76834e-03	4.99833e+02
3063	5.00894e+02	3.06300e+03	-7.85328e-03	5.00500e+02
3067	5.01548e+02	3.06700e+03	-7.99774e-03	5.01167e+02
3071	5.02217e+02	3.07100e+03	-8.05372e-03	5.01833e+02
3075	5.02884e+02	3.07500e+03	-8.00088e-03	5.02500e+02
3079	5.03546e+02	3.07900e+03	-7.98022e-03	5.03167e+02
3083	5.04218e+02	3.08300e+03	-7.93827e-03	5.03833e+02
3087	5.04888e+02	3.08700e+03	-7.85119e-03	5.04500e+02
3091	5.05546e+02	3.09100e+03	-7.81472e-03	5.05167e+02
3095	5.06215e+02	3.09500e+03	-7.87167e-03	5.05833e+02
3099	5.06875e+02	3.09900e+03	-7.92735e-03	5.06500e+02
3103	5.07540e+02	3.10300e+03	-7.88753e-03	5.07167e+02
3107	5.08206e+02	3.10700e+03	-7.80517e-03	5.07833e+02
3111	5.08859e+02	3.11100e+03	-7.78004e-03	5.08500e+02
3115	5.09526e+02	3.11500e+03	-7.80131e-03	5.09167e+02
3119	5.10183e+02	3.11900e+03	-7.84942e-03	5.09833e+02
3123	5.10848e+02	3.12300e+03	-7.90611e-03	5.10500e+02
3127	5.11521e+02	3.12700e+03	-7.87223e-03	5.11167e+02
3131	5.12168e+02	3.13100e+03	-7.82300e-03	5.11833e+02
3135	5.12833e+02	3.13500e+03	-7.93478e-03	5.12500e+02
3139	5.13502e+02	3.13900e+03	-8.02619e-03	5.13167e+02
3143	5.14155e+02	3.14300e+03	-7.88301e-03	5.13833e+02
3147	5.14825e+02	3.14700e+03	-7.67955e-03	5.14500e+02
3151	5.15493e+02	3.15100e+03	-7.45622e-03	5.15167e+02
3155	5.16164e+02	3.15500e+03	-7.34719e-03	5.15833e+02
3159	5.16826e+02	3.15900e+03	-7.53161e-03	5.16500e+02
3163	5.17477e+02	3.16300e+03	-7.84470e-03	5.17167e+02
3167	5.18135e+02	3.16700e+03	-8.08803e-03	5.17833e+02
3171	5.18799e+02	3.17100e+03	-8.05563e-03	5.18500e+02
3175	5.19471e+02	3.17500e+03	-7.79714e-03	5.19167e+02
3179	5.20147e+02	3.17900e+03	-7.63303e-03	5.19833e+02
3183	5.20802e+02	3.18300e+03	-7.67806e-03	5.20500e+02
3187	5.21472e+02	3.18700e+03	-7.84652e-03	5.21167e+02
3191	5.22142e+02	3.19100e+03	-8.07747e-03	5.21833e+02
3195	5.22801e+02	3.19500e+03	-8.16822e-03	5.22500e+02
3199	5.23458e+02	3.19900e+03	-8.05855e-03	5.23167e+02
3203	5.24128e+02	3.20300e+03	-7.96647e-03	5.23833e+02
3207	5.24800e+02	3.20700e+03	-7.78241e-03	5.24500e+02
3211	5.25477e+02	3.21100e+03	-7.59616e-03	5.25167e+02
3215	5.26136e+02	3.21500e+03	-7.68088e-03	5.25833e+02
3219	5.26809e+02	3.21900e+03	-7.87170e-03	5.26500e+02
3223	5.27467e+02	3.22300e+03	-7.99957e-03	5.27167e+02
3227	5.28132e+02	3.22700e+03	-8.09695e-03	5.27833e+02
3231	5.28798e+02	3.23100e+03	-8.21427e-03	5.28500e+02
3235	5.29447e+02	3.23500e+03	-8.24152e-03	5.29167e+02
3239	5.30124e+02	3.23900e+03	-8.09234e-03	5.29833e+02
3243	5.30809e+02	3.24300e+03	-7.89893e-03	5.30500e+02
3247	5.31480e+02	3.24700e+03	-7.80168e-03	5.31167e+02
3251	5.32155e+02	3.25100e+03	-7.74409e-03	5.31833e+02
3255	5.32836e+02	3.25500e+03	-7.67158e-03	5.32500e+02
3259	5.33495e+02	3.25900e+03	-7.69805e-03	5.33167e+02
3263	5.34164e+02	3.26300e+03	-7.80992e-03	5.33833e+02
3267	5.34820e+02	3.26700e+03	-7.87424e-03	5.34500e+02
3271	5.35498e+02	3.27100e+03	-7.93513e-03	5.35167e+02
3275	5.36167e+02	3.27500e+03	-8.08083e-03	5.35833e+02
3279	5.36809e+02	3.27900e+03	-8.19112e-03	5.36500e+02
3283	5.37471e+02	3.28300e+03	-8.18927e-03	5.37167e+02
3287	5.38115e+02	3.28700e+03	-8.18364e-03	5.37833e+02
3291	5.38757e+02	3.29100e+03	-8.18573e-03	5.38500e+02
3295	5.39425e+02	3.29500e+03	-8.14376e-03	5.39167e+02
3299	5.40089e+02	3.29900e+03	-8.04257e-03	5.39833e+02
3303	5.40750e+02	3.30300e+03	-7.87933e-03	5.40500e+02
3307	5.41418e+02	3.30700e+03	-7.79216e-03	5.41167e+02
3311	5.42091e+02	3.31100e+03	-7.87546e-03	5.41833e+02
3315	5.42763e+02	3.31500e+03	-8.09209e-03	5.42500e+02
3319	5.43437e+02	3.31900e+03	-8.33503e-03	5.43167e+02
3323	5.44108e+02	3.32300e+03	-8.37808e-03	5.43833e+02
3327	5.44769e+02	3.32700e+03	-8.19777e-03	5.44500e+02
3331	5.45426e+02	3.33100e+03	-8.07362e-03	5.45167e+02
3335	5.46084e+02	3.33500e+03	-8.03388e-03	5.45833e+02
3339	5.46740e+02	3.33900e+03	-7.95884e-03	5.46500e+02
3343	5.47399e+02	3.34300e+03	-7.95999e-03	5.47167e+02
3347	5.48066e+02	3.34700e+03	-8.04523e-03	5.47833e+02
3351	5.48721e+02	3.35100e+03	-8.02271e-03	5.48500e+02
3355	5.49385e+02	3.35500e+03	-7.91800e-03	5.49167e+02
3359	5.50057e+02	3.35900e+03	-7.93159e-03	5.49833e+02
3363	5.50695e+02	3.36300e+03	-8.08207e-03	5.50500e+02
3367	5.51344e+02	3.36700e+03	-8.31635e-03	5.51167e+02
3371	5.52006e+02	3.37100e+03	-8.48409e-03	5.51833e+02
3375	5.52660e+02	3.37500e+03	-8.46234e-03	5.52500e+02
3379	5.53320e+02	3.37900e+03	-8.30824e-03	5.53167e+02
3383	5.53966e+02	3.38300e+03	-8.09232e-03	5.53833e+02
3387	5.54618e+02	3.38700e+03	-7.95501e-03	5.54500e+02
3391	5.55279e+02	3.39100e+03	-7.97523e-03	5.55167e+02
3395	5.55945e+02	3.39500e+03	-8.13816e-03	5.55833e+02
3399	5.56610e+02	3.39900e+03	-8.33290e-03	5.56500e+02
3403	5.57265e+02	3.40300e+03	-8.32165e-03	5.57167e+02
3407	5.57938e+02	3.40700e+03	-8.17676e-03	5.57833e+02
3411	5.58587e+02	3.41100e+03	-8.21720e-03	5.58500e+02
3415	5.59252e+02	3.41500e+03	-8.45150e-03	5.59167e+02
3419	5.59910e+02	3.41900e+03	-8.51008e-03	5.59833e+02
3423	5.60576e+02	3.42300e+03	-8.25103e-03	5.60500e+02
3427	5.61233e+02	3.42700e+03	-8.06445e-03	5.61167e+02
3431	5.61894e+02	3.43100e+03	-8.32278e-03	5.61833e+02
3435	5.62538e+02	3.43500e+03	-8.82551e-03	5.62500e+02
3439	5.63192e+02	3.43900e+03	-9.01887e-03	5.63167e+02
3443	5.63850e+02	3.44300e+03	-8.79454e-03	5.63833e+02
3447	5.64500e+02	3.44700e+03	-8.49254e-03	5.64500e+02
3451	5.65161e+02	3.45100e+03	-8.29191e-03	5.65167e+02
3455	5.65818e+02	3.45500e+03	-8.17046e-03	5.65833e+02
3459	5.66482e+02	3.45900e+03	-8.14913e-03	5.66500e+02
3463	5.67128e+02	3.46300e+03	-8.26061e-03	5.67167e+02
3467	5.67788e+02	3.46700e+03	-8.40450e-03	5.67833e+02
3471	5.68437e+02	3.47100e+03	-8.45334e-03	5.68500e+02
3475	5.69094e+02	3.47500e+03	-8.48338e-03	5.69167e+02
3479	5.69748e+02	3.47900e+03	-8.46141e-03	5.69833e+02
3483	5.70407e+02	3.48300e+03	-8.42357e-03	5.70500e+02
3487	5.71060e+02	3.48700e+03	-8.45804e-03	5.71167e+02
3491	5.71715e+02	3.49100e+03	-8.41390e-03	5.71833e+02
3495	5.72369e+02	3.49500e+03	-8.39896e-03	5.72500e+02
3499	5.73022e+02	3.49900e+03	-8.47421e-03	5.73167e+02
3503	5.73670e+02	3.50300e+03	-8.54127e-03	5.73833e+02
3507	5.74325e+02	3.50700e+03	-8.62220e-03	5.74500e+02
3511	5.74975e+02	3.51100e+03	-8.76402e-03	5.75167e+02
3515	5.75635e+02	3.51500e+03	-8.89681e-03	5.75833e+02
3519	5.76298e+02	3.51900e+03	-8.92682e-03	5.76500e+02
3523	5.76945e+02	3.52300e+03	-8.76681e-03	5.77167e+02
3527	5.77599e+02	3.52700e+03	-8.51520e-03	5.77833e+02
3531	5.78262e+02	3.53100e+03	-8.44068e-03	5.78500e+02
3535	5.78924e+02	3.53500e+03	-8.52650e-03	5.79167e+02
3539	5.79567e+02	3.53900e+03	-8.70133e-03	5.79833e+02
3543	5.80237e+02	3.54300e+03	-8.95368e-03	5.80500e+02
3547	5.80879e+02	3.54700e+03	-9.12160e-03	5.81167e+02
3551	5.81539e+02	3.55100e+03	-9.04148e-03	5.81833e+02
3555	5.82196e+02	3.55500e+03	-8.85048e-03	5.82500e+02
3559	5.82853e+02	3.55900e+03	-8.77914e-03	5.83167e+02
3563	5.83504e+02	3.56300e+03	-8.76114e-03	5.83833e+02
3567	5.84156e+02	3.56700e+03	-8.65503e-03	5.84500e+02
3571	5.84820e+02	3.57100e+03	-8.58194e-03	5.85167e+02
3575	5.85481e+02	3.57500e+03	-8.66920e-03	5.85833e+02
3579	5.86132e+02	3.57900e+03	-8.74571e-03	5.86500e+02
3583	5.86800e+02	3.58300e+03	-8.70975e-03	5.87167e+02
3587	5.87451e+02	3.58700e+03	-8.70028e-03	5.87833e+02
3591	5.88105e+02	3.59100e+03	-8.82935e-03	5.88500e+02
3595	5.88763e+02	3.59500e+03	-9.02706e-03	5.89167e+02
3599	5.89421e+02	3.59900e+03	-9.07208e-03	5.89833e+02
3603	5.90084e+02	3.60300e+03	-9.00686e-03	5.90500e+02
3607	5.90754e+02	3.60700e+03	-9.04606e-03	5.91167e+02
3611	5.91421e+02	3.61100e+03	-9.07426e-03	5.91833e+02
3615	5.92078e+02	3.61500e+03	-8.97780e-03	5.92500e+02
3619	5.92745e+02	3.61900e+03	-8.81373e-03	5.93167e+02
3623	5.93409e+02	3.62300e+03	-8.69761e-03	5.93833e+02
3627	5.94070e+02	3.62700e+03	-8.74936e-03	5.94500e+02
3631	5.94746e+02	3.63100e+03	-8.74644e-03	5.95167e+02
3635	5.95405e+02	3.63500e+03	-8.65727e-03	5.95833e+02
3639	5.96078e+02	3.63900e+03	-8.71300e-03	5.96500e+02
3643	5.96734e+02	3.64300e+03	-8.84736e-03	5.97167e+02
3647	5.97400e+02	3.64700e+03	-8.99414e-03	5.97833e+02
3651	5.98057e+02	3.65100e+03	-9.14772e-03	5.98500e+02
3655	5.98717e+02	3.65500e+03	-9.09377e-03	5.99167e+02
3659	5.99377e+02	3.65900e+03	-8.85859e-03	5.99833e+02
3663	6.00024e+02	3.66300e+03	-8.82127e-03	6.00500e+02
3667	6.00694e+02	3.66700e+03	-8.96000e-03	6.01167e+02
3671	6.01347e+02	3.67100e+03	-8.99465e-03	6.01833e+02
3675	6.02030e+02	3.67500e+03	-8.95774e-03	6.02500e+02
3679	6.02698e+02	3.67900e+03	-8.97642e-03	6.03167e+02
3683	6.03360e+02	3.68300e+03	-9.02414e-03	6.03833e+02
3687	6.04033e+02	3.68700e+03	-9.05679e-03	6.04500e+02
3691	6.04705e+02	3.69100e+03	-9.10770e-03	6.05167e+02
3695	6.05372e+02	3.69500e+03	-9.22342e-03	6.05833e+02
3699	6.06055e+02	3.69900e+03	-9.31263e-03	6.06500e+02
3703	6.06743e+02	3.70300e+03	-9.30464e-03	6.07167e+02
3707	6.07435e+02	3.70700e+03	-9.26863e-03	6.07833e+02
3711	6.08118e+02	3.71100e+03	-9.29724e-03	6.08500e+02
3715	6.08817e+02	3.71500e+03	-9.33367e-03	6.09167e+02
3719	6.09511e+02	3.71900e+03	-9.24997e-03	6.09833e+02
3723	6.10208e+02	3.72300e+03	-9.16410e-03	6.10500e+02
3727	6.10890e+02	3.72700e+03	-9.20549e-03	6.11167e+02
3731	6.11593e+02	3.73100e+03	-9.30059e-03	6.11833e+02
3735	6.12296e+02	3.73500e+03	-9.38886e-03	6.12500e+02
3739	6.13049e+02	3.73900e+03	-9.41194e-03	6.13167e+02
3743	6.13813e+02	3.74300e+03	-9.27746e-03	6.13833e+02
3747	6.14489e+02	3.74700e+03	-9.13554e-03	6.14500e+02
3751	6.15124e+02	3.75100e+03	-9.18327e-03	6.15167e+02
3755	6.15770e+02	3.75500e+03	-9.23223e-03	6.15833e+02
3759	6.16417e+02	3.75900e+03	-9.26141e-03	6.16500e+02
3763	6.17085e+02	3.76300e+03	-9.46930e-03	6.17167e+02
3767	6.17758e+02	3.76700e+03	-9.72457e-03	6.17833e+02
3771	6.18430e+02	3.77100e+03	-9.72274e-03	6.18500e+02
3775	6.19111e+02	3.77500e+03	-9.52046e-03	6.19167e+02
3779	6.19793e+02	3.77900e+03	-9.43371e-03	6.19833e+02
3783	6.20461e+02	3.78300e+03	-9.48548e-03	6.20500e+02
3787	6.21115e+02	3.78700e+03	-9.52551e-03	6.21167e+02
3791	6.21763e+02	3.79100e+03	-9.45596e-03	6.21833e+02
3795	6.22407e+02	3.79500e+03	-9.35904e-03	6.22500e+02
3799	6.23053e+02	3.79900e+03	-9.35449e-03	6.23167e+02
3803	6.23679e+02	3.80300e+03	-9.42695e-03	6.23833e+02
3807	6.24341e+02	3.80700e+03	-9.41591e-03	6.24500e+02
3811	6.24983e+02	3.81100e+03	-9.32500e-03	6.25167e+02
3815	6.25623e+02	3.81500e+03	-9.33190e-03	6.25833e+02
3819	6.26276e+02	3.81900e+03	-9.44578e-03	6.26500e+02
3823	6.26937e+02	3.82300e+03	-9.56717e-03	6.27167e+02
3827	6.27585e+02	3.82700e+03	-9.58348e-03	6.27833e+02
3831	6.28249e+02	3.83100e+03	-9.54726e-03	6.28500e+02
3835	6.28912e+02	3.83500e+03	-9.49727e-03	6.29167e+02
3839	6.29558e+02	3.83900e+03	-9.42981e-03	6.29833e+02
3843	6.30222e+02	3.84300e+03	-9.46393e-03	6.30500e+02
3847	6.30887e+02	3.84700e+03	-9.59274e-03	6.31167e+02
3851	6.31552e+02	3.85100e+03	-9.63100e-03	6.31833e+02
3855	6.32203e+02	3.85500e+03	-9.54900e-03	6.32500e+02
3859	6.32841e+02	3.85900e+03	-9.48903e-03	6.33167e+02
3863	6.33506e+02	3.86300e+03	-9.48124e-03	6.33833e+02
3867	6.34159e+02	3.86700e+03	-9.51618e-03	6.34500e+02
3871	6.34821e+02	3.87100e+03	-9.59449e-03	6.35167e+02
3875	6.35480e+02	3.87500e+03	-9.68658e-03	6.35833e+02
3879	6.36151e+02	3.87900e+03	-9.69279e-03	6.36500e+02
3883	6.36810e+02	3.88300e+03	-9.60563e-03	6.37167e+02
3887	6.37467e+02	3.88700e+03	-9.52322e-03	6.37833e+02
3891	6.38133e+02	3.89100e+03	-9.44711e-03	6.38500e+02
3895	6.38803e+02	3.89500e+03	-9.33607e-03	6.39167e+02
3899	6.39474e+02	3.89900e+03	-9.23906e-03	6.39833e+02
3903	6.40128e+02	3.90300e+03	-9.35437e-03	6.40500e+02
3907	6.40790e+02	3.90700e+03	-9.83584e-03	6.41167e+02
3911	6.41453e+02	3.91100e+03	-1.03661e-02	6.41833e+02
3915	6.42127e+02	3.91500e+03	-1.04500e-02	6.42500e+02
3919	6.42791e+02	3.91900e+03	-1.03298e-02	6.43167e+02
3923	6.43453e+02	3.92300e+03	-1.02353e-02	6.43833e+02
3927	6.44121e+02	3.92700e+03	-9.86283e-03	6.44500e+02
3931	6.44802e+02	3.93100e+03	-9.42671e-03	6.45167e+02
3935	6.45472e+02	3.93500e+03	-9.33012e-03	6.45833e+02
3939	6.46131e+02	3.93900e+03	-9.42074e-03	6.46500e+02
3943	6.46800e+02	3.94300e+03	-9.46617e-03	6.47167e+02
3947	6.47457e+02	3.94700e+03	-9.54098e-03	6.47833e+02
3951	6.48122e+02	3.95100e+03	-9.63476e-03	6.48500e+02
3955	6.48785e+02	3.95500e+03	-9.57777e-03	6.49167e+02
3959	6.49443e+02	3.95900e+03	-9.46967e-03	6.49833e+02
3963	6.50120e+02	3.96300e+03	-9.41360e-03	6.50500e+02
3967	6.50774e+02	3.96700e+03	-9.43602e-03	6.51167e+02
3971	6.51429e+02	3.97100e+03	-9.57975e-03	6.51833e+02
3975	6.52092e+02	3.97500e+03	-9.69363e-03	6.52500e+02
3979	6.52754e+02	3.97900e+03	-9.68889e-03	6.53167e+02
3983	6.53414e+02	3.98300e+03	-9.68943e-03	6.53833e+02
3987	6.54084e+02	3.98700e+03	-9.78549e-03	6.54500e+02
3991	6.54752e+02	3.99100e+03	-9.80844e-03	6.55167e+02
3995	6.55410e+02	3.99500e+03	-9.62168e-03	6.55833e+02
3999	6.56075e+02	3.99900e+03	-9.48035e-03	6.56500e+02
4003	6.56761e+02	4.00300e+03	-9.52694e-03	6.57167e+02
4007	6.57414e+02	4.00700e+03	-9.56937e-03	6.57833e+02
4011	6.58075e+02	4.01100e+03	-9.57423e-03	6.58500e+02
4015	6.58741e+02	4.01500e+03	-9.65261e-03	6.59167e+02
4019	6.59398e+02	4.01900e+03	-9.80029e-03	6.59833e+02
4023	6.60049e+02	4.02300e+03	-9.91616e-03	6.60500e+02
4027	6.60719e+02	4.02700e+03	-9.93357e-03	6.61167e+02
4031	6.61368e+02	4.03100e+03	-9.88633e-03	6.61833e+02
4035	6.62021e+02	4.03500e+03	-9.86533e-03	6.62500e+02
4039	6.62678e+02	4.03900e+03	-9.91895e-03	6.63167e+02
4043	6.63333e+02	4.04300e+03	-1.00127e-02	6.63833e+02
4047	6.63982e+02	4.04700e+03	-1.00026e-02	6.64500e+02
4051	6.64632e+02	4.05100e+03	-9.89240e-03	6.65167e+02
4055	6.65279e+02	4.05500e+03	-9.86632e-03	6.65833e+02
4059	6.65944e+02	4.05900e+03	-9.86862e-03	6.66500e+02
4063	6.66607e+02	4.06300e+03	-9.72439e-03	6.67167e+02
4067	6.67263e+02	4.06700e+03	-9.56643e-03	6.67833e+02
4071	6.67921e+02	4.07100e+03	-9.52721e-03	6.68500e+02
4075	6.68578e+02	4.07500e+03	-9.55352e-03	6.69167e+02
4079	6.69239e+02	4.07900e+03	-9.65805e-03	6.69833e+02
4083	6.69911e+02	4.08300e+03	-9.78736e-03	6.70500e+02
4087	6.70563e+02	4.08700e+03	-9.83633e-03	6.71167e+02
4091	6.71235e+02	4.09100e+03	-9.86220e-03	6.71833e+02
4095	6.71906e+02	4.09500e+03	-9.86161e-03	6.72500e+02
4099	6.72572e+02	4.09900e+03	-9.74795e-03	6.73167e+02
4103	6.73230e+02	4.10300e+03	-9.64859e-03	6.73833e+02
4107	6.73899e+02	4.10700e+03	-9.61266e-03	6.74500e+02
4111	6.74560e+02	4.11100e+03	-9.57167e-03	6.75167e+02
4115	6.75227e+02	4.11500e+03	-9.59344e-03	6.75833e+02
4119	6.75890e+02	4.11900e+03	-9.73942e-03	6.76500e+02
4123	6.76558e+02	4.12300e+03	-9.89700e-03	6.77167e+02
4127	6.77218e+02	4.12700e+03	-9.98110e-03	6.77833e+02
4131	6.77883e+02	4.13100e+03	-1.00084e-02	6.78500e+02
4135	6.78551e+02	4.13500e+03	-1.00187e-02	6.79167e+02
4139	6.79203e+02	4.13900e+03	-1.00738e-02	6.79833e+02
4143	6.79858e+02	4.14300e+03	-1.01231e-02	6.80500e+02
4147	6.80524e+02	4.14700e+03	-1.01407e-02	6.81167e+02
4151	6.81172e+02	4.15100e+03	-1.01536e-02	6.81833e+02
4155	6.81838e+02	4.15500e+03	-1.01211e-02	6.82500e+02
4159	6.82511e+02	4.15900e+03	-1.00247e-02	6.83167e+02
4163	6.83177e+02	4.16300e+03	-9.94919e-03	6.83833e+02
4167	6.83845e+02	4.16700e+03	-9.94705e-03	6.84500e+02
4171	6.84504e+02	4.17100e+03	-1.00042e-02	6.85167e+02
4175	6.85165e+02	4.17500e+03	-1.00107e-02	6.85833e+02
4179	6.85830e+02	4.17900e+03	-9.87402e-03	6.86500e+02
4183	6.86487e+02	4.18300e+03	-9.73983e-03	6.87167e+02
4187	6.87154e+02	4.18700e+03	-9.68771e-03	6.87833e+02
4191	6.87810e+02	4.19100e+03	-9.65646e-03	6.88500e+02
4195	6.88466e+02	4.19500e+03	-9.68200e-03	6.89167e+02
4199	6.89128e+02	4.19900e+03	-9.83378e-03	6.89833e+02
4203	6.89790e+02	4.20300e+03	-9.92463e-03	6.90500e+02
4207	6.90446e+02	4.20700e+03	-9.75630e-03	6.91167e+02
4211	6.91118e+02	4.21100e+03	-9.57356e-03	6.91833e+02
4215	6.91775e+02	4.21500e+03	-9.59658e-03	6.92500e+02
4219	6.92425e+02	4.21900e+03	-9.66734e-03	6.93167e+02
4223	6.93087e+02	4.22300e+03	-9.67764e-03	6.93833e+02
4227	6.93748e+02	4.22700e+03	-9.65188e-03	6.94500e+02
4231	6.94405e+02	4.23100e+03	-9.61605e-03	6.95167e+02
4235	6.94957e+02	4.23500e+03	-9.63418e-03	6.95833e+02
4239	6.95376e+02	4.23900e+03	-9.71534e-03	6.96500e+02
4243	6.95857e+02	4.24300e+03	-9.76173e-03	6.97167e+02
4247	6.96267e+02	4.24700e+03	-9.81701e-03	6.97833e+02
4251	6.96622e+02	4.25100e+03	-9.96170e-03	6.98500e+02
4255	6.96958e+02	4.25500e+03	-1.00260e-02	6.99167e+02
4259	6.97234e+02	4.25900e+03	-9.93441e-03	6.99833e+02
4260	6.97302e+02	4.26000e+03	-9.89953e-03	7.00000e+02