File: Experiments/TUBS/tga_nonisotherm/tga_dynamic_n2_dyn10_powder_2mg_r2.txt
index	ts	t	weight	tr
[#]	[°C]	[s]	[mg]	[°C]
843	1.30788e+02	8.43000e+02	2.03854e+00	1.30500e+02
847	1.31455e+02	8.47000e+02	2.03828e+00	1.31167e+02
851	1.32137e+02	8.51000e+02	2.03788e+00	1.31833e+02
855	1.32808e+02	8.55000e+02	2.03796e+00	1.32500e+02
859	1.33487e+02	8.59000e+02	2.03825e+00	1.33167e+02
863	1.34168e+02	8.63000e+02	2.03825e+00	1.33833e+02
867	1.34836e+02	8.67000e+02	2.03796e+00	1.34500e+02
871	1.35515e+02	8.71000e+02	2.03767e+00	1.35167e+02
875	1.36193e+02	8.75000e+02	2.03764e+00	1.35833e+02
879	1.36864e+02	8.79000e+02	2.03753e+00	1.36500e+02
883	1.37540e+02	8.83000e+02	2.03734e+00	1.37167e+02
887	1.38221e+02	8.87000e+02	2.03734e+00	1.37833e+02
891	1.38884e+02	8.91000e+02	2.03729e+00	1.38500e+02
895	1.39573e+02	8.95000e+02	2.03723e+00	1.39167e+02
899	1.40248e+02	8.99000e+02	2.03716e+00	1.39833e+02
903	1.40922e+02	9.03000e+02	2.03703e+00	1.40500e+02
907	1.41591e+02	9.07000e+02	2.03689e+00	1.41167e+02
911	1.42269e+02	9.11000e+02	2.03676e+00	1.41833e+02
915	1.42952e+02	9.15000e+02	2.03662e+00	1.42500e+02
919	1.43627e+02	9.19000e+02	2.03638e+00	1.43167e+02
923	1.44313e+02	9.23000e+02	2.03597e+00	1.43833e+02
927	1.44977e+02	9.27000e+02	2.03570e+00	1.44500e+02
931	1.45663e+02	9.31000e+02	2.03584e+00	1.45167e+02
935	1.46336e+02	9.35000e+02	2.03587e+00	1.45833e+02
939	1.47017e+02	9.39000e+02	2.03550e+00	1.46500e+02
943	1.47695e+02	9.43000e+02	2.03512e+00	1.47167e+02
947	1.48368e+02	9.47000e+02	2.03487e+00	1.47833e+02
951	1.49044e+02	9.51000e+02	2.03466e+00	1.48500e+02
955	1.49727e+02	9.55000e+02	2.03451e+00	1.49167e+02
959	1.50404e+02	9.59000e+02	2.03427e+00	1.49833e+02
963	1.51088e+02	9.63000e+02	2.03381e+00	1.50500e+02
967	1.51771e+02	9.67000e+02	2.03345e+00	1.51167e+02
971	1.52446e+02	9.71000e+02	2.03331e+00	1.51833e+02
975	1.53123e+02	9.75000e+02	2.03313e+00	1.52500e+02
979	1.53794e+02	9.79000e+02	2.03275e+00	1.53167e+02
983	1.54476e+02	9.83000e+02	2.03238e+00	1.53833e+02
987	1.55146e+02	9.87000e+02	2.03211e+00	1.54500e+02
991	1.55830e+02	9.91000e+02	2.03188e+00	1.55167e+02
995	1.56516e+02	9.95000e+02	2.03168e+00	1.55833e+02
999	1.57188e+02	9.99000e+02	2.03138e+00	1.56500e+02
1003	1.57849e+02	1.00300e+03	2.03098e+00	1.57167e+02
1007	1.58541e+02	1.00700e+03	2.03068e+00	1.57833e+02
1011	1.59201e+02	1.01100e+03	2.03043e+00	1.58500e+02
1015	1.59879e+02	1.01500e+03	2.03008e+00	1.59167e+02
1019	1.60566e+02	1.01900e+03	2.02972e+00	1.59833e+02
1023	1.61251e+02	1.02300e+03	2.02939e+00	1.60500e+02
1027	1.61917e+02	1.02700e+03	2.02910e+00	1.61167e+02
1031	1.62599e+02	1.03100e+03	2.02878e+00	1.61833e+02
1035	1.63256e+02	1.03500e+03	2.02831e+00	1.62500e+02
1039	1.63942e+02	1.03900e+03	2.02775e+00	1.63167e+02
1043	1.64614e+02	1.04300e+03	2.02723e+00	1.63833e+02
1047	1.65308e+02	1.04700e+03	2.02684e+00	1.64500e+02
1051	1.65990e+02	1.05100e+03	2.02646e+00	1.65167e+02
1055	1.66664e+02	1.05500e+03	2.02592e+00	1.65833e+02
1059	1.67332e+02	1.05900e+03	2.02530e+00	1.66500e+02
1063	1.68017e+02	1.06300e+03	2.02467e+00	1.67167e+02
1067	1.68680e+02	1.06700e+03	2.02404e+00	1.67833e+02
1071	1.69368e+02	1.07100e+03	2.02348e+00	1.68500e+02
1075	1.70049e+02	1.07500e+03	2.02289e+00	1.69167e+02
1079	1.70736e+02	1.07900e+03	2.02208e+00	1.69833e+02
1083	1.71406e+02	1.08300e+03	2.02115e+00	1.70500e+02
1087	1.72093e+02	1.08700e+03	2.02021e+00	1.71167e+02
1091	1.72766e+02	1.09100e+03	2.01916e+00	1.71833e+02
1095	1.73430e+02	1.09500e+03	2.01803e+00	1.72500e+02
1099	1.74119e+02	1.09900e+03	2.01698e+00	1.73167e+02
1103	1.74794e+02	1.10300e+03	2.01597e+00	1.73833e+02
1107	1.75474e+02	1.10700e+03	2.01485e+00	1.74500e+02
1111	1.76152e+02	1.11100e+03	2.01366e+00	1.75167e+02
1115	1.76825e+02	1.11500e+03	2.01242e+00	1.75833e+02
1119	1.77499e+02	1.11900e+03	2.01107e+00	1.76500e+02
1123	1.78179e+02	1.12300e+03	2.00972e+00	1.77167e+02
1127	1.78847e+02	1.12700e+03	2.00836e+00	1.77833e+02
1131	1.79523e+02	1.13100e+03	2.00687e+00	1.78500e+02
1135	1.80215e+02	1.13500e+03	2.00528e+00	1.79167e+02
1139	1.80896e+02	1.13900e+03	2.00366e+00	1.79833e+02
1143	1.81571e+02	1.14300e+03	2.00199e+00	1.80500e+02
1147	1.82256e+02	1.14700e+03	2.00020e+00	1.81167e+02
1151	1.82934e+02	1.15100e+03	1.99857e+00	1.81833e+02
1155	1.83615e+02	1.15500e+03	1.99719e+00	1.82500e+02
1159	1.84282e+02	1.15900e+03	1.99557e+00	1.83167e+02
1163	1.84966e+02	1.16300e+03	1.99374e+00	1.83833e+02
1167	1.85634e+02	1.16700e+03	1.99199e+00	1.84500e+02
1171	1.86315e+02	1.17100e+03	1.99048e+00	1.85167e+02
1175	1.86989e+02	1.17500e+03	1.98913e+00	1.85833e+02
1179	1.87675e+02	1.17900e+03	1.98770e+00	1.86500e+02
1183	1.88353e+02	1.18300e+03	1.98626e+00	1.87167e+02
1187	1.89036e+02	1.18700e+03	1.98491e+00	1.87833e+02
1191	1.89694e+02	1.19100e+03	1.98357e+00	1.88500e+02
1195	1.90380e+02	1.19500e+03	1.98216e+00	1.89167e+02
1199	1.91048e+02	1.19900e+03	1.98098e+00	1.89833e+02
1203	1.91720e+02	1.20300e+03	1.98003e+00	1.90500e+02
1207	1.92415e+02	1.20700e+03	1.97889e+00	1.91167e+02
1211	1.93090e+02	1.21100e+03	1.97764e+00	1.91833e+02
1215	1.93761e+02	1.21500e+03	1.97652e+00	1.92500e+02
1219	1.94444e+02	1.21900e+03	1.97550e+00	1.93167e+02
1223	1.95108e+02	1.22300e+03	1.97458e+00	1.93833e+02
1227	1.95792e+02	1.22700e+03	1.97372e+00	1.94500e+02
1231	1.96463e+02	1.23100e+03	1.97287e+00	1.95167e+02
1235	1.97134e+02	1.23500e+03	1.97201e+00	1.95833e+02
1239	1.97809e+02	1.23900e+03	1.97147e+00	1.96500e+02
1243	1.98488e+02	1.24300e+03	1.97122e+00	1.97167e+02
1247	1.99169e+02	1.24700e+03	1.97074e+00	1.97833e+02
1251	1.99840e+02	1.25100e+03	1.97008e+00	1.98500e+02
1255	2.00513e+02	1.25500e+03	1.96946e+00	1.99167e+02
1259	2.01184e+02	1.25900e+03	1.96886e+00	1.99833e+02
1263	2.01859e+02	1.26300e+03	1.96833e+00	2.00500e+02
1267	2.02530e+02	1.26700e+03	1.96792e+00	2.01167e+02
1271	2.03216e+02	1.27100e+03	1.96761e+00	2.01833e+02
1275	2.03891e+02	1.27500e+03	1.96729e+00	2.02500e+02
1279	2.04563e+02	1.27900e+03	1.96688e+00	2.03167e+02
1283	2.05235e+02	1.28300e+03	1.96649e+00	2.03833e+02
1287	2.05914e+02	1.28700e+03	1.96620e+00	2.04500e+02
1291	2.06595e+02	1.29100e+03	1.96595e+00	2.05167e+02
1295	2.07256e+02	1.29500e+03	1.96570e+00	2.05833e+02
1299	2.07936e+02	1.29900e+03	1.96548e+00	2.06500e+02
1303	2.08599e+02	1.30300e+03	1.96533e+00	2.07167e+02
1307	2.09275e+02	1.30700e+03	1.96512e+00	2.07833e+02
1311	2.09939e+02	1.31100e+03	1.96465e+00	2.08500e+02
1315	2.10620e+02	1.31500e+03	1.96406e+00	2.09167e+02
1319	2.11296e+02	1.31900e+03	1.96383e+00	2.09833e+02
1323	2.11962e+02	1.32300e+03	1.96393e+00	2.10500e+02
1327	2.12643e+02	1.32700e+03	1.96372e+00	2.11167e+02
1331	2.13309e+02	1.33100e+03	1.96317e+00	2.11833e+02
1335	2.13976e+02	1.33500e+03	1.96272e+00	2.12500e+02
1339	2.14655e+02	1.33900e+03	1.96241e+00	2.13167e+02
1343	2.15335e+02	1.34300e+03	1.96214e+00	2.13833e+02
1347	2.16006e+02	1.34700e+03	1.96185e+00	2.14500e+02
1351	2.16681e+02	1.35100e+03	1.96152e+00	2.15167e+02
1355	2.17355e+02	1.35500e+03	1.96121e+00	2.15833e+02
1359	2.18042e+02	1.35900e+03	1.96085e+00	2.16500e+02
1363	2.18710e+02	1.36300e+03	1.96042e+00	2.17167e+02
1367	2.19383e+02	1.36700e+03	1.96005e+00	2.17833e+02
1371	2.20045e+02	1.37100e+03	1.95976e+00	2.18500e+02
1375	2.20715e+02	1.37500e+03	1.95950e+00	2.19167e+02
1379	2.21396e+02	1.37900e+03	1.95918e+00	2.19833e+02
1383	2.22064e+02	1.38300e+03	1.95887e+00	2.20500e+02
1387	2.22743e+02	1.38700e+03	1.95870e+00	2.21167e+02
1391	2.23413e+02	1.39100e+03	1.95854e+00	2.21833e+02
1395	2.24088e+02	1.39500e+03	1.95825e+00	2.22500e+02
1399	2.24765e+02	1.39900e+03	1.95788e+00	2.23167e+02
1403	2.25435e+02	1.40300e+03	1.95759e+00	2.23833e+02
1407	2.26103e+02	1.40700e+03	1.95734e+00	2.24500e+02
1411	2.26784e+02	1.41100e+03	1.95712e+00	2.25167e+02
1415	2.27458e+02	1.41500e+03	1.95696e+00	2.25833e+02
1419	2.28129e+02	1.41900e+03	1.95675e+00	2.26500e+02
1423	2.28807e+02	1.42300e+03	1.95654e+00	2.27167e+02
1427	2.29488e+02	1.42700e+03	1.95639e+00	2.27833e+02
1431	2.30147e+02	1.43100e+03	1.95627e+00	2.28500e+02
1435	2.30827e+02	1.43500e+03	1.95612e+00	2.29167e+02
1439	2.31490e+02	1.43900e+03	1.95600e+00	2.29833e+02
1443	2.32157e+02	1.44300e+03	1.95593e+00	2.30500e+02
1447	2.32836e+02	1.44700e+03	1.95575e+00	2.31167e+02
1451	2.33509e+02	1.45100e+03	1.95561e+00	2.31833e+02
1455	2.34175e+02	1.45500e+03	1.95555e+00	2.32500e+02
1459	2.34859e+02	1.45900e+03	1.95535e+00	2.33167e+02
1463	2.35526e+02	1.46300e+03	1.95510e+00	2.33833e+02
1467	2.36196e+02	1.46700e+03	1.95495e+00	2.34500e+02
1471	2.36865e+02	1.47100e+03	1.95491e+00	2.35167e+02
1475	2.37532e+02	1.47500e+03	1.95479e+00	2.35833e+02
1479	2.38216e+02	1.47900e+03	1.95464e+00	2.36500e+02
1483	2.38880e+02	1.48300e+03	1.95454e+00	2.37167e+02
1487	2.39574e+02	1.48700e+03	1.95437e+00	2.37833e+02
1491	2.40261e+02	1.49100e+03	1.95414e+00	2.38500e+02
1495	2.40928e+02	1.49500e+03	1.95405e+00	2.39167e+02
1499	2.41612e+02	1.49900e+03	1.95397e+00	2.39833e+02
1503	2.42286e+02	1.50300e+03	1.95378e+00	2.40500e+02
1507	2.42951e+02	1.50700e+03	1.95358e+00	2.41167e+02
1511	2.43622e+02	1.51100e+03	1.95345e+00	2.41833e+02
1515	2.44295e+02	1.51500e+03	1.95329e+00	2.42500e+02
1519	2.44960e+02	1.51900e+03	1.95309e+00	2.43167e+02
1523	2.45630e+02	1.52300e+03	1.95305e+00	2.43833e+02
1527	2.46313e+02	1.52700e+03	1.95319e+00	2.44500e+02
1531	2.46969e+02	1.53100e+03	1.95313e+00	2.45167e+02
1535	2.47656e+02	1.53500e+03	1.95284e+00	2.45833e+02
1539	2.48329e+02	1.53900e+03	1.95257e+00	2.46500e+02
1543	2.49004e+02	1.54300e+03	1.95232e+00	2.47167e+02
1547	2.49682e+02	1.54700e+03	1.95212e+00	2.47833e+02
1551	2.50356e+02	1.55100e+03	1.95197e+00	2.48500e+02
1555	2.51046e+02	1.55500e+03	1.95177e+00	2.49167e+02
1559	2.51732e+02	1.55900e+03	1.95156e+00	2.49833e+02
1563	2.52395e+02	1.56300e+03	1.95138e+00	2.50500e+02
1567	2.53076e+02	1.56700e+03	1.95127e+00	2.51167e+02
1571	2.53741e+02	1.57100e+03	1.95119e+00	2.51833e+02
1575	2.54413e+02	1.57500e+03	1.95101e+00	2.52500e+02
1579	2.55075e+02	1.57900e+03	1.95079e+00	2.53167e+02
1583	2.55745e+02	1.58300e+03	1.95056e+00	2.53833e+02
1587	2.56406e+02	1.58700e+03	1.95034e+00	2.54500e+02
1591	2.57086e+02	1.59100e+03	1.95016e+00	2.55167e+02
1595	2.57760e+02	1.59500e+03	1.95004e+00	2.55833e+02
1599	2.58427e+02	1.59900e+03	1.94993e+00	2.56500e+02
1603	2.59083e+02	1.60300e+03	1.94968e+00	2.57167e+02
1607	2.59761e+02	1.60700e+03	1.94941e+00	2.57833e+02
1611	2.60433e+02	1.61100e+03	1.94921e+00	2.58500e+02
1615	2.61102e+02	1.61500e+03	1.94898e+00	2.59167e+02
1619	2.61776e+02	1.61900e+03	1.94872e+00	2.59833e+02
1623	2.62441e+02	1.62300e+03	1.94845e+00	2.60500e+02
1627	2.63113e+02	1.62700e+03	1.94819e+00	2.61167e+02
1631	2.63782e+02	1.63100e+03	1.94793e+00	2.61833e+02
1635	2.64454e+02	1.63500e+03	1.94765e+00	2.62500e+02
1639	2.65122e+02	1.63900e+03	1.94743e+00	2.63167e+02
1643	2.65793e+02	1.64300e+03	1.94722e+00	2.63833e+02
1647	2.66471e+02	1.64700e+03	1.94688e+00	2.64500e+02
1651	2.67124e+02	1.65100e+03	1.94647e+00	2.65167e+02
1655	2.67794e+02	1.65500e+03	1.94614e+00	2.65833e+02
1659	2.68459e+02	1.65900e+03	1.94579e+00	2.66500e+02
1663	2.69142e+02	1.66300e+03	1.94539e+00	2.67167e+02
1667	2.69805e+02	1.66700e+03	1.94497e+00	2.67833e+02
1671	2.70472e+02	1.67100e+03	1.94453e+00	2.68500e+02
1675	2.71144e+02	1.67500e+03	1.94402e+00	2.69167e+02
1679	2.71821e+02	1.67900e+03	1.94346e+00	2.69833e+02
1683	2.72504e+02	1.68300e+03	1.94299e+00	2.70500e+02
1687	2.73152e+02	1.68700e+03	1.94248e+00	2.71167e+02
1691	2.73820e+02	1.69100e+03	1.94193e+00	2.71833e+02
1695	2.74488e+02	1.69500e+03	1.94149e+00	2.72500e+02
1699	2.75166e+02	1.69900e+03	1.94095e+00	2.73167e+02
1703	2.75826e+02	1.70300e+03	1.94032e+00	2.73833e+02
1707	2.76492e+02	1.70700e+03	1.93967e+00	2.74500e+02
1711	2.77165e+02	1.71100e+03	1.93893e+00	2.75167e+02
1715	2.77834e+02	1.71500e+03	1.93807e+00	2.75833e+02
1719	2.78502e+02	1.71900e+03	1.93722e+00	2.76500e+02
1723	2.79171e+02	1.72300e+03	1.93652e+00	2.77167e+02
1727	2.79835e+02	1.72700e+03	1.93588e+00	2.77833e+02
1731	2.80513e+02	1.73100e+03	1.93514e+00	2.78500e+02
1735	2.81180e+02	1.73500e+03	1.93427e+00	2.79167e+02
1739	2.81854e+02	1.73900e+03	1.93336e+00	2.79833e+02
1743	2.82524e+02	1.74300e+03	1.93241e+00	2.80500e+02
1747	2.83191e+02	1.74700e+03	1.93143e+00	2.81167e+02
1751	2.83847e+02	1.75100e+03	1.93041e+00	2.81833e+02
1755	2.84517e+02	1.75500e+03	1.92935e+00	2.82500e+02
1759	2.85180e+02	1.75900e+03	1.92824e+00	2.83167e+02
1763	2.85856e+02	1.76300e+03	1.92715e+00	2.83833e+02
1767	2.86495e+02	1.76700e+03	1.92594e+00	2.84500e+02
1771	2.87165e+02	1.77100e+03	1.92456e+00	2.85167e+02
1775	2.87836e+02	1.77500e+03	1.92320e+00	2.85833e+02
1779	2.88496e+02	1.77900e+03	1.92188e+00	2.86500e+02
1783	2.89158e+02	1.78300e+03	1.92053e+00	2.87167e+02
1787	2.89807e+02	1.78700e+03	1.91913e+00	2.87833e+02
1791	2.90464e+02	1.79100e+03	1.91766e+00	2.88500e+02
1795	2.91128e+02	1.79500e+03	1.91612e+00	2.89167e+02
1799	2.91762e+02	1.79900e+03	1.91448e+00	2.89833e+02
1803	2.92421e+02	1.80300e+03	1.91277e+00	2.90500e+02
1807	2.93069e+02	1.80700e+03	1.91098e+00	2.91167e+02
1811	2.93716e+02	1.81100e+03	1.90896e+00	2.91833e+02
1815	2.94346e+02	1.81500e+03	1.90681e+00	2.92500e+02
1819	2.94986e+02	1.81900e+03	1.90515e+00	2.93167e+02
1823	2.95631e+02	1.82300e+03	1.90377e+00	2.93833e+02
1827	2.96275e+02	1.82700e+03	1.90170e+00	2.94500e+02
1831	2.96903e+02	1.83100e+03	1.89937e+00	2.95167e+02
1835	2.97546e+02	1.83500e+03	1.89728e+00	2.95833e+02
1839	2.98180e+02	1.83900e+03	1.89516e+00	2.96500e+02
1843	2.98819e+02	1.84300e+03	1.89308e+00	2.97167e+02
1847	2.99467e+02	1.84700e+03	1.89069e+00	2.97833e+02
1851	3.00089e+02	1.85100e+03	1.88831e+00	2.98500e+02
1855	3.00735e+02	1.85500e+03	1.88606e+00	2.99167e+02
1859	3.01387e+02	1.85900e+03	1.88359e+00	2.99833e+02
1863	3.02029e+02	1.86300e+03	1.88133e+00	3.00500e+02
1867	3.02689e+02	1.86700e+03	1.87901e+00	3.01167e+02
1871	3.03350e+02	1.87100e+03	1.87653e+00	3.01833e+02
1875	3.03999e+02	1.87500e+03	1.87429e+00	3.02500e+02
1879	3.04664e+02	1.87900e+03	1.87218e+00	3.03167e+02
1883	3.05324e+02	1.88300e+03	1.86993e+00	3.03833e+02
1887	3.06000e+02	1.88700e+03	1.86765e+00	3.04500e+02
1891	3.06662e+02	1.89100e+03	1.86540e+00	3.05167e+02
1895	3.07330e+02	1.89500e+03	1.86320e+00	3.05833e+02
1899	3.07992e+02	1.89900e+03	1.86103e+00	3.06500e+02
1903	3.08661e+02	1.90300e+03	1.85896e+00	3.07167e+02
1907	3.09326e+02	1.90700e+03	1.85690e+00	3.07833e+02
1911	3.09985e+02	1.91100e+03	1.85457e+00	3.08500e+02
1915	3.10652e+02	1.91500e+03	1.85213e+00	3.09167e+02
1919	3.11319e+02	1.91900e+03	1.84996e+00	3.09833e+02
1923	3.11986e+02	1.92300e+03	1.84783e+00	3.10500e+02
1927	3.12655e+02	1.92700e+03	1.84550e+00	3.11167e+02
1931	3.13321e+02	1.93100e+03	1.84310e+00	3.11833e+02
1935	3.13963e+02	1.93500e+03	1.84081e+00	3.12500e+02
1939	3.14636e+02	1.93900e+03	1.83863e+00	3.13167e+02
1943	3.15305e+02	1.94300e+03	1.83628e+00	3.13833e+02
1947	3.15975e+02	1.94700e+03	1.83372e+00	3.14500e+02
1951	3.16638e+02	1.95100e+03	1.83112e+00	3.15167e+02
1955	3.17307e+02	1.95500e+03	1.82847e+00	3.15833e+02
1959	3.17957e+02	1.95900e+03	1.82567e+00	3.16500e+02
1963	3.18610e+02	1.96300e+03	1.82278e+00	3.17167e+02
1967	3.19280e+02	1.96700e+03	1.81980e+00	3.17833e+02
1971	3.19938e+02	1.97100e+03	1.81669e+00	3.18500e+02
1975	3.20599e+02	1.97500e+03	1.81355e+00	3.19167e+02
1979	3.21259e+02	1.97900e+03	1.81031e+00	3.19833e+02
1983	3.21926e+02	1.98300e+03	1.80678e+00	3.20500e+02
1987	3.22597e+02	1.98700e+03	1.80301e+00	3.21167e+02
1991	3.23250e+02	1.99100e+03	1.79928e+00	3.21833e+02
1995	3.23906e+02	1.99500e+03	1.79551e+00	3.22500e+02
1999	3.24581e+02	1.99900e+03	1.79142e+00	3.23167e+02
2003	3.25239e+02	2.00300e+03	1.78706e+00	3.23833e+02
2007	3.25890e+02	2.00700e+03	1.78264e+00	3.24500e+02
2011	3.26564e+02	2.01100e+03	1.77804e+00	3.25167e+02
2015	3.27225e+02	2.01500e+03	1.77310e+00	3.25833e+02
2019	3.27889e+02	2.01900e+03	1.76799e+00	3.26500e+02
2023	3.28549e+02	2.02300e+03	1.76268e+00	3.27167e+02
2027	3.29204e+02	2.02700e+03	1.75715e+00	3.27833e+02
2031	3.29868e+02	2.03100e+03	1.75141e+00	3.28500e+02
2035	3.30538e+02	2.03500e+03	1.74534e+00	3.29167e+02
2039	3.31200e+02	2.03900e+03	1.73901e+00	3.29833e+02
2043	3.31862e+02	2.04300e+03	1.73264e+00	3.30500e+02
2047	3.32527e+02	2.04700e+03	1.72610e+00	3.31167e+02
2051	3.33194e+02	2.05100e+03	1.71885e+00	3.31833e+02
2055	3.33854e+02	2.05500e+03	1.71082e+00	3.32500e+02
2059	3.34499e+02	2.05900e+03	1.70264e+00	3.33167e+02
2063	3.35172e+02	2.06300e+03	1.69480e+00	3.33833e+02
2067	3.35823e+02	2.06700e+03	1.68686e+00	3.34500e+02
2071	3.36499e+02	2.07100e+03	1.67813e+00	3.35167e+02
2075	3.37161e+02	2.07500e+03	1.66854e+00	3.35833e+02
2079	3.37821e+02	2.07900e+03	1.65855e+00	3.36500e+02
2083	3.38476e+02	2.08300e+03	1.64843e+00	3.37167e+02
2087	3.39141e+02	2.08700e+03	1.63803e+00	3.37833e+02
2091	3.39807e+02	2.09100e+03	1.62725e+00	3.38500e+02
2095	3.40477e+02	2.09500e+03	1.61606e+00	3.39167e+02
2099	3.41126e+02	2.09900e+03	1.60440e+00	3.39833e+02
2103	3.41779e+02	2.10300e+03	1.59230e+00	3.40500e+02
2107	3.42439e+02	2.10700e+03	1.57981e+00	3.41167e+02
2111	3.43098e+02	2.11100e+03	1.56694e+00	3.41833e+02
2115	3.43762e+02	2.11500e+03	1.55359e+00	3.42500e+02
2119	3.44426e+02	2.11900e+03	1.53976e+00	3.43167e+02
2123	3.45081e+02	2.12300e+03	1.52557e+00	3.43833e+02
2127	3.45752e+02	2.12700e+03	1.51092e+00	3.44500e+02
2131	3.46404e+02	2.13100e+03	1.49586e+00	3.45167e+02
2135	3.47077e+02	2.13500e+03	1.48069e+00	3.45833e+02
2139	3.47720e+02	2.13900e+03	1.46535e+00	3.46500e+02
2143	3.48389e+02	2.14300e+03	1.44931e+00	3.47167e+02
2147	3.49042e+02	2.14700e+03	1.43248e+00	3.47833e+02
2151	3.49713e+02	2.15100e+03	1.41531e+00	3.48500e+02
2155	3.50369e+02	2.15500e+03	1.39798e+00	3.49167e+02
2159	3.51031e+02	2.15900e+03	1.38022e+00	3.49833e+02
2163	3.51686e+02	2.16300e+03	1.36202e+00	3.50500e+02
2167	3.52351e+02	2.16700e+03	1.34358e+00	3.51167e+02
2171	3.53009e+02	2.17100e+03	1.32487e+00	3.51833e+02
2175	3.53673e+02	2.17500e+03	1.30586e+00	3.52500e+02
2179	3.54333e+02	2.17900e+03	1.28660e+00	3.53167e+02
2183	3.54994e+02	2.18300e+03	1.26700e+00	3.53833e+02
2187	3.55652e+02	2.18700e+03	1.24702e+00	3.54500e+02
2191	3.56290e+02	2.19100e+03	1.22670e+00	3.55167e+02
2195	3.56955e+02	2.19500e+03	1.20605e+00	3.55833e+02
2199	3.57603e+02	2.19900e+03	1.18513e+00	3.56500e+02
2203	3.58258e+02	2.20300e+03	1.16388e+00	3.57167e+02
2207	3.58928e+02	2.20700e+03	1.14230e+00	3.57833e+02
2211	3.59587e+02	2.21100e+03	1.12053e+00	3.58500e+02
2215	3.60254e+02	2.21500e+03	1.09869e+00	3.59167e+02
2219	3.60903e+02	2.21900e+03	1.07673e+00	3.59833e+02
2223	3.61571e+02	2.22300e+03	1.05460e+00	3.60500e+02
2227	3.62241e+02	2.22700e+03	1.03236e+00	3.61167e+02
2231	3.62905e+02	2.23100e+03	1.01001e+00	3.61833e+02
2235	3.63578e+02	2.23500e+03	9.87646e-01	3.62500e+02
2239	3.64243e+02	2.23900e+03	9.65355e-01	3.63167e+02
2243	3.64906e+02	2.24300e+03	9.43111e-01	3.63833e+02
2247	3.65570e+02	2.24700e+03	9.20459e-01	3.64500e+02
2251	3.66245e+02	2.25100e+03	8.97272e-01	3.65167e+02
2255	3.66920e+02	2.25500e+03	8.74367e-01	3.65833e+02
2259	3.67570e+02	2.25900e+03	8.52065e-01	3.66500e+02
2263	3.68234e+02	2.26300e+03	8.29198e-01	3.67167e+02
2267	3.68905e+02	2.26700e+03	8.05713e-01	3.67833e+02
2271	3.69578e+02	2.27100e+03	7.82440e-01	3.68500e+02
2275	3.70242e+02	2.27500e+03	7.59252e-01	3.69167e+02
2279	3.70915e+02	2.27900e+03	7.36273e-01	3.69833e+02
2283	3.71582e+02	2.28300e+03	7.13653e-01	3.70500e+02
2287	3.72254e+02	2.28700e+03	6.91110e-01	3.71167e+02
2291	3.72926e+02	2.29100e+03	6.68740e-01	3.71833e+02
2295	3.73587e+02	2.29500e+03	6.46894e-01	3.72500e+02
2299	3.74245e+02	2.29900e+03	6.25379e-01	3.73167e+02
2303	3.74919e+02	2.30300e+03	6.04054e-01	3.73833e+02
2307	3.75579e+02	2.30700e+03	5.83141e-01	3.74500e+02
2311	3.76247e+02	2.31100e+03	5.62671e-01	3.75167e+02
2315	3.76907e+02	2.31500e+03	5.42541e-01	3.75833e+02
2319	3.77573e+02	2.31900e+03	5.22826e-01	3.76500e+02
2323	3.78246e+02	2.32300e+03	5.03601e-01	3.77167e+02
2327	3.78925e+02	2.32700e+03	4.84843e-01	3.77833e+02
2331	3.79591e+02	2.33100e+03	4.66420e-01	3.78500e+02
2335	3.80255e+02	2.33500e+03	4.48390e-01	3.79167e+02
2339	3.80927e+02	2.33900e+03	4.30885e-01	3.79833e+02
2343	3.81592e+02	2.34300e+03	4.13898e-01	3.80500e+02
2347	3.82281e+02	2.34700e+03	3.97529e-01	3.81167e+02
2351	3.82949e+02	2.35100e+03	3.81686e-01	3.81833e+02
2355	3.83614e+02	2.35500e+03	3.66345e-01	3.82500e+02
2359	3.84288e+02	2.35900e+03	3.51459e-01	3.83167e+02
2363	3.84962e+02	2.36300e+03	3.36828e-01	3.83833e+02
2367	3.85636e+02	2.36700e+03	3.22486e-01	3.84500e+02
2371	3.86308e+02	2.37100e+03	3.08877e-01	3.85167e+02
2375	3.86973e+02	2.37500e+03	2.96293e-01	3.85833e+02
2379	3.87651e+02	2.37900e+03	2.84195e-01	3.86500e+02
2383	3.88353e+02	2.38300e+03	2.72187e-01	3.87167e+02
2387	3.89021e+02	2.38700e+03	2.60669e-01	3.87833e+02
2391	3.89688e+02	2.39100e+03	2.49778e-01	3.88500e+02
2395	3.90367e+02	2.39500e+03	2.39195e-01	3.89167e+02
2399	3.91037e+02	2.39900e+03	2.28981e-01	3.89833e+02
2403	3.91707e+02	2.40300e+03	2.19259e-01	3.90500e+02
2407	3.92375e+02	2.40700e+03	2.09960e-01	3.91167e+02
2411	3.93038e+02	2.41100e+03	2.01086e-01	3.91833e+02
2415	3.93716e+02	2.41500e+03	1.92674e-01	3.92500e+02
2419	3.94381e+02	2.41900e+03	1.84705e-01	3.93167e+02
2423	3.95057e+02	2.42300e+03	1.77177e-01	3.93833e+02
2427	3.95713e+02	2.42700e+03	1.70095e-01	3.94500e+02
2431	3.96370e+02	2.43100e+03	1.63388e-01	3.95167e+02
2435	3.97041e+02	2.43500e+03	1.56979e-01	3.95833e+02
2439	3.97693e+02	2.43900e+03	1.50817e-01	3.96500e+02
2443	3.98374e+02	2.44300e+03	1.44937e-01	3.97167e+02
2447	3.99026e+02	2.44700e+03	1.39393e-01	3.97833e+02
2451	3.99696e+02	2.45100e+03	1.34183e-01	3.98500e+02
2455	4.00371e+02	2.45500e+03	1.29346e-01	3.99167e+02
2459	4.01049e+02	2.45900e+03	1.24847e-01	3.99833e+02
2463	4.01736e+02	2.46300e+03	1.20547e-01	4.00500e+02
2467	4.02407e+02	2.46700e+03	1.16377e-01	4.01167e+02
2471	4.03076e+02	2.47100e+03	1.12469e-01	4.01833e+02
2475	4.03727e+02	2.47500e+03	1.09039e-01	4.02500e+02
2479	4.04408e+02	2.47900e+03	1.05939e-01	4.03167e+02
2483	4.05067e+02	2.48300e+03	1.02929e-01	4.03833e+02
2487	4.05729e+02	2.48700e+03	1.00005e-01	4.04500e+02
2491	4.06397e+02	2.49100e+03	9.72821e-02	4.05167e+02
2495	4.07058e+02	2.49500e+03	9.48585e-02	4.05833e+02
2499	4.07715e+02	2.49900e+03	9.26174e-02	4.06500e+02
2503	4.08376e+02	2.50300e+03	9.04329e-02	4.07167e+02
2507	4.09047e+02	2.50700e+03	8.84011e-02	4.07833e+02
2511	4.09715e+02	2.51100e+03	8.65202e-02	4.08500e+02
2515	4.10388e+02	2.51500e+03	8.47738e-02	4.09167e+02
2519	4.11052e+02	2.51900e+03	8.32085e-02	4.09833e+02
2523	4.11717e+02	2.52300e+03	8.17317e-02	4.10500e+02
2527	4.12366e+02	2.52700e+03	8.03434e-02	4.11167e+02
2531	4.13035e+02	2.53100e+03	7.90840e-02	4.11833e+02
2535	4.13705e+02	2.53500e+03	7.79607e-02	4.12500e+02
2539	4.14361e+02	2.53900e+03	7.69504e-02	4.13167e+02
2543	4.15032e+02	2.54300e+03	7.59475e-02	4.13833e+02
2547	4.15686e+02	2.54700e+03	7.49672e-02	4.14500e+02
2551	4.16346e+02	2.55100e+03	7.41293e-02	4.15167e+02
2555	4.17014e+02	2.55500e+03	7.34194e-02	4.15833e+02
2559	4.17690e+02	2.55900e+03	7.27334e-02	4.16500e+02
2563	4.18354e+02	2.56300e+03	7.20505e-02	4.17167e+02
2567	4.19021e+02	2.56700e+03	7.13945e-02	4.17833e+02
2571	4.19679e+02	2.57100e+03	7.08183e-02	4.18500e+02
2575	4.20350e+02	2.57500e+03	7.03135e-02	4.19167e+02
2579	4.21008e+02	2.57900e+03	6.98598e-02	4.19833e+02
2583	4.21670e+02	2.58300e+03	6.94575e-02	4.20500e+02
2587	4.22338e+02	2.58700e+03	6.90133e-02	4.21167e+02
2591	4.22986e+02	2.59100e+03	6.85538e-02	4.21833e+02
2595	4.23645e+02	2.59500e+03	6.81474e-02	4.22500e+02
2599	4.24311e+02	2.59900e+03	6.77423e-02	4.23167e+02
2603	4.24963e+02	2.60300e+03	6.73309e-02	4.23833e+02
2607	4.25613e+02	2.60700e+03	6.69675e-02	4.24500e+02
2611	4.26264e+02	2.61100e+03	6.66842e-02	4.25167e+02
2615	4.26925e+02	2.61500e+03	6.64711e-02	4.25833e+02
2619	4.27588e+02	2.61900e+03	6.63530e-02	4.26500e+02
2623	4.28241e+02	2.62300e+03	6.63004e-02	4.27167e+02
2627	4.28876e+02	2.62700e+03	6.62225e-02	4.27833e+02
2631	4.29528e+02	2.63100e+03	6.60747e-02	4.28500e+02
2635	4.30186e+02	2.63500e+03	6.58780e-02	4.29167e+02
2639	4.30838e+02	2.63900e+03	6.56944e-02	4.29833e+02
2643	4.31498e+02	2.64300e+03	6.55206e-02	4.30500e+02
2647	4.32145e+02	2.64700e+03	6.53623e-02	4.31167e+02
2651	4.32805e+02	2.65100e+03	6.52585e-02	4.31833e+02
2655	4.33451e+02	2.65500e+03	6.51779e-02	4.32500e+02
2659	4.34126e+02	2.65900e+03	6.50809e-02	4.33167e+02
2663	4.34787e+02	2.66300e+03	6.49719e-02	4.33833e+02
2667	4.35439e+02	2.66700e+03	6.48596e-02	4.34500e+02
2671	4.36110e+02	2.67100e+03	6.47596e-02	4.35167e+02
2675	4.36751e+02	2.67500e+03	6.46877e-02	4.35833e+02
2679	4.37405e+02	2.67900e+03	6.45939e-02	4.36500e+02
2683	4.38063e+02	2.68300e+03	6.44407e-02	4.37167e+02
2687	4.38727e+02	2.68700e+03	6.43824e-02	4.37833e+02
2691	4.39374e+02	2.69100e+03	6.44349e-02	4.38500e+02
2695	4.40026e+02	2.69500e+03	6.44359e-02	4.39167e+02
2699	4.40686e+02	2.69900e+03	6.44048e-02	4.39833e+02
2703	4.41331e+02	2.70300e+03	6.43744e-02	4.40500e+02
2707	4.41986e+02	2.70700e+03	6.42946e-02	4.41167e+02
2711	4.42636e+02	2.71100e+03	6.41612e-02	4.41833e+02
2715	4.43284e+02	2.71500e+03	6.40300e-02	4.42500e+02
2719	4.43949e+02	2.71900e+03	6.40201e-02	4.43167e+02
2723	4.44576e+02	2.72300e+03	6.41118e-02	4.43833e+02
2727	4.45218e+02	2.72700e+03	6.41410e-02	4.44500e+02
2731	4.45850e+02	2.73100e+03	6.40980e-02	4.45167e+02
2735	4.46505e+02	2.73500e+03	6.40967e-02	4.45833e+02
2739	4.47148e+02	2.73900e+03	6.41074e-02	4.46500e+02
2743	4.47790e+02	2.74300e+03	6.40684e-02	4.47167e+02
2747	4.48446e+02	2.74700e+03	6.40748e-02	4.47833e+02
2751	4.49102e+02	2.75100e+03	6.40975e-02	4.48500e+02
2755	4.49743e+02	2.75500e+03	6.40216e-02	4.49167e+02
2759	4.50399e+02	2.75900e+03	6.38722e-02	4.49833e+02
2763	4.51055e+02	2.76300e+03	6.37289e-02	4.50500e+02
2767	4.51707e+02	2.76700e+03	6.36386e-02	4.51167e+02
2771	4.52368e+02	2.77100e+03	6.36757e-02	4.51833e+02
2775	4.53031e+02	2.77500e+03	6.37126e-02	4.52500e+02
2779	4.53689e+02	2.77900e+03	6.36593e-02	4.53167e+02
2783	4.54341e+02	2.78300e+03	6.36508e-02	4.53833e+02
2787	4.54997e+02	2.78700e+03	6.36751e-02	4.54500e+02
2791	4.55653e+02	2.79100e+03	6.37043e-02	4.55167e+02
2795	4.56321e+02	2.79500e+03	6.37349e-02	4.55833e+02
2799	4.56974e+02	2.79900e+03	6.37880e-02	4.56500e+02
2803	4.57632e+02	2.80300e+03	6.38171e-02	4.57167e+02
2807	4.58297e+02	2.80700e+03	6.37674e-02	4.57833e+02
2811	4.58954e+02	2.81100e+03	6.37219e-02	4.58500e+02
2815	4.59607e+02	2.81500e+03	6.36707e-02	4.59167e+02
2819	4.60266e+02	2.81900e+03	6.35557e-02	4.59833e+02
2823	4.60933e+02	2.82300e+03	6.34694e-02	4.60500e+02
2827	4.61596e+02	2.82700e+03	6.34366e-02	4.61167e+02
2831	4.62252e+02	2.83100e+03	6.34217e-02	4.61833e+02
2835	4.62914e+02	2.83500e+03	6.34339e-02	4.62500e+02
2839	4.63578e+02	2.83900e+03	6.33911e-02	4.63167e+02
2843	4.64216e+02	2.84300e+03	6.33213e-02	4.63833e+02
2847	4.64886e+02	2.84700e+03	6.33395e-02	4.64500e+02
2851	4.65549e+02	2.85100e+03	6.34076e-02	4.65167e+02
2855	4.66205e+02	2.85500e+03	6.33777e-02	4.65833e+02
2859	4.66869e+02	2.85900e+03	6.33130e-02	4.66500e+02
2863	4.67518e+02	2.86300e+03	6.33945e-02	4.67167e+02
2867	4.68174e+02	2.86700e+03	6.34562e-02	4.67833e+02
2871	4.68837e+02	2.87100e+03	6.33873e-02	4.68500e+02
2875	4.69492e+02	2.87500e+03	6.32913e-02	4.69167e+02
2879	4.70147e+02	2.87900e+03	6.32662e-02	4.69833e+02
2883	4.70813e+02	2.88300e+03	6.33176e-02	4.70500e+02
2887	4.71487e+02	2.88700e+03	6.33057e-02	4.71167e+02
2891	4.72130e+02	2.89100e+03	6.34991e-02	4.71833e+02
2895	4.72777e+02	2.89500e+03	6.36295e-02	4.72500e+02
2899	4.73440e+02	2.89900e+03	6.30379e-02	4.73167e+02
2903	4.74095e+02	2.90300e+03	6.25371e-02	4.73833e+02
2907	4.74751e+02	2.90700e+03	6.26007e-02	4.74500e+02
2911	4.75413e+02	2.91100e+03	6.29072e-02	4.75167e+02
2915	4.76052e+02	2.91500e+03	6.32106e-02	4.75833e+02
2919	4.76719e+02	2.91900e+03	6.32539e-02	4.76500e+02
2923	4.77379e+02	2.92300e+03	6.31262e-02	4.77167e+02
2927	4.78024e+02	2.92700e+03	6.29823e-02	4.77833e+02
2931	4.78698e+02	2.93100e+03	6.29933e-02	4.78500e+02
2935	4.79351e+02	2.93500e+03	6.30789e-02	4.79167e+02
2939	4.80013e+02	2.93900e+03	6.30629e-02	4.79833e+02
2943	4.80668e+02	2.94300e+03	6.30609e-02	4.80500e+02
2947	4.81325e+02	2.94700e+03	6.31051e-02	4.81167e+02
2951	4.81986e+02	2.95100e+03	6.30672e-02	4.81833e+02
2955	4.82632e+02	2.95500e+03	6.30241e-02	4.82500e+02
2959	4.83296e+02	2.95900e+03	6.29864e-02	4.83167e+02
2963	4.83957e+02	2.96300e+03	6.28977e-02	4.83833e+02
2967	4.84610e+02	2.96700e+03	6.28304e-02	4.84500e+02
2971	4.85273e+02	2.97100e+03	6.29420e-02	4.85167e+02
2975	4.85932e+02	2.97500e+03	6.30027e-02	4.85833e+02
2979	4.86597e+02	2.97900e+03	6.31367e-02	4.86500e+02
2983	4.87255e+02	2.98300e+03	6.33056e-02	4.87167e+02
2987	4.87906e+02	2.98700e+03	6.30360e-02	4.87833e+02
2991	4.88571e+02	2.99100e+03	6.28253e-02	4.88500e+02
2995	4.89230e+02	2.99500e+03	6.29486e-02	4.89167e+02
2999	4.89879e+02	2.99900e+03	6.30486e-02	4.89833e+02
3003	4.90537e+02	3.00300e+03	6.30990e-02	4.90500e+02
3007	4.91201e+02	3.00700e+03	6.31795e-02	4.91167e+02
3011	4.91854e+02	3.01100e+03	6.31852e-02	4.91833e+02
3015	4.92515e+02	3.01500e+03	6.32160e-02	4.92500e+02
3019	4.93177e+02	3.01900e+03	6.33122e-02	4.93167e+02
3023	4.93824e+02	3.02300e+03	6.33610e-02	4.93833e+02
3027	4.94483e+02	3.02700e+03	6.33391e-02	4.94500e+02
3031	4.95143e+02	3.03100e+03	6.32112e-02	4.95167e+02
3035	4.95811e+02	3.03500e+03	6.29607e-02	4.95833e+02
3039	4.96473e+02	3.03900e+03	6.27364e-02	4.96500e+02
3043	4.97133e+02	3.04300e+03	6.27912e-02	4.97167e+02
3047	4.97792e+02	3.04700e+03	6.29141e-02	4.97833e+02
3051	4.98448e+02	3.05100e+03	6.29391e-02	4.98500e+02
3055	4.99113e+02	3.05500e+03	6.29543e-02	4.99167e+02
3059	4.99772e+02	3.05900e+03	6.29223e-02	4.99833e+02
3063	5.00430e+02	3.06300e+03	6.28968e-02	5.00500e+02
3067	5.01094e+02	3.06700e+03	6.29178e-02	5.01167e+02
3071	5.01751e+02	3.07100e+03	6.29580e-02	5.01833e+02
3075	5.02398e+02	3.07500e+03	6.28887e-02	5.02500e+02
3079	5.03067e+02	3.07900e+03	6.28036e-02	5.03167e+02
3083	5.03728e+02	3.08300e+03	6.28666e-02	5.03833e+02
3087	5.04385e+02	3.08700e+03	6.29615e-02	5.04500e+02
3091	5.05042e+02	3.09100e+03	6.29800e-02	5.05167e+02
3095	5.05705e+02	3.09500e+03	6.29488e-02	5.05833e+02
3099	5.06373e+02	3.09900e+03	6.29310e-02	5.06500e+02
3103	5.07030e+02	3.10300e+03	6.29361e-02	5.07167e+02
3107	5.07694e+02	3.10700e+03	6.29774e-02	5.07833e+02
3111	5.08357e+02	3.11100e+03	6.30391e-02	5.08500e+02
3115	5.09012e+02	3.11500e+03	6.30569e-02	5.09167e+02
3119	5.09684e+02	3.11900e+03	6.29998e-02	5.09833e+02
3123	5.10338e+02	3.12300e+03	6.28921e-02	5.10500e+02
3127	5.11003e+02	3.12700e+03	6.28470e-02	5.11167e+02
3131	5.11663e+02	3.13100e+03	6.29236e-02	5.11833e+02
3135	5.12329e+02	3.13500e+03	6.30131e-02	5.12500e+02
3139	5.12988e+02	3.13900e+03	6.30480e-02	5.13167e+02
3143	5.13654e+02	3.14300e+03	6.30402e-02	5.13833e+02
3147	5.14314e+02	3.14700e+03	6.30175e-02	5.14500e+02
3151	5.14977e+02	3.15100e+03	6.30779e-02	5.15167e+02
3155	5.15629e+02	3.15500e+03	6.32005e-02	5.15833e+02
3159	5.16287e+02	3.15900e+03	6.32326e-02	5.16500e+02
3163	5.16954e+02	3.16300e+03	6.31813e-02	5.17167e+02
3167	5.17614e+02	3.16700e+03	6.30920e-02	5.17833e+02
3171	5.18276e+02	3.17100e+03	6.30305e-02	5.18500e+02
3175	5.18944e+02	3.17500e+03	6.31041e-02	5.19167e+02
3179	5.19613e+02	3.17900e+03	6.31682e-02	5.19833e+02
3183	5.20285e+02	3.18300e+03	6.31432e-02	5.20500e+02
3187	5.20952e+02	3.18700e+03	6.31297e-02	5.21167e+02
3191	5.21608e+02	3.19100e+03	6.30693e-02	5.21833e+02
3195	5.22280e+02	3.19500e+03	6.29675e-02	5.22500e+02
3199	5.22951e+02	3.19900e+03	6.29276e-02	5.23167e+02
3203	5.23617e+02	3.20300e+03	6.29986e-02	5.23833e+02
3207	5.24292e+02	3.20700e+03	6.31270e-02	5.24500e+02
3211	5.24948e+02	3.21100e+03	6.31832e-02	5.25167e+02
3215	5.25596e+02	3.21500e+03	6.31268e-02	5.25833e+02
3219	5.26265e+02	3.21900e+03	6.30691e-02	5.26500e+02
3223	5.26912e+02	3.22300e+03	6.30777e-02	5.27167e+02
3227	5.27563e+02	3.22700e+03	6.30588e-02	5.27833e+02
3231	5.28241e+02	3.23100e+03	6.30091e-02	5.28500e+02
3235	5.28885e+02	3.23500e+03	6.29616e-02	5.29167e+02
3239	5.29550e+02	3.23900e+03	6.28585e-02	5.29833e+02
3243	5.30213e+02	3.24300e+03	6.27584e-02	5.30500e+02
3247	5.30872e+02	3.24700e+03	6.27386e-02	5.31167e+02
3251	5.31542e+02	3.25100e+03	6.27554e-02	5.31833e+02
3255	5.32212e+02	3.25500e+03	6.27511e-02	5.32500e+02
3259	5.32870e+02	3.25900e+03	6.27594e-02	5.33167e+02
3263	5.33525e+02	3.26300e+03	6.27964e-02	5.33833e+02
3267	5.34187e+02	3.26700e+03	6.28237e-02	5.34500e+02
3271	5.34840e+02	3.27100e+03	6.28213e-02	5.35167e+02
3275	5.35502e+02	3.27500e+03	6.27521e-02	5.35833e+02
3279	5.36168e+02	3.27900e+03	6.26208e-02	5.36500e+02
3283	5.36825e+02	3.28300e+03	6.25487e-02	5.37167e+02
3287	5.37494e+02	3.28700e+03	6.25650e-02	5.37833e+02
3291	5.38166e+02	3.29100e+03	6.26374e-02	5.38500e+02
3295	5.38823e+02	3.29500e+03	6.27449e-02	5.39167e+02
3299	5.39484e+02	3.29900e+03	6.28911e-02	5.39833e+02
3303	5.40162e+02	3.30300e+03	6.30805e-02	5.40500e+02
3307	5.40797e+02	3.30700e+03	6.34000e-02	5.41167e+02
3311	5.41450e+02	3.31100e+03	6.32503e-02	5.41833e+02
3315	5.42093e+02	3.31500e+03	6.24330e-02	5.42500e+02
3319	5.42747e+02	3.31900e+03	6.20466e-02	5.43167e+02
3323	5.43400e+02	3.32300e+03	6.22998e-02	5.43833e+02
3327	5.44070e+02	3.32700e+03	6.27325e-02	5.44500e+02
3331	5.44721e+02	3.33100e+03	6.30431e-02	5.45167e+02
3335	5.45380e+02	3.33500e+03	6.30613e-02	5.45833e+02
3339	5.46036e+02	3.33900e+03	6.29434e-02	5.46500e+02
3343	5.46688e+02	3.34300e+03	6.28624e-02	5.47167e+02
3347	5.47344e+02	3.34700e+03	6.28461e-02	5.47833e+02
3351	5.48004e+02	3.35100e+03	6.28657e-02	5.48500e+02
3355	5.48656e+02	3.35500e+03	6.28662e-02	5.49167e+02
3359	5.49312e+02	3.35900e+03	6.28494e-02	5.49833e+02
3363	5.49967e+02	3.36300e+03	6.28736e-02	5.50500e+02
3367	5.50630e+02	3.36700e+03	6.28937e-02	5.51167e+02
3371	5.51288e+02	3.37100e+03	6.28009e-02	5.51833e+02
3375	5.51947e+02	3.37500e+03	6.26443e-02	5.52500e+02
3379	5.52599e+02	3.37900e+03	6.25969e-02	5.53167e+02
3383	5.53267e+02	3.38300e+03	6.26860e-02	5.53833e+02
3387	5.53929e+02	3.38700e+03	6.28226e-02	5.54500e+02
3391	5.54592e+02	3.39100e+03	6.29395e-02	5.55167e+02
3395	5.55250e+02	3.39500e+03	6.28929e-02	5.55833e+02
3399	5.55913e+02	3.39900e+03	6.27078e-02	5.56500e+02
3403	5.56575e+02	3.40300e+03	6.26673e-02	5.57167e+02
3407	5.57230e+02	3.40700e+03	6.27453e-02	5.57833e+02
3411	5.57907e+02	3.41100e+03	6.27458e-02	5.58500e+02
3415	5.58564e+02	3.41500e+03	6.27699e-02	5.59167e+02
3419	5.59231e+02	3.41900e+03	6.28067e-02	5.59833e+02
3423	5.59885e+02	3.42300e+03	6.28453e-02	5.60500e+02
3427	5.60566e+02	3.42700e+03	6.28507e-02	5.61167e+02
3431	5.61218e+02	3.43100e+03	6.26583e-02	5.61833e+02
3435	5.61875e+02	3.43500e+03	6.25274e-02	5.62500e+02
3439	5.62537e+02	3.43900e+03	6.25786e-02	5.63167e+02
3443	5.63189e+02	3.44300e+03	6.26579e-02	5.63833e+02
3447	5.63853e+02	3.44700e+03	6.27488e-02	5.64500e+02
3451	5.64513e+02	3.45100e+03	6.27932e-02	5.65167e+02
3455	5.65167e+02	3.45500e+03	6.27562e-02	5.65833e+02
3459	5.65836e+02	3.45900e+03	6.27171e-02	5.66500e+02
3463	5.66503e+02	3.46300e+03	6.27212e-02	5.67167e+02
3467	5.67151e+02	3.46700e+03	6.27190e-02	5.67833e+02
3471	5.67816e+02	3.47100e+03	6.26498e-02	5.68500e+02
3475	5.68478e+02	3.47500e+03	6.26086e-02	5.69167e+02
3479	5.69143e+02	3.47900e+03	6.26543e-02	5.69833e+02
3483	5.69809e+02	3.48300e+03	6.26509e-02	5.70500e+02
3487	5.70476e+02	3.48700e+03	6.26558e-02	5.71167e+02
3491	5.71133e+02	3.49100e+03	6.27404e-02	5.71833e+02
3495	5.71806e+02	3.49500e+03	6.27331e-02	5.72500e+02
3499	5.72473e+02	3.49900e+03	6.26721e-02	5.73167e+02
3503	5.73132e+02	3.50300e+03	6.27133e-02	5.73833e+02
3507	5.73794e+02	3.50700e+03	6.27177e-02	5.74500e+02
3511	5.74446e+02	3.51100e+03	6.25582e-02	5.75167e+02
3515	5.75120e+02	3.51500e+03	6.24040e-02	5.75833e+02
3519	5.75777e+02	3.51900e+03	6.23871e-02	5.76500e+02
3523	5.76447e+02	3.52300e+03	6.24264e-02	5.77167e+02
3527	5.77114e+02	3.52700e+03	6.25262e-02	5.77833e+02
3531	5.77767e+02	3.53100e+03	6.26661e-02	5.78500e+02
3535	5.78452e+02	3.53500e+03	6.26670e-02	5.79167e+02
3539	5.79098e+02	3.53900e+03	6.28918e-02	5.79833e+02
3543	5.79753e+02	3.54300e+03	6.29328e-02	5.80500e+02
3547	5.80429e+02	3.54700e+03	6.24569e-02	5.81167e+02
3551	5.81094e+02	3.55100e+03	6.23456e-02	5.81833e+02
3555	5.81753e+02	3.55500e+03	6.25092e-02	5.82500e+02
3559	5.82424e+02	3.55900e+03	6.25352e-02	5.83167e+02
3563	5.83088e+02	3.56300e+03	6.24949e-02	5.83833e+02
3567	5.83765e+02	3.56700e+03	6.25078e-02	5.84500e+02
3571	5.84418e+02	3.57100e+03	6.26511e-02	5.85167e+02
3575	5.85091e+02	3.57500e+03	6.27133e-02	5.85833e+02
3579	5.85757e+02	3.57900e+03	6.25529e-02	5.86500e+02
3583	5.86429e+02	3.58300e+03	6.24278e-02	5.87167e+02
3587	5.87093e+02	3.58700e+03	6.24511e-02	5.87833e+02
3591	5.87751e+02	3.59100e+03	6.24558e-02	5.88500e+02
3595	5.88409e+02	3.59500e+03	6.23357e-02	5.89167e+02
3599	5.89076e+02	3.59900e+03	6.22143e-02	5.89833e+02
3603	5.89744e+02	3.60300e+03	6.21699e-02	5.90500e+02
3607	5.90400e+02	3.60700e+03	6.21574e-02	5.91167e+02
3611	5.91069e+02	3.61100e+03	6.22417e-02	5.91833e+02
3615	5.91727e+02	3.61500e+03	6.24251e-02	5.92500e+02
3619	5.92389e+02	3.61900e+03	6.25432e-02	5.93167e+02
3623	5.93062e+02	3.62300e+03	6.25093e-02	5.93833e+02
3627	5.93720e+02	3.62700e+03	6.24242e-02	5.94500e+02
3631	5.94390e+02	3.63100e+03	6.24450e-02	5.95167e+02
3635	5.95043e+02	3.63500e+03	6.25245e-02	5.95833e+02
3639	5.95706e+02	3.63900e+03	6.25316e-02	5.96500e+02
3643	5.96369e+02	3.64300e+03	6.24426e-02	5.97167e+02
3647	5.97048e+02	3.64700e+03	6.23425e-02	5.97833e+02
3651	5.97716e+02	3.65100e+03	6.22935e-02	5.98500e+02
3655	5.98367e+02	3.65500e+03	6.23186e-02	5.99167e+02
3659	5.99034e+02	3.65900e+03	6.25205e-02	5.99833e+02
3663	5.99691e+02	3.66300e+03	6.28414e-02	6.00500e+02
3667	6.00378e+02	3.66700e+03	6.25614e-02	6.01167e+02
3671	6.01040e+02	3.67100e+03	6.19827e-02	6.01833e+02
3675	6.01704e+02	3.67500e+03	6.20208e-02	6.02500e+02
3679	6.02379e+02	3.67900e+03	6.22162e-02	6.03167e+02
3683	6.03053e+02	3.68300e+03	6.22133e-02	6.03833e+02
3687	6.03708e+02	3.68700e+03	6.21757e-02	6.04500e+02
3691	6.04383e+02	3.69100e+03	6.21876e-02	6.05167e+02
3695	6.05049e+02	3.69500e+03	6.22382e-02	6.05833e+02
3699	6.05724e+02	3.69900e+03	6.22520e-02	6.06500e+02
3703	6.06401e+02	3.70300e+03	6.22242e-02	6.07167e+02
3707	6.07071e+02	3.70700e+03	6.22396e-02	6.07833e+02
3711	6.07742e+02	3.71100e+03	6.23014e-02	6.08500e+02
3715	6.08412e+02	3.71500e+03	6.23445e-02	6.09167e+02
3719	6.09082e+02	3.71900e+03	6.23826e-02	6.09833e+02
3723	6.09747e+02	3.72300e+03	6.24328e-02	6.10500e+02
3727	6.10425e+02	3.72700e+03	6.24319e-02	6.11167e+02
3731	6.11104e+02	3.73100e+03	6.24124e-02	6.11833e+02
3735	6.11772e+02	3.73500e+03	6.23798e-02	6.12500e+02
3739	6.12442e+02	3.73900e+03	6.23479e-02	6.13167e+02
3743	6.13118e+02	3.74300e+03	6.23186e-02	6.13833e+02
3747	6.13781e+02	3.74700e+03	6.22590e-02	6.14500e+02
3751	6.14439e+02	3.75100e+03	6.22450e-02	6.15167e+02
3755	6.15086e+02	3.75500e+03	6.22509e-02	6.15833e+02
3759	6.15754e+02	3.75900e+03	6.21850e-02	6.16500e+02
3763	6.16424e+02	3.76300e+03	6.22142e-02	6.17167e+02
3767	6.17095e+02	3.76700e+03	6.23341e-02	6.17833e+02
3771	6.17754e+02	3.77100e+03	6.23193e-02	6.18500e+02
3775	6.18409e+02	3.77500e+03	6.22375e-02	6.19167e+02
3779	6.19065e+02	3.77900e+03	6.22033e-02	6.19833e+02
3783	6.19736e+02	3.78300e+03	6.22275e-02	6.20500e+02
3787	6.20404e+02	3.78700e+03	6.22776e-02	6.21167e+02
3791	6.21074e+02	3.79100e+03	6.22688e-02	6.21833e+02
3795	6.21727e+02	3.79500e+03	6.21876e-02	6.22500e+02
3799	6.22391e+02	3.79900e+03	6.21262e-02	6.23167e+02
3803	6.23054e+02	3.80300e+03	6.20992e-02	6.23833e+02
3807	6.23699e+02	3.80700e+03	6.21308e-02	6.24500e+02
3811	6.24359e+02	3.81100e+03	6.22013e-02	6.25167e+02
3815	6.25023e+02	3.81500e+03	6.22949e-02	6.25833e+02
3819	6.25680e+02	3.81900e+03	6.23644e-02	6.26500e+02
3823	6.26344e+02	3.82300e+03	6.23189e-02	6.27167e+02
3827	6.27002e+02	3.82700e+03	6.22727e-02	6.27833e+02
3831	6.27690e+02	3.83100e+03	6.22990e-02	6.28500e+02
3835	6.28356e+02	3.83500e+03	6.23128e-02	6.29167e+02
3839	6.29013e+02	3.83900e+03	6.22935e-02	6.29833e+02
3843	6.29677e+02	3.84300e+03	6.22853e-02	6.30500e+02
3847	6.30342e+02	3.84700e+03	6.22283e-02	6.31167e+02
3851	6.31000e+02	3.85100e+03	6.21341e-02	6.31833e+02
3855	6.31676e+02	3.85500e+03	6.21499e-02	6.32500e+02
3859	6.32343e+02	3.85900e+03	6.22336e-02	6.33167e+02
3863	6.33019e+02	3.86300e+03	6.22424e-02	6.33833e+02
3867	6.33699e+02	3.86700e+03	6.21642e-02	6.34500e+02
3871	6.34348e+02	3.87100e+03	6.21205e-02	6.35167e+02
3875	6.35015e+02	3.87500e+03	6.21590e-02	6.35833e+02
3879	6.35693e+02	3.87900e+03	6.22317e-02	6.36500e+02
3883	6.36355e+02	3.88300e+03	6.23337e-02	6.37167e+02
3887	6.37034e+02	3.88700e+03	6.23889e-02	6.37833e+02
3891	6.37695e+02	3.89100e+03	6.23092e-02	6.38500e+02
3895	6.38362e+02	3.89500e+03	6.21574e-02	6.39167e+02
3899	6.39023e+02	3.89900e+03	6.20458e-02	6.39833e+02
3903	6.39681e+02	3.90300e+03	6.20228e-02	6.40500e+02
3907	6.40342e+02	3.90700e+03	6.20849e-02	6.41167e+02
3911	6.41005e+02	3.91100e+03	6.21684e-02	6.41833e+02
3915	6.41666e+02	3.91500e+03	6.22338e-02	6.42500e+02
3919	6.42329e+02	3.91900e+03	6.21978e-02	6.43167e+02
3923	6.42988e+02	3.92300e+03	6.20883e-02	6.43833e+02
3927	6.43644e+02	3.92700e+03	6.20098e-02	6.44500e+02
3931	6.44298e+02	3.93100e+03	6.19858e-02	6.45167e+02
3935	6.44947e+02	3.93500e+03	6.19990e-02	6.45833e+02
3939	6.45620e+02	3.93900e+03	6.19864e-02	6.46500e+02
3943	6.46280e+02	3.94300e+03	6.19829e-02	6.47167e+02
3947	6.46950e+02	3.94700e+03	6.20889e-02	6.47833e+02
3951	6.47600e+02	3.95100e+03	6.22113e-02	6.48500e+02
3955	6.48265e+02	3.95500e+03	6.22540e-02	6.49167e+02
3959	6.48931e+02	3.95900e+03	6.22772e-02	6.49833e+02
3963	6.49584e+02	3.96300e+03	6.22527e-02	6.50500e+02
3967	6.50231e+02	3.96700e+03	6.21369e-02	6.51167e+02
3971	6.50889e+02	3.97100e+03	6.19983e-02	6.51833e+02
3975	6.51559e+02	3.97500e+03	6.19995e-02	6.52500e+02
3979	6.52211e+02	3.97900e+03	6.20759e-02	6.53167e+02
3983	6.52898e+02	3.98300e+03	6.20666e-02	6.53833e+02
3987	6.53543e+02	3.98700e+03	6.20379e-02	6.54500e+02
3991	6.54210e+02	3.99100e+03	6.20975e-02	6.55167e+02
3995	6.54866e+02	3.99500e+03	6.21578e-02	6.55833e+02
3999	6.55533e+02	3.99900e+03	6.21162e-02	6.56500e+02
4003	6.56195e+02	4.00300e+03	6.20488e-02	6.57167e+02
4007	6.56868e+02	4.00700e+03	6.20185e-02	6.57833e+02
4011	6.57527e+02	4.01100e+03	6.19833e-02	6.58500e+02
4015	6.58184e+02	4.01500e+03	6.18921e-02	6.59167e+02
4019	6.58858e+02	4.01900e+03	6.18324e-02	6.59833e+02
4023	6.59516e+02	4.02300e+03	6.18619e-02	6.60500e+02
4027	6.60187e+02	4.02700e+03	6.19312e-02	6.61167e+02
4031	6.60847e+02	4.03100e+03	6.19614e-02	6.61833e+02
4035	6.61511e+02	4.03500e+03	6.19283e-02	6.62500e+02
4039	6.62179e+02	4.03900e+03	6.19214e-02	6.63167e+02
4043	6.62841e+02	4.04300e+03	6.19823e-02	6.63833e+02
4047	6.63505e+02	4.04700e+03	6.19962e-02	6.64500e+02
4051	6.64173e+02	4.05100e+03	6.19291e-02	6.65167e+02
4055	6.64846e+02	4.05500e+03	6.19027e-02	6.65833e+02
4059	6.65515e+02	4.05900e+03	6.19101e-02	6.66500e+02
4063	6.66181e+02	4.06300e+03	6.19166e-02	6.67167e+02
4067	6.66845e+02	4.06700e+03	6.19303e-02	6.67833e+02
4071	6.67521e+02	4.07100e+03	6.19091e-02	6.68500e+02
4075	6.68179e+02	4.07500e+03	6.18749e-02	6.69167e+02
4079	6.68859e+02	4.07900e+03	6.18329e-02	6.69833e+02
4083	6.69525e+02	4.08300e+03	6.17972e-02	6.70500e+02
4087	6.70201e+02	4.08700e+03	6.18275e-02	6.71167e+02
4091	6.70864e+02	4.09100e+03	6.18649e-02	6.71833e+02
4095	6.71528e+02	4.09500e+03	6.18703e-02	6.72500e+02
4099	6.72190e+02	4.09900e+03	6.19128e-02	6.73167e+02
4103	6.72861e+02	4.10300e+03	6.19687e-02	6.73833e+02
4107	6.73522e+02	4.10700e+03	6.19931e-02	6.74500e+02
4111	6.74189e+02	4.11100e+03	6.19556e-02	6.75167e+02
4115	6.74859e+02	4.11500e+03	6.18212e-02	6.75833e+02
4119	6.75520e+02	4.11900e+03	6.17366e-02	6.76500e+02
4123	6.76182e+02	4.12300e+03	6.17642e-02	6.77167e+02
4127	6.76850e+02	4.12700e+03	6.18062e-02	6.77833e+02
4131	6.77503e+02	4.13100e+03	6.18024e-02	6.78500e+02
4135	6.78181e+02	4.13500e+03	6.17447e-02	6.79167e+02
4139	6.78855e+02	4.13900e+03	6.16693e-02	6.79833e+02
4143	6.79518e+02	4.14300e+03	6.16316e-02	6.80500e+02
4147	6.80188e+02	4.14700e+03	6.15987e-02	6.81167e+02
4151	6.80850e+02	4.15100e+03	6.15830e-02	6.81833e+02
4155	6.81521e+02	4.15500e+03	6.16585e-02	6.82500e+02
4159	6.82189e+02	4.15900e+03	6.17597e-02	6.83167e+02
4163	6.82846e+02	4.16300e+03	6.17674e-02	6.83833e+02
4167	6.83513e+02	4.16700e+03	6.16970e-02	6.84500e+02
4171	6.84184e+02	4.17100e+03	6.16629e-02	6.85167e+02
4175	6.84851e+02	4.17500e+03	6.16411e-02	6.85833e+02
4179	6.85516e+02	4.17900e+03	6.16051e-02	6.86500e+02
4183	6.86179e+02	4.18300e+03	6.15878e-02	6.87167e+02
4187	6.86854e+02	4.18700e+03	6.16137e-02	6.87833e+02
4191	6.87525e+02	4.19100e+03	6.16692e-02	6.88500e+02
4195	6.88200e+02	4.19500e+03	6.17292e-02	6.89167e+02
4199	6.88865e+02	4.19900e+03	6.17841e-02	6.89833e+02
4203	6.89527e+02	4.20300e+03	6.18390e-02	6.90500e+02
4207	6.90203e+02	4.20700e+03	6.18885e-02	6.91167e+02
4211	6.90866e+02	4.21100e+03	6.19297e-02	6.91833e+02
4215	6.91532e+02	4.21500e+03	6.19193e-02	6.92500e+02
4219	6.92192e+02	4.21900e+03	6.18427e-02	6.93167e+02
4223	6.92859e+02	4.22300e+03	6.17690e-02	6.93833e+02
4227	6.93534e+02	4.22700e+03	6.16855e-02	6.94500e+02
4231	6.94203e+02	4.23100e+03	6.16586e-02	6.95167e+02
4235	6.94768e+02	4.23500e+03	6.17258e-02	6.95833e+02
4239	6.95210e+02	4.23900e+03	6.17385e-02	6.96500e+02
4243	6.95698e+02	4.24300e+03	6.17248e-02	6.97167e+02
4247	6.96132e+02	4.24700e+03	6.17381e-02	6.97833e+02
4251	6.96499e+02	4.25100e+03	6.17105e-02	6.98500e+02
4255	6.96839e+02	4.25500e+03	6.16687e-02	6.99167e+02
4259	6.97134e+02	4.25900e+03	6.16228e-02	6.99833e+02
4260	6.97194e+02	4.26000e+03	6.16122e-02	7.00000e+02