File: Experiments/TUBS/tga_nonisotherm/tga_dynamic_n2_dyn10_piece_1mg_r2.txt
index	ts	t	weight	tr
[#]	[°C]	[s]	[mg]	[°C]
843	1.30874e+02	8.43000e+02	1.01673e+00	1.30500e+02
847	1.31552e+02	8.47000e+02	1.01665e+00	1.31167e+02
851	1.32224e+02	8.51000e+02	1.01662e+00	1.31833e+02
855	1.32909e+02	8.55000e+02	1.01669e+00	1.32500e+02
859	1.33578e+02	8.59000e+02	1.01668e+00	1.33167e+02
863	1.34254e+02	8.63000e+02	1.01660e+00	1.33833e+02
867	1.34933e+02	8.67000e+02	1.01653e+00	1.34500e+02
871	1.35598e+02	8.71000e+02	1.01650e+00	1.35167e+02
875	1.36281e+02	8.75000e+02	1.01649e+00	1.35833e+02
879	1.36952e+02	8.79000e+02	1.01646e+00	1.36500e+02
883	1.37641e+02	8.83000e+02	1.01645e+00	1.37167e+02
887	1.38314e+02	8.87000e+02	1.01649e+00	1.37833e+02
891	1.38982e+02	8.91000e+02	1.01656e+00	1.38500e+02
895	1.39662e+02	8.95000e+02	1.01661e+00	1.39167e+02
899	1.40345e+02	8.99000e+02	1.01660e+00	1.39833e+02
903	1.41026e+02	9.03000e+02	1.01653e+00	1.40500e+02
907	1.41706e+02	9.07000e+02	1.01644e+00	1.41167e+02
911	1.42370e+02	9.11000e+02	1.01639e+00	1.41833e+02
915	1.43040e+02	9.15000e+02	1.01642e+00	1.42500e+02
919	1.43726e+02	9.19000e+02	1.01637e+00	1.43167e+02
923	1.44410e+02	9.23000e+02	1.01608e+00	1.43833e+02
927	1.45083e+02	9.27000e+02	1.01597e+00	1.44500e+02
931	1.45768e+02	9.31000e+02	1.01642e+00	1.45167e+02
935	1.46425e+02	9.35000e+02	1.01678e+00	1.45833e+02
939	1.47109e+02	9.39000e+02	1.01668e+00	1.46500e+02
943	1.47806e+02	9.43000e+02	1.01654e+00	1.47167e+02
947	1.48469e+02	9.47000e+02	1.01645e+00	1.47833e+02
951	1.49160e+02	9.51000e+02	1.01635e+00	1.48500e+02
955	1.49831e+02	9.55000e+02	1.01633e+00	1.49167e+02
959	1.50515e+02	9.59000e+02	1.01629e+00	1.49833e+02
963	1.51193e+02	9.63000e+02	1.01606e+00	1.50500e+02
967	1.51868e+02	9.67000e+02	1.01589e+00	1.51167e+02
971	1.52547e+02	9.71000e+02	1.01593e+00	1.51833e+02
975	1.53222e+02	9.75000e+02	1.01599e+00	1.52500e+02
979	1.53902e+02	9.79000e+02	1.01593e+00	1.53167e+02
983	1.54572e+02	9.83000e+02	1.01584e+00	1.53833e+02
987	1.55248e+02	9.87000e+02	1.01579e+00	1.54500e+02
991	1.55931e+02	9.91000e+02	1.01583e+00	1.55167e+02
995	1.56600e+02	9.95000e+02	1.01588e+00	1.55833e+02
999	1.57289e+02	9.99000e+02	1.01581e+00	1.56500e+02
1003	1.57962e+02	1.00300e+03	1.01569e+00	1.57167e+02
1007	1.58650e+02	1.00700e+03	1.01571e+00	1.57833e+02
1011	1.59322e+02	1.01100e+03	1.01571e+00	1.58500e+02
1015	1.60008e+02	1.01500e+03	1.01557e+00	1.59167e+02
1019	1.60677e+02	1.01900e+03	1.01554e+00	1.59833e+02
1023	1.61355e+02	1.02300e+03	1.01561e+00	1.60500e+02
1027	1.62044e+02	1.02700e+03	1.01567e+00	1.61167e+02
1031	1.62709e+02	1.03100e+03	1.01566e+00	1.61833e+02
1035	1.63385e+02	1.03500e+03	1.01553e+00	1.62500e+02
1039	1.64068e+02	1.03900e+03	1.01541e+00	1.63167e+02
1043	1.64745e+02	1.04300e+03	1.01539e+00	1.63833e+02
1047	1.65414e+02	1.04700e+03	1.01537e+00	1.64500e+02
1051	1.66091e+02	1.05100e+03	1.01537e+00	1.65167e+02
1055	1.66793e+02	1.05500e+03	1.01538e+00	1.65833e+02
1059	1.67456e+02	1.05900e+03	1.01539e+00	1.66500e+02
1063	1.68132e+02	1.06300e+03	1.01534e+00	1.67167e+02
1067	1.68805e+02	1.06700e+03	1.01528e+00	1.67833e+02
1071	1.69495e+02	1.07100e+03	1.01532e+00	1.68500e+02
1075	1.70170e+02	1.07500e+03	1.01541e+00	1.69167e+02
1079	1.70846e+02	1.07900e+03	1.01540e+00	1.69833e+02
1083	1.71513e+02	1.08300e+03	1.01526e+00	1.70500e+02
1087	1.72187e+02	1.08700e+03	1.01512e+00	1.71167e+02
1091	1.72873e+02	1.09100e+03	1.01500e+00	1.71833e+02
1095	1.73553e+02	1.09500e+03	1.01487e+00	1.72500e+02
1099	1.74235e+02	1.09900e+03	1.01472e+00	1.73167e+02
1103	1.74907e+02	1.10300e+03	1.01467e+00	1.73833e+02
1107	1.75586e+02	1.10700e+03	1.01468e+00	1.74500e+02
1111	1.76260e+02	1.11100e+03	1.01469e+00	1.75167e+02
1115	1.76954e+02	1.11500e+03	1.01466e+00	1.75833e+02
1119	1.77615e+02	1.11900e+03	1.01458e+00	1.76500e+02
1123	1.78301e+02	1.12300e+03	1.01445e+00	1.77167e+02
1127	1.78973e+02	1.12700e+03	1.01429e+00	1.77833e+02
1131	1.79649e+02	1.13100e+03	1.01413e+00	1.78500e+02
1135	1.80334e+02	1.13500e+03	1.01406e+00	1.79167e+02
1139	1.80997e+02	1.13900e+03	1.01400e+00	1.79833e+02
1143	1.81678e+02	1.14300e+03	1.01383e+00	1.80500e+02
1147	1.82358e+02	1.14700e+03	1.01359e+00	1.81167e+02
1151	1.83027e+02	1.15100e+03	1.01332e+00	1.81833e+02
1155	1.83708e+02	1.15500e+03	1.01305e+00	1.82500e+02
1159	1.84379e+02	1.15900e+03	1.01286e+00	1.83167e+02
1163	1.85044e+02	1.16300e+03	1.01267e+00	1.83833e+02
1167	1.85730e+02	1.16700e+03	1.01244e+00	1.84500e+02
1171	1.86397e+02	1.17100e+03	1.01222e+00	1.85167e+02
1175	1.87077e+02	1.17500e+03	1.01203e+00	1.85833e+02
1179	1.87754e+02	1.17900e+03	1.01182e+00	1.86500e+02
1183	1.88415e+02	1.18300e+03	1.01161e+00	1.87167e+02
1187	1.89094e+02	1.18700e+03	1.01140e+00	1.87833e+02
1191	1.89771e+02	1.19100e+03	1.01119e+00	1.88500e+02
1195	1.90444e+02	1.19500e+03	1.01100e+00	1.89167e+02
1199	1.91127e+02	1.19900e+03	1.01083e+00	1.89833e+02
1203	1.91792e+02	1.20300e+03	1.01074e+00	1.90500e+02
1207	1.92469e+02	1.20700e+03	1.01063e+00	1.91167e+02
1211	1.93141e+02	1.21100e+03	1.01030e+00	1.91833e+02
1215	1.93813e+02	1.21500e+03	1.00985e+00	1.92500e+02
1219	1.94493e+02	1.21900e+03	1.00947e+00	1.93167e+02
1223	1.95162e+02	1.22300e+03	1.00917e+00	1.93833e+02
1227	1.95844e+02	1.22700e+03	1.00884e+00	1.94500e+02
1231	1.96515e+02	1.23100e+03	1.00839e+00	1.95167e+02
1235	1.97198e+02	1.23500e+03	1.00796e+00	1.95833e+02
1239	1.97876e+02	1.23900e+03	1.00786e+00	1.96500e+02
1243	1.98542e+02	1.24300e+03	1.00793e+00	1.97167e+02
1247	1.99225e+02	1.24700e+03	1.00769e+00	1.97833e+02
1251	1.99902e+02	1.25100e+03	1.00725e+00	1.98500e+02
1255	2.00575e+02	1.25500e+03	1.00687e+00	1.99167e+02
1259	2.01252e+02	1.25900e+03	1.00653e+00	1.99833e+02
1263	2.01936e+02	1.26300e+03	1.00615e+00	2.00500e+02
1267	2.02611e+02	1.26700e+03	1.00585e+00	2.01167e+02
1271	2.03284e+02	1.27100e+03	1.00563e+00	2.01833e+02
1275	2.03966e+02	1.27500e+03	1.00544e+00	2.02500e+02
1279	2.04639e+02	1.27900e+03	1.00523e+00	2.03167e+02
1283	2.05302e+02	1.28300e+03	1.00498e+00	2.03833e+02
1287	2.05976e+02	1.28700e+03	1.00471e+00	2.04500e+02
1291	2.06644e+02	1.29100e+03	1.00439e+00	2.05167e+02
1295	2.07325e+02	1.29500e+03	1.00405e+00	2.05833e+02
1299	2.08009e+02	1.29900e+03	1.00375e+00	2.06500e+02
1303	2.08672e+02	1.30300e+03	1.00358e+00	2.07167e+02
1307	2.09352e+02	1.30700e+03	1.00342e+00	2.07833e+02
1311	2.10025e+02	1.31100e+03	1.00309e+00	2.08500e+02
1315	2.10696e+02	1.31500e+03	1.00258e+00	2.09167e+02
1319	2.11374e+02	1.31900e+03	1.00238e+00	2.09833e+02
1323	2.12059e+02	1.32300e+03	1.00245e+00	2.10500e+02
1327	2.12730e+02	1.32700e+03	1.00217e+00	2.11167e+02
1331	2.13414e+02	1.33100e+03	1.00162e+00	2.11833e+02
1335	2.14079e+02	1.33500e+03	1.00124e+00	2.12500e+02
1339	2.14745e+02	1.33900e+03	1.00108e+00	2.13167e+02
1343	2.15436e+02	1.34300e+03	1.00095e+00	2.13833e+02
1347	2.16097e+02	1.34700e+03	1.00071e+00	2.14500e+02
1351	2.16779e+02	1.35100e+03	1.00038e+00	2.15167e+02
1355	2.17445e+02	1.35500e+03	1.00002e+00	2.15833e+02
1359	2.18123e+02	1.35900e+03	9.99613e-01	2.16500e+02
1363	2.18804e+02	1.36300e+03	9.99202e-01	2.17167e+02
1367	2.19461e+02	1.36700e+03	9.98915e-01	2.17833e+02
1371	2.20132e+02	1.37100e+03	9.98705e-01	2.18500e+02
1375	2.20806e+02	1.37500e+03	9.98469e-01	2.19167e+02
1379	2.21495e+02	1.37900e+03	9.98172e-01	2.19833e+02
1383	2.22164e+02	1.38300e+03	9.97874e-01	2.20500e+02
1387	2.22832e+02	1.38700e+03	9.97647e-01	2.21167e+02
1391	2.23516e+02	1.39100e+03	9.97395e-01	2.21833e+02
1395	2.24179e+02	1.39500e+03	9.97053e-01	2.22500e+02
1399	2.24854e+02	1.39900e+03	9.96641e-01	2.23167e+02
1403	2.25516e+02	1.40300e+03	9.96248e-01	2.23833e+02
1407	2.26193e+02	1.40700e+03	9.95964e-01	2.24500e+02
1411	2.26857e+02	1.41100e+03	9.95765e-01	2.25167e+02
1415	2.27525e+02	1.41500e+03	9.95596e-01	2.25833e+02
1419	2.28208e+02	1.41900e+03	9.95375e-01	2.26500e+02
1423	2.28889e+02	1.42300e+03	9.95065e-01	2.27167e+02
1427	2.29534e+02	1.42700e+03	9.94754e-01	2.27833e+02
1431	2.30198e+02	1.43100e+03	9.94432e-01	2.28500e+02
1435	2.30877e+02	1.43500e+03	9.94049e-01	2.29167e+02
1439	2.31551e+02	1.43900e+03	9.93741e-01	2.29833e+02
1443	2.32214e+02	1.44300e+03	9.93567e-01	2.30500e+02
1447	2.32887e+02	1.44700e+03	9.93335e-01	2.31167e+02
1451	2.33558e+02	1.45100e+03	9.93076e-01	2.31833e+02
1455	2.34230e+02	1.45500e+03	9.92817e-01	2.32500e+02
1459	2.34900e+02	1.45900e+03	9.92495e-01	2.33167e+02
1463	2.35583e+02	1.46300e+03	9.92187e-01	2.33833e+02
1467	2.36240e+02	1.46700e+03	9.91894e-01	2.34500e+02
1471	2.36919e+02	1.47100e+03	9.91614e-01	2.35167e+02
1475	2.37589e+02	1.47500e+03	9.91291e-01	2.35833e+02
1479	2.38254e+02	1.47900e+03	9.90951e-01	2.36500e+02
1483	2.38930e+02	1.48300e+03	9.90645e-01	2.37167e+02
1487	2.39595e+02	1.48700e+03	9.90317e-01	2.37833e+02
1491	2.40257e+02	1.49100e+03	9.90040e-01	2.38500e+02
1495	2.40931e+02	1.49500e+03	9.89882e-01	2.39167e+02
1499	2.41607e+02	1.49900e+03	9.89732e-01	2.39833e+02
1503	2.42276e+02	1.50300e+03	9.89436e-01	2.40500e+02
1507	2.42946e+02	1.50700e+03	9.89053e-01	2.41167e+02
1511	2.43607e+02	1.51100e+03	9.88737e-01	2.41833e+02
1515	2.44282e+02	1.51500e+03	9.88413e-01	2.42500e+02
1519	2.44948e+02	1.51900e+03	9.88012e-01	2.43167e+02
1523	2.45628e+02	1.52300e+03	9.87739e-01	2.43833e+02
1527	2.46299e+02	1.52700e+03	9.87643e-01	2.44500e+02
1531	2.46961e+02	1.53100e+03	9.87352e-01	2.45167e+02
1535	2.47632e+02	1.53500e+03	9.86927e-01	2.45833e+02
1539	2.48304e+02	1.53900e+03	9.86597e-01	2.46500e+02
1543	2.48977e+02	1.54300e+03	9.86265e-01	2.47167e+02
1547	2.49645e+02	1.54700e+03	9.85971e-01	2.47833e+02
1551	2.50315e+02	1.55100e+03	9.85792e-01	2.48500e+02
1555	2.50976e+02	1.55500e+03	9.85633e-01	2.49167e+02
1559	2.51639e+02	1.55900e+03	9.85389e-01	2.49833e+02
1563	2.52312e+02	1.56300e+03	9.85096e-01	2.50500e+02
1567	2.52997e+02	1.56700e+03	9.84856e-01	2.51167e+02
1571	2.53673e+02	1.57100e+03	9.84623e-01	2.51833e+02
1575	2.54342e+02	1.57500e+03	9.84283e-01	2.52500e+02
1579	2.55013e+02	1.57900e+03	9.83904e-01	2.53167e+02
1583	2.55677e+02	1.58300e+03	9.83580e-01	2.53833e+02
1587	2.56362e+02	1.58700e+03	9.83313e-01	2.54500e+02
1591	2.57023e+02	1.59100e+03	9.83088e-01	2.55167e+02
1595	2.57707e+02	1.59500e+03	9.82897e-01	2.55833e+02
1599	2.58371e+02	1.59900e+03	9.82690e-01	2.56500e+02
1603	2.59046e+02	1.60300e+03	9.82396e-01	2.57167e+02
1607	2.59720e+02	1.60700e+03	9.82094e-01	2.57833e+02
1611	2.60378e+02	1.61100e+03	9.81795e-01	2.58500e+02
1615	2.61060e+02	1.61500e+03	9.81459e-01	2.59167e+02
1619	2.61734e+02	1.61900e+03	9.81191e-01	2.59833e+02
1623	2.62405e+02	1.62300e+03	9.80950e-01	2.60500e+02
1627	2.63086e+02	1.62700e+03	9.80687e-01	2.61167e+02
1631	2.63757e+02	1.63100e+03	9.80379e-01	2.61833e+02
1635	2.64432e+02	1.63500e+03	9.80041e-01	2.62500e+02
1639	2.65096e+02	1.63900e+03	9.79735e-01	2.63167e+02
1643	2.65771e+02	1.64300e+03	9.79453e-01	2.63833e+02
1647	2.66447e+02	1.64700e+03	9.79156e-01	2.64500e+02
1651	2.67112e+02	1.65100e+03	9.78818e-01	2.65167e+02
1655	2.67793e+02	1.65500e+03	9.78507e-01	2.65833e+02
1659	2.68465e+02	1.65900e+03	9.78249e-01	2.66500e+02
1663	2.69131e+02	1.66300e+03	9.77963e-01	2.67167e+02
1667	2.69792e+02	1.66700e+03	9.77640e-01	2.67833e+02
1671	2.70467e+02	1.67100e+03	9.77324e-01	2.68500e+02
1675	2.71145e+02	1.67500e+03	9.76968e-01	2.69167e+02
1679	2.71826e+02	1.67900e+03	9.76569e-01	2.69833e+02
1683	2.72506e+02	1.68300e+03	9.76190e-01	2.70500e+02
1687	2.73158e+02	1.68700e+03	9.75828e-01	2.71167e+02
1691	2.73840e+02	1.69100e+03	9.75514e-01	2.71833e+02
1695	2.74505e+02	1.69500e+03	9.75247e-01	2.72500e+02
1699	2.75164e+02	1.69900e+03	9.74946e-01	2.73167e+02
1703	2.75840e+02	1.70300e+03	9.74604e-01	2.73833e+02
1707	2.76503e+02	1.70700e+03	9.74210e-01	2.74500e+02
1711	2.77174e+02	1.71100e+03	9.73742e-01	2.75167e+02
1715	2.77831e+02	1.71500e+03	9.73244e-01	2.75833e+02
1719	2.78500e+02	1.71900e+03	9.72807e-01	2.76500e+02
1723	2.79157e+02	1.72300e+03	9.72471e-01	2.77167e+02
1727	2.79820e+02	1.72700e+03	9.72154e-01	2.77833e+02
1731	2.80483e+02	1.73100e+03	9.71786e-01	2.78500e+02
1735	2.81142e+02	1.73500e+03	9.71383e-01	2.79167e+02
1739	2.81807e+02	1.73900e+03	9.70975e-01	2.79833e+02
1743	2.82476e+02	1.74300e+03	9.70546e-01	2.80500e+02
1747	2.83144e+02	1.74700e+03	9.70142e-01	2.81167e+02
1751	2.83800e+02	1.75100e+03	9.69741e-01	2.81833e+02
1755	2.84464e+02	1.75500e+03	9.69281e-01	2.82500e+02
1759	2.85126e+02	1.75900e+03	9.68790e-01	2.83167e+02
1763	2.85785e+02	1.76300e+03	9.68297e-01	2.83833e+02
1767	2.86428e+02	1.76700e+03	9.67858e-01	2.84500e+02
1771	2.87089e+02	1.77100e+03	9.67406e-01	2.85167e+02
1775	2.87754e+02	1.77500e+03	9.66813e-01	2.85833e+02
1779	2.88402e+02	1.77900e+03	9.66168e-01	2.86500e+02
1783	2.89044e+02	1.78300e+03	9.65539e-01	2.87167e+02
1787	2.89705e+02	1.78700e+03	9.64913e-01	2.87833e+02
1791	2.90346e+02	1.79100e+03	9.64327e-01	2.88500e+02
1795	2.90996e+02	1.79500e+03	9.63652e-01	2.89167e+02
1799	2.91625e+02	1.79900e+03	9.62801e-01	2.89833e+02
1803	2.92269e+02	1.80300e+03	9.62002e-01	2.90500e+02
1807	2.92920e+02	1.80700e+03	9.61299e-01	2.91167e+02
1811	2.93555e+02	1.81100e+03	9.60512e-01	2.91833e+02
1815	2.94200e+02	1.81500e+03	9.59646e-01	2.92500e+02
1819	2.94833e+02	1.81900e+03	9.58885e-01	2.93167e+02
1823	2.95489e+02	1.82300e+03	9.58175e-01	2.93833e+02
1827	2.96130e+02	1.82700e+03	9.57239e-01	2.94500e+02
1831	2.96774e+02	1.83100e+03	9.56181e-01	2.95167e+02
1835	2.97407e+02	1.83500e+03	9.55174e-01	2.95833e+02
1839	2.98045e+02	1.83900e+03	9.54128e-01	2.96500e+02
1843	2.98685e+02	1.84300e+03	9.53009e-01	2.97167e+02
1847	2.99342e+02	1.84700e+03	9.51880e-01	2.97833e+02
1851	2.99978e+02	1.85100e+03	9.50767e-01	2.98500e+02
1855	3.00625e+02	1.85500e+03	9.49649e-01	2.99167e+02
1859	3.01267e+02	1.85900e+03	9.48490e-01	2.99833e+02
1863	3.01945e+02	1.86300e+03	9.47355e-01	3.00500e+02
1867	3.02597e+02	1.86700e+03	9.46289e-01	3.01167e+02
1871	3.03251e+02	1.87100e+03	9.45229e-01	3.01833e+02
1875	3.03902e+02	1.87500e+03	9.44072e-01	3.02500e+02
1879	3.04565e+02	1.87900e+03	9.42837e-01	3.03167e+02
1883	3.05225e+02	1.88300e+03	9.41619e-01	3.03833e+02
1887	3.05883e+02	1.88700e+03	9.40437e-01	3.04500e+02
1891	3.06538e+02	1.89100e+03	9.39316e-01	3.05167e+02
1895	3.07202e+02	1.89500e+03	9.38208e-01	3.05833e+02
1899	3.07852e+02	1.89900e+03	9.37116e-01	3.06500e+02
1903	3.08516e+02	1.90300e+03	9.36137e-01	3.07167e+02
1907	3.09173e+02	1.90700e+03	9.35167e-01	3.07833e+02
1911	3.09831e+02	1.91100e+03	9.33961e-01	3.08500e+02
1915	3.10510e+02	1.91500e+03	9.32744e-01	3.09167e+02
1919	3.11166e+02	1.91900e+03	9.31838e-01	3.09833e+02
1923	3.11839e+02	1.92300e+03	9.30958e-01	3.10500e+02
1927	3.12481e+02	1.92700e+03	9.29908e-01	3.11167e+02
1931	3.13154e+02	1.93100e+03	9.28827e-01	3.11833e+02
1935	3.13818e+02	1.93500e+03	9.27865e-01	3.12500e+02
1939	3.14489e+02	1.93900e+03	9.27058e-01	3.13167e+02
1943	3.15147e+02	1.94300e+03	9.26144e-01	3.13833e+02
1947	3.15814e+02	1.94700e+03	9.25075e-01	3.14500e+02
1951	3.16466e+02	1.95100e+03	9.24096e-01	3.15167e+02
1955	3.17126e+02	1.95500e+03	9.23122e-01	3.15833e+02
1959	3.17790e+02	1.95900e+03	9.21947e-01	3.16500e+02
1963	3.18450e+02	1.96300e+03	9.20710e-01	3.17167e+02
1967	3.19121e+02	1.96700e+03	9.19538e-01	3.17833e+02
1971	3.19773e+02	1.97100e+03	9.18379e-01	3.18500e+02
1975	3.20429e+02	1.97500e+03	9.17257e-01	3.19167e+02
1979	3.21101e+02	1.97900e+03	9.16057e-01	3.19833e+02
1983	3.21766e+02	1.98300e+03	9.14667e-01	3.20500e+02
1987	3.22432e+02	1.98700e+03	9.13217e-01	3.21167e+02
1991	3.23084e+02	1.99100e+03	9.11925e-01	3.21833e+02
1995	3.23745e+02	1.99500e+03	9.10660e-01	3.22500e+02
1999	3.24411e+02	1.99900e+03	9.09174e-01	3.23167e+02
2003	3.25071e+02	2.00300e+03	9.07566e-01	3.23833e+02
2007	3.25733e+02	2.00700e+03	9.05931e-01	3.24500e+02
2011	3.26383e+02	2.01100e+03	9.04198e-01	3.25167e+02
2015	3.27058e+02	2.01500e+03	9.02371e-01	3.25833e+02
2019	3.27718e+02	2.01900e+03	9.00578e-01	3.26500e+02
2023	3.28378e+02	2.02300e+03	8.98712e-01	3.27167e+02
2027	3.29047e+02	2.02700e+03	8.96734e-01	3.27833e+02
2031	3.29710e+02	2.03100e+03	8.94792e-01	3.28500e+02
2035	3.30370e+02	2.03500e+03	8.92752e-01	3.29167e+02
2039	3.31031e+02	2.03900e+03	8.90532e-01	3.29833e+02
2043	3.31686e+02	2.04300e+03	8.88411e-01	3.30500e+02
2047	3.32350e+02	2.04700e+03	8.86331e-01	3.31167e+02
2051	3.33015e+02	2.05100e+03	8.83719e-01	3.31833e+02
2055	3.33675e+02	2.05500e+03	8.80579e-01	3.32500e+02
2059	3.34325e+02	2.05900e+03	8.77671e-01	3.33167e+02
2063	3.34990e+02	2.06300e+03	8.75335e-01	3.33833e+02
2067	3.35660e+02	2.06700e+03	8.72981e-01	3.34500e+02
2071	3.36326e+02	2.07100e+03	8.70038e-01	3.35167e+02
2075	3.36987e+02	2.07500e+03	8.66600e-01	3.35833e+02
2079	3.37656e+02	2.07900e+03	8.63007e-01	3.36500e+02
2083	3.38314e+02	2.08300e+03	8.59460e-01	3.37167e+02
2087	3.38983e+02	2.08700e+03	8.55880e-01	3.37833e+02
2091	3.39644e+02	2.09100e+03	8.52099e-01	3.38500e+02
2095	3.40298e+02	2.09500e+03	8.48088e-01	3.39167e+02
2099	3.40975e+02	2.09900e+03	8.43897e-01	3.39833e+02
2103	3.41637e+02	2.10300e+03	8.39584e-01	3.40500e+02
2107	3.42303e+02	2.10700e+03	8.35000e-01	3.41167e+02
2111	3.42959e+02	2.11100e+03	8.30079e-01	3.41833e+02
2115	3.43626e+02	2.11500e+03	8.24895e-01	3.42500e+02
2119	3.44285e+02	2.11900e+03	8.19496e-01	3.43167e+02
2123	3.44945e+02	2.12300e+03	8.13968e-01	3.43833e+02
2127	3.45623e+02	2.12700e+03	8.08197e-01	3.44500e+02
2131	3.46296e+02	2.13100e+03	8.02179e-01	3.45167e+02
2135	3.46948e+02	2.13500e+03	7.96036e-01	3.45833e+02
2139	3.47605e+02	2.13900e+03	7.89677e-01	3.46500e+02
2143	3.48267e+02	2.14300e+03	7.82876e-01	3.47167e+02
2147	3.48926e+02	2.14700e+03	7.75520e-01	3.47833e+02
2151	3.49595e+02	2.15100e+03	7.67829e-01	3.48500e+02
2155	3.50255e+02	2.15500e+03	7.60022e-01	3.49167e+02
2159	3.50919e+02	2.15900e+03	7.51971e-01	3.49833e+02
2163	3.51571e+02	2.16300e+03	7.43615e-01	3.50500e+02
2167	3.52238e+02	2.16700e+03	7.35069e-01	3.51167e+02
2171	3.52910e+02	2.17100e+03	7.26306e-01	3.51833e+02
2175	3.53575e+02	2.17500e+03	7.17337e-01	3.52500e+02
2179	3.54234e+02	2.17900e+03	7.08199e-01	3.53167e+02
2183	3.54898e+02	2.18300e+03	6.98792e-01	3.53833e+02
2187	3.55555e+02	2.18700e+03	6.89151e-01	3.54500e+02
2191	3.56228e+02	2.19100e+03	6.79275e-01	3.55167e+02
2195	3.56880e+02	2.19500e+03	6.69062e-01	3.55833e+02
2199	3.57553e+02	2.19900e+03	6.58507e-01	3.56500e+02
2203	3.58214e+02	2.20300e+03	6.47619e-01	3.57167e+02
2207	3.58884e+02	2.20700e+03	6.36417e-01	3.57833e+02
2211	3.59548e+02	2.21100e+03	6.24992e-01	3.58500e+02
2215	3.60201e+02	2.21500e+03	6.13392e-01	3.59167e+02
2219	3.60867e+02	2.21900e+03	6.01601e-01	3.59833e+02
2223	3.61526e+02	2.22300e+03	5.89650e-01	3.60500e+02
2227	3.62200e+02	2.22700e+03	5.77511e-01	3.61167e+02
2231	3.62862e+02	2.23100e+03	5.65177e-01	3.61833e+02
2235	3.63522e+02	2.23500e+03	5.52633e-01	3.62500e+02
2239	3.64189e+02	2.23900e+03	5.39903e-01	3.63167e+02
2243	3.64860e+02	2.24300e+03	5.27142e-01	3.63833e+02
2247	3.65519e+02	2.24700e+03	5.14267e-01	3.64500e+02
2251	3.66187e+02	2.25100e+03	5.01014e-01	3.65167e+02
2255	3.66839e+02	2.25500e+03	4.87680e-01	3.65833e+02
2259	3.67508e+02	2.25900e+03	4.74708e-01	3.66500e+02
2263	3.68169e+02	2.26300e+03	4.61916e-01	3.67167e+02
2267	3.68836e+02	2.26700e+03	4.48850e-01	3.67833e+02
2271	3.69501e+02	2.27100e+03	4.35556e-01	3.68500e+02
2275	3.70165e+02	2.27500e+03	4.22224e-01	3.69167e+02
2279	3.70816e+02	2.27900e+03	4.08970e-01	3.69833e+02
2283	3.71496e+02	2.28300e+03	3.96022e-01	3.70500e+02
2287	3.72156e+02	2.28700e+03	3.83187e-01	3.71167e+02
2291	3.72819e+02	2.29100e+03	3.69956e-01	3.71833e+02
2295	3.73493e+02	2.29500e+03	3.56210e-01	3.72500e+02
2299	3.74178e+02	2.29900e+03	3.42285e-01	3.73167e+02
2303	3.74852e+02	2.30300e+03	3.28471e-01	3.73833e+02
2307	3.75512e+02	2.30700e+03	3.14891e-01	3.74500e+02
2311	3.76173e+02	2.31100e+03	3.01537e-01	3.75167e+02
2315	3.76828e+02	2.31500e+03	2.88243e-01	3.75833e+02
2319	3.77474e+02	2.31900e+03	2.74915e-01	3.76500e+02
2323	3.78128e+02	2.32300e+03	2.61800e-01	3.77167e+02
2327	3.78795e+02	2.32700e+03	2.49109e-01	3.77833e+02
2331	3.79446e+02	2.33100e+03	2.36679e-01	3.78500e+02
2335	3.80118e+02	2.33500e+03	2.24517e-01	3.79167e+02
2339	3.80777e+02	2.33900e+03	2.12790e-01	3.79833e+02
2343	3.81445e+02	2.34300e+03	2.01443e-01	3.80500e+02
2347	3.82105e+02	2.34700e+03	1.90459e-01	3.81167e+02
2351	3.82781e+02	2.35100e+03	1.79886e-01	3.81833e+02
2355	3.83447e+02	2.35500e+03	1.69799e-01	3.82500e+02
2359	3.84117e+02	2.35900e+03	1.60107e-01	3.83167e+02
2363	3.84793e+02	2.36300e+03	1.50494e-01	3.83833e+02
2367	3.85467e+02	2.36700e+03	1.41013e-01	3.84500e+02
2371	3.86131e+02	2.37100e+03	1.32111e-01	3.85167e+02
2375	3.86785e+02	2.37500e+03	1.24038e-01	3.85833e+02
2379	3.87468e+02	2.37900e+03	1.16356e-01	3.86500e+02
2383	3.88127e+02	2.38300e+03	1.08651e-01	3.87167e+02
2387	3.88798e+02	2.38700e+03	1.01323e-01	3.87833e+02
2391	3.89460e+02	2.39100e+03	9.45022e-02	3.88500e+02
2395	3.90115e+02	2.39500e+03	8.79289e-02	3.89167e+02
2399	3.90796e+02	2.39900e+03	8.16192e-02	3.89833e+02
2403	3.91474e+02	2.40300e+03	7.56580e-02	3.90500e+02
2407	3.92135e+02	2.40700e+03	7.00607e-02	3.91167e+02
2411	3.92822e+02	2.41100e+03	6.48146e-02	3.91833e+02
2415	3.93486e+02	2.41500e+03	5.98131e-02	3.92500e+02
2419	3.94167e+02	2.41900e+03	5.50527e-02	3.93167e+02
2423	3.94848e+02	2.42300e+03	5.06535e-02	3.93833e+02
2427	3.95518e+02	2.42700e+03	4.65838e-02	3.94500e+02
2431	3.96182e+02	2.43100e+03	4.27673e-02	3.95167e+02
2435	3.96840e+02	2.43500e+03	3.90626e-02	3.95833e+02
2439	3.97502e+02	2.43900e+03	3.55196e-02	3.96500e+02
2443	3.98174e+02	2.44300e+03	3.23210e-02	3.97167e+02
2447	3.98845e+02	2.44700e+03	2.93734e-02	3.97833e+02
2451	3.99525e+02	2.45100e+03	2.65572e-02	3.98500e+02
2455	4.00183e+02	2.45500e+03	2.40039e-02	3.99167e+02
2459	4.00867e+02	2.45900e+03	2.17274e-02	3.99833e+02
2463	4.01531e+02	2.46300e+03	1.94990e-02	4.00500e+02
2467	4.02222e+02	2.46700e+03	1.72492e-02	4.01167e+02
2471	4.02911e+02	2.47100e+03	1.52279e-02	4.01833e+02
2475	4.03582e+02	2.47500e+03	1.36122e-02	4.02500e+02
2479	4.04258e+02	2.47900e+03	1.21456e-02	4.03167e+02
2483	4.04929e+02	2.48300e+03	1.05901e-02	4.03833e+02
2487	4.05594e+02	2.48700e+03	9.03869e-03	4.04500e+02
2491	4.06275e+02	2.49100e+03	7.65253e-03	4.05167e+02
2495	4.06958e+02	2.49500e+03	6.45410e-03	4.05833e+02
2499	4.07630e+02	2.49900e+03	5.37861e-03	4.06500e+02
2503	4.08326e+02	2.50300e+03	4.35697e-03	4.07167e+02
2507	4.09001e+02	2.50700e+03	3.36489e-03	4.07833e+02
2511	4.09690e+02	2.51100e+03	2.37233e-03	4.08500e+02
2515	4.10371e+02	2.51500e+03	1.39853e-03	4.09167e+02
2519	4.11051e+02	2.51900e+03	5.76830e-04	4.09833e+02
2523	4.11742e+02	2.52300e+03	-1.81212e-04	4.10500e+02
2527	4.12409e+02	2.52700e+03	-9.26309e-04	4.11167e+02
2531	4.13092e+02	2.53100e+03	-1.56982e-03	4.11833e+02
2535	4.13752e+02	2.53500e+03	-2.16412e-03	4.12500e+02
2539	4.14409e+02	2.53900e+03	-2.73175e-03	4.13167e+02
2543	4.15094e+02	2.54300e+03	-3.24609e-03	4.13833e+02
2547	4.15757e+02	2.54700e+03	-3.75097e-03	4.14500e+02
2551	4.16424e+02	2.55100e+03	-4.25269e-03	4.15167e+02
2555	4.17097e+02	2.55500e+03	-4.68083e-03	4.15833e+02
2559	4.17759e+02	2.55900e+03	-5.08989e-03	4.16500e+02
2563	4.18420e+02	2.56300e+03	-5.55874e-03	4.17167e+02
2567	4.19089e+02	2.56700e+03	-5.99154e-03	4.17833e+02
2571	4.19745e+02	2.57100e+03	-6.31284e-03	4.18500e+02
2575	4.20405e+02	2.57500e+03	-6.66833e-03	4.19167e+02
2579	4.21056e+02	2.57900e+03	-7.04763e-03	4.19833e+02
2583	4.21708e+02	2.58300e+03	-7.32667e-03	4.20500e+02
2587	4.22366e+02	2.58700e+03	-7.60048e-03	4.21167e+02
2591	4.23033e+02	2.59100e+03	-7.94106e-03	4.21833e+02
2595	4.23691e+02	2.59500e+03	-8.28530e-03	4.22500e+02
2599	4.24349e+02	2.59900e+03	-8.62025e-03	4.23167e+02
2603	4.25010e+02	2.60300e+03	-8.97937e-03	4.23833e+02
2607	4.25677e+02	2.60700e+03	-9.33809e-03	4.24500e+02
2611	4.26326e+02	2.61100e+03	-9.64642e-03	4.25167e+02
2615	4.26973e+02	2.61500e+03	-9.85170e-03	4.25833e+02
2619	4.27627e+02	2.61900e+03	-9.97285e-03	4.26500e+02
2623	4.28273e+02	2.62300e+03	-1.00086e-02	4.27167e+02
2627	4.28928e+02	2.62700e+03	-1.00318e-02	4.27833e+02
2631	4.29596e+02	2.63100e+03	-1.01852e-02	4.28500e+02
2635	4.30244e+02	2.63500e+03	-1.03854e-02	4.29167e+02
2639	4.30898e+02	2.63900e+03	-1.06020e-02	4.29833e+02
2643	4.31553e+02	2.64300e+03	-1.08268e-02	4.30500e+02
2647	4.32199e+02	2.64700e+03	-1.09585e-02	4.31167e+02
2651	4.32853e+02	2.65100e+03	-1.10627e-02	4.31833e+02
2655	4.33500e+02	2.65500e+03	-1.12144e-02	4.32500e+02
2659	4.34150e+02	2.65900e+03	-1.13277e-02	4.33167e+02
2663	4.34820e+02	2.66300e+03	-1.13585e-02	4.33833e+02
2667	4.35475e+02	2.66700e+03	-1.13782e-02	4.34500e+02
2671	4.36125e+02	2.67100e+03	-1.14006e-02	4.35167e+02
2675	4.36783e+02	2.67500e+03	-1.14485e-02	4.35833e+02
2679	4.37422e+02	2.67900e+03	-1.15712e-02	4.36500e+02
2683	4.38069e+02	2.68300e+03	-1.17171e-02	4.37167e+02
2687	4.38729e+02	2.68700e+03	-1.18051e-02	4.37833e+02
2691	4.39374e+02	2.69100e+03	-1.18409e-02	4.38500e+02
2695	4.40026e+02	2.69500e+03	-1.19070e-02	4.39167e+02
2699	4.40680e+02	2.69900e+03	-1.19888e-02	4.39833e+02
2703	4.41324e+02	2.70300e+03	-1.20282e-02	4.40500e+02
2707	4.41986e+02	2.70700e+03	-1.20646e-02	4.41167e+02
2711	4.42644e+02	2.71100e+03	-1.21221e-02	4.41833e+02
2715	4.43294e+02	2.71500e+03	-1.21909e-02	4.42500e+02
2719	4.43933e+02	2.71900e+03	-1.21978e-02	4.43167e+02
2723	4.44586e+02	2.72300e+03	-1.21518e-02	4.43833e+02
2727	4.45228e+02	2.72700e+03	-1.21589e-02	4.44500e+02
2731	4.45887e+02	2.73100e+03	-1.21736e-02	4.45167e+02
2735	4.46549e+02	2.73500e+03	-1.21356e-02	4.45833e+02
2739	4.47197e+02	2.73900e+03	-1.21334e-02	4.46500e+02
2743	4.47856e+02	2.74300e+03	-1.21683e-02	4.47167e+02
2747	4.48526e+02	2.74700e+03	-1.21882e-02	4.47833e+02
2751	4.49185e+02	2.75100e+03	-1.22145e-02	4.48500e+02
2755	4.49845e+02	2.75500e+03	-1.23197e-02	4.49167e+02
2759	4.50498e+02	2.75900e+03	-1.24829e-02	4.49833e+02
2763	4.51160e+02	2.76300e+03	-1.25256e-02	4.50500e+02
2767	4.51820e+02	2.76700e+03	-1.24791e-02	4.51167e+02
2771	4.52480e+02	2.77100e+03	-1.25001e-02	4.51833e+02
2775	4.53139e+02	2.77500e+03	-1.25802e-02	4.52500e+02
2779	4.53787e+02	2.77900e+03	-1.26355e-02	4.53167e+02
2783	4.54461e+02	2.78300e+03	-1.26675e-02	4.53833e+02
2787	4.55113e+02	2.78700e+03	-1.27075e-02	4.54500e+02
2791	4.55770e+02	2.79100e+03	-1.27304e-02	4.55167e+02
2795	4.56440e+02	2.79500e+03	-1.27323e-02	4.55833e+02
2799	4.57093e+02	2.79900e+03	-1.27061e-02	4.56500e+02
2803	4.57747e+02	2.80300e+03	-1.27144e-02	4.57167e+02
2807	4.58388e+02	2.80700e+03	-1.27872e-02	4.57833e+02
2811	4.59054e+02	2.81100e+03	-1.28469e-02	4.58500e+02
2815	4.59711e+02	2.81500e+03	-1.29159e-02	4.59167e+02
2819	4.60358e+02	2.81900e+03	-1.29900e-02	4.59833e+02
2823	4.61017e+02	2.82300e+03	-1.30068e-02	4.60500e+02
2827	4.61683e+02	2.82700e+03	-1.29891e-02	4.61167e+02
2831	4.62345e+02	2.83100e+03	-1.29512e-02	4.61833e+02
2835	4.62996e+02	2.83500e+03	-1.29630e-02	4.62500e+02
2839	4.63650e+02	2.83900e+03	-1.30224e-02	4.63167e+02
2843	4.64314e+02	2.84300e+03	-1.30263e-02	4.63833e+02
2847	4.64972e+02	2.84700e+03	-1.29924e-02	4.64500e+02
2851	4.65637e+02	2.85100e+03	-1.29993e-02	4.65167e+02
2855	4.66296e+02	2.85500e+03	-1.30636e-02	4.65833e+02
2859	4.66960e+02	2.85900e+03	-1.30954e-02	4.66500e+02
2863	4.67619e+02	2.86300e+03	-1.31020e-02	4.67167e+02
2867	4.68285e+02	2.86700e+03	-1.31228e-02	4.67833e+02
2871	4.68942e+02	2.87100e+03	-1.31209e-02	4.68500e+02
2875	4.69598e+02	2.87500e+03	-1.31241e-02	4.69167e+02
2879	4.70265e+02	2.87900e+03	-1.31016e-02	4.69833e+02
2883	4.70928e+02	2.88300e+03	-1.30777e-02	4.70500e+02
2887	4.71593e+02	2.88700e+03	-1.31898e-02	4.71167e+02
2891	4.72253e+02	2.89100e+03	-1.33243e-02	4.71833e+02
2895	4.72907e+02	2.89500e+03	-1.33259e-02	4.72500e+02
2899	4.73571e+02	2.89900e+03	-1.33438e-02	4.73167e+02
2903	4.74224e+02	2.90300e+03	-1.34264e-02	4.73833e+02
2907	4.74896e+02	2.90700e+03	-1.34369e-02	4.74500e+02
2911	4.75551e+02	2.91100e+03	-1.32931e-02	4.75167e+02
2915	4.76213e+02	2.91500e+03	-1.31228e-02	4.75833e+02
2919	4.76879e+02	2.91900e+03	-1.31164e-02	4.76500e+02
2923	4.77531e+02	2.92300e+03	-1.32161e-02	4.77167e+02
2927	4.78188e+02	2.92700e+03	-1.32891e-02	4.77833e+02
2931	4.78851e+02	2.93100e+03	-1.32657e-02	4.78500e+02
2935	4.79501e+02	2.93500e+03	-1.32165e-02	4.79167e+02
2939	4.80167e+02	2.93900e+03	-1.32261e-02	4.79833e+02
2943	4.80825e+02	2.94300e+03	-1.31939e-02	4.80500e+02
2947	4.81491e+02	2.94700e+03	-1.31321e-02	4.81167e+02
2951	4.82151e+02	2.95100e+03	-1.31197e-02	4.81833e+02
2955	4.82806e+02	2.95500e+03	-1.30666e-02	4.82500e+02
2959	4.83474e+02	2.95900e+03	-1.30720e-02	4.83167e+02
2963	4.84133e+02	2.96300e+03	-1.32271e-02	4.83833e+02
2967	4.84786e+02	2.96700e+03	-1.33212e-02	4.84500e+02
2971	4.85461e+02	2.97100e+03	-1.32937e-02	4.85167e+02
2975	4.86115e+02	2.97500e+03	-1.32612e-02	4.85833e+02
2979	4.86791e+02	2.97900e+03	-1.33848e-02	4.86500e+02
2983	4.87453e+02	2.98300e+03	-1.36085e-02	4.87167e+02
2987	4.88114e+02	2.98700e+03	-1.36911e-02	4.87833e+02
2991	4.88781e+02	2.99100e+03	-1.35721e-02	4.88500e+02
2995	4.89439e+02	2.99500e+03	-1.33994e-02	4.89167e+02
2999	4.90109e+02	2.99900e+03	-1.33212e-02	4.89833e+02
3003	4.90770e+02	3.00300e+03	-1.32709e-02	4.90500e+02
3007	4.91432e+02	3.00700e+03	-1.31688e-02	4.91167e+02
3011	4.92101e+02	3.01100e+03	-1.31168e-02	4.91833e+02
3015	4.92751e+02	3.01500e+03	-1.31270e-02	4.92500e+02
3019	4.93433e+02	3.01900e+03	-1.31287e-02	4.93167e+02
3023	4.94093e+02	3.02300e+03	-1.31341e-02	4.93833e+02
3027	4.94758e+02	3.02700e+03	-1.30709e-02	4.94500e+02
3031	4.95412e+02	3.03100e+03	-1.29810e-02	4.95167e+02
3035	4.96070e+02	3.03500e+03	-1.30228e-02	4.95833e+02
3039	4.96729e+02	3.03900e+03	-1.31712e-02	4.96500e+02
3043	4.97403e+02	3.04300e+03	-1.33107e-02	4.97167e+02
3047	4.98067e+02	3.04700e+03	-1.34227e-02	4.97833e+02
3051	4.98719e+02	3.05100e+03	-1.34783e-02	4.98500e+02
3055	4.99378e+02	3.05500e+03	-1.34732e-02	4.99167e+02
3059	5.00035e+02	3.05900e+03	-1.33646e-02	4.99833e+02
3063	5.00695e+02	3.06300e+03	-1.32545e-02	5.00500e+02
3067	5.01359e+02	3.06700e+03	-1.32240e-02	5.01167e+02
3071	5.02021e+02	3.07100e+03	-1.31861e-02	5.01833e+02
3075	5.02683e+02	3.07500e+03	-1.31762e-02	5.02500e+02
3079	5.03342e+02	3.07900e+03	-1.32014e-02	5.03167e+02
3083	5.04008e+02	3.08300e+03	-1.32678e-02	5.03833e+02
3087	5.04657e+02	3.08700e+03	-1.33184e-02	5.04500e+02
3091	5.05333e+02	3.09100e+03	-1.33039e-02	5.05167e+02
3095	5.05989e+02	3.09500e+03	-1.32494e-02	5.05833e+02
3099	5.06642e+02	3.09900e+03	-1.32349e-02	5.06500e+02
3103	5.07312e+02	3.10300e+03	-1.32500e-02	5.07167e+02
3107	5.07977e+02	3.10700e+03	-1.32266e-02	5.07833e+02
3111	5.08651e+02	3.11100e+03	-1.32146e-02	5.08500e+02
3115	5.09308e+02	3.11500e+03	-1.32241e-02	5.09167e+02
3119	5.09961e+02	3.11900e+03	-1.32814e-02	5.09833e+02
3123	5.10636e+02	3.12300e+03	-1.33591e-02	5.10500e+02
3127	5.11297e+02	3.12700e+03	-1.33342e-02	5.11167e+02
3131	5.11956e+02	3.13100e+03	-1.32599e-02	5.11833e+02
3135	5.12621e+02	3.13500e+03	-1.31917e-02	5.12500e+02
3139	5.13281e+02	3.13900e+03	-1.31531e-02	5.13167e+02
3143	5.13944e+02	3.14300e+03	-1.31632e-02	5.13833e+02
3147	5.14615e+02	3.14700e+03	-1.31301e-02	5.14500e+02
3151	5.15285e+02	3.15100e+03	-1.30507e-02	5.15167e+02
3155	5.15950e+02	3.15500e+03	-1.30127e-02	5.15833e+02
3159	5.16614e+02	3.15900e+03	-1.30656e-02	5.16500e+02
3163	5.17284e+02	3.16300e+03	-1.31451e-02	5.17167e+02
3167	5.17955e+02	3.16700e+03	-1.32309e-02	5.17833e+02
3171	5.18614e+02	3.17100e+03	-1.32821e-02	5.18500e+02
3175	5.19282e+02	3.17500e+03	-1.32129e-02	5.19167e+02
3179	5.19962e+02	3.17900e+03	-1.30803e-02	5.19833e+02
3183	5.20619e+02	3.18300e+03	-1.29978e-02	5.20500e+02
3187	5.21289e+02	3.18700e+03	-1.30548e-02	5.21167e+02
3191	5.21947e+02	3.19100e+03	-1.31906e-02	5.21833e+02
3195	5.22614e+02	3.19500e+03	-1.32369e-02	5.22500e+02
3199	5.23284e+02	3.19900e+03	-1.31895e-02	5.23167e+02
3203	5.23943e+02	3.20300e+03	-1.31594e-02	5.23833e+02
3207	5.24615e+02	3.20700e+03	-1.31744e-02	5.24500e+02
3211	5.25280e+02	3.21100e+03	-1.32197e-02	5.25167e+02
3215	5.25947e+02	3.21500e+03	-1.33113e-02	5.25833e+02
3219	5.26614e+02	3.21900e+03	-1.33690e-02	5.26500e+02
3223	5.27289e+02	3.22300e+03	-1.33232e-02	5.27167e+02
3227	5.27951e+02	3.22700e+03	-1.32546e-02	5.27833e+02
3231	5.28617e+02	3.23100e+03	-1.32568e-02	5.28500e+02
3235	5.29276e+02	3.23500e+03	-1.32651e-02	5.29167e+02
3239	5.29950e+02	3.23900e+03	-1.32261e-02	5.29833e+02
3243	5.30621e+02	3.24300e+03	-1.32021e-02	5.30500e+02
3247	5.31286e+02	3.24700e+03	-1.31854e-02	5.31167e+02
3251	5.31950e+02	3.25100e+03	-1.31828e-02	5.31833e+02
3255	5.32607e+02	3.25500e+03	-1.31987e-02	5.32500e+02
3259	5.33284e+02	3.25900e+03	-1.32172e-02	5.33167e+02
3263	5.33947e+02	3.26300e+03	-1.32454e-02	5.33833e+02
3267	5.34625e+02	3.26700e+03	-1.32732e-02	5.34500e+02
3271	5.35299e+02	3.27100e+03	-1.32272e-02	5.35167e+02
3275	5.35962e+02	3.27500e+03	-1.31844e-02	5.35833e+02
3279	5.36629e+02	3.27900e+03	-1.33276e-02	5.36500e+02
3283	5.37311e+02	3.28300e+03	-1.34895e-02	5.37167e+02
3287	5.37973e+02	3.28700e+03	-1.34631e-02	5.37833e+02
3291	5.38659e+02	3.29100e+03	-1.33796e-02	5.38500e+02
3295	5.39335e+02	3.29500e+03	-1.32898e-02	5.39167e+02
3299	5.39999e+02	3.29900e+03	-1.32138e-02	5.39833e+02
3303	5.40673e+02	3.30300e+03	-1.32239e-02	5.40500e+02
3307	5.41334e+02	3.30700e+03	-1.32827e-02	5.41167e+02
3311	5.42005e+02	3.31100e+03	-1.33650e-02	5.41833e+02
3315	5.42680e+02	3.31500e+03	-1.34454e-02	5.42500e+02
3319	5.43355e+02	3.31900e+03	-1.35726e-02	5.43167e+02
3323	5.44010e+02	3.32300e+03	-1.36256e-02	5.43833e+02
3327	5.44679e+02	3.32700e+03	-1.34286e-02	5.44500e+02
3331	5.45350e+02	3.33100e+03	-1.31471e-02	5.45167e+02
3335	5.46005e+02	3.33500e+03	-1.30426e-02	5.45833e+02
3339	5.46682e+02	3.33900e+03	-1.31754e-02	5.46500e+02
3343	5.47345e+02	3.34300e+03	-1.33468e-02	5.47167e+02
3347	5.48010e+02	3.34700e+03	-1.33904e-02	5.47833e+02
3351	5.48686e+02	3.35100e+03	-1.33439e-02	5.48500e+02
3355	5.49370e+02	3.35500e+03	-1.32931e-02	5.49167e+02
3359	5.50040e+02	3.35900e+03	-1.33294e-02	5.49833e+02
3363	5.50726e+02	3.36300e+03	-1.33874e-02	5.50500e+02
3367	5.51425e+02	3.36700e+03	-1.33931e-02	5.51167e+02
3371	5.52118e+02	3.37100e+03	-1.33804e-02	5.51833e+02
3375	5.52820e+02	3.37500e+03	-1.33836e-02	5.52500e+02
3379	5.53484e+02	3.37900e+03	-1.34434e-02	5.53167e+02
3383	5.54173e+02	3.38300e+03	-1.34235e-02	5.53833e+02
3387	5.54855e+02	3.38700e+03	-1.31946e-02	5.54500e+02
3391	5.55527e+02	3.39100e+03	-1.30163e-02	5.55167e+02
3395	5.56203e+02	3.39500e+03	-1.31383e-02	5.55833e+02
3399	5.56908e+02	3.39900e+03	-1.34313e-02	5.56500e+02
3403	5.57603e+02	3.40300e+03	-1.36137e-02	5.57167e+02
3407	5.58280e+02	3.40700e+03	-1.35726e-02	5.57833e+02
3411	5.58961e+02	3.41100e+03	-1.34567e-02	5.58500e+02
3415	5.59650e+02	3.41500e+03	-1.34203e-02	5.59167e+02
3419	5.60316e+02	3.41900e+03	-1.34461e-02	5.59833e+02
3423	5.60979e+02	3.42300e+03	-1.34823e-02	5.60500e+02
3427	5.61657e+02	3.42700e+03	-1.35007e-02	5.61167e+02
3431	5.62336e+02	3.43100e+03	-1.35118e-02	5.61833e+02
3435	5.62999e+02	3.43500e+03	-1.36387e-02	5.62500e+02
3439	5.63663e+02	3.43900e+03	-1.37359e-02	5.63167e+02
3443	5.64326e+02	3.44300e+03	-1.36420e-02	5.63833e+02
3447	5.64988e+02	3.44700e+03	-1.35001e-02	5.64500e+02
3451	5.65664e+02	3.45100e+03	-1.34372e-02	5.65167e+02
3455	5.66328e+02	3.45500e+03	-1.34944e-02	5.65833e+02
3459	5.66996e+02	3.45900e+03	-1.35685e-02	5.66500e+02
3463	5.67651e+02	3.46300e+03	-1.35961e-02	5.67167e+02
3467	5.68322e+02	3.46700e+03	-1.35596e-02	5.67833e+02
3471	5.68972e+02	3.47100e+03	-1.35206e-02	5.68500e+02
3475	5.69641e+02	3.47500e+03	-1.35970e-02	5.69167e+02
3479	5.70298e+02	3.47900e+03	-1.36613e-02	5.69833e+02
3483	5.70968e+02	3.48300e+03	-1.36541e-02	5.70500e+02
3487	5.71614e+02	3.48700e+03	-1.35942e-02	5.71167e+02
3491	5.72274e+02	3.49100e+03	-1.34913e-02	5.71833e+02
3495	5.72936e+02	3.49500e+03	-1.34931e-02	5.72500e+02
3499	5.73595e+02	3.49900e+03	-1.35258e-02	5.73167e+02
3503	5.74245e+02	3.50300e+03	-1.34726e-02	5.73833e+02
3507	5.74895e+02	3.50700e+03	-1.34829e-02	5.74500e+02
3511	5.75564e+02	3.51100e+03	-1.36552e-02	5.75167e+02
3515	5.76212e+02	3.51500e+03	-1.38220e-02	5.75833e+02
3519	5.76874e+02	3.51900e+03	-1.38469e-02	5.76500e+02
3523	5.77536e+02	3.52300e+03	-1.37918e-02	5.77167e+02
3527	5.78189e+02	3.52700e+03	-1.36696e-02	5.77833e+02
3531	5.78848e+02	3.53100e+03	-1.35628e-02	5.78500e+02
3535	5.79509e+02	3.53500e+03	-1.36029e-02	5.79167e+02
3539	5.80172e+02	3.53900e+03	-1.36865e-02	5.79833e+02
3543	5.80833e+02	3.54300e+03	-1.36959e-02	5.80500e+02
3547	5.81496e+02	3.54700e+03	-1.36841e-02	5.81167e+02
3551	5.82150e+02	3.55100e+03	-1.36751e-02	5.81833e+02
3555	5.82824e+02	3.55500e+03	-1.36776e-02	5.82500e+02
3559	5.83487e+02	3.55900e+03	-1.36877e-02	5.83167e+02
3563	5.84140e+02	3.56300e+03	-1.36721e-02	5.83833e+02
3567	5.84799e+02	3.56700e+03	-1.36068e-02	5.84500e+02
3571	5.85457e+02	3.57100e+03	-1.35710e-02	5.85167e+02
3575	5.86115e+02	3.57500e+03	-1.36719e-02	5.85833e+02
3579	5.86768e+02	3.57900e+03	-1.37649e-02	5.86500e+02
3583	5.87421e+02	3.58300e+03	-1.37363e-02	5.87167e+02
3587	5.88078e+02	3.58700e+03	-1.37010e-02	5.87833e+02
3591	5.88734e+02	3.59100e+03	-1.37550e-02	5.88500e+02
3595	5.89401e+02	3.59500e+03	-1.38744e-02	5.89167e+02
3599	5.90047e+02	3.59900e+03	-1.39479e-02	5.89833e+02
3603	5.90705e+02	3.60300e+03	-1.39564e-02	5.90500e+02
3607	5.91359e+02	3.60700e+03	-1.39327e-02	5.91167e+02
3611	5.92010e+02	3.61100e+03	-1.38733e-02	5.91833e+02
3615	5.92668e+02	3.61500e+03	-1.38105e-02	5.92500e+02
3619	5.93344e+02	3.61900e+03	-1.37724e-02	5.93167e+02
3623	5.94012e+02	3.62300e+03	-1.37397e-02	5.93833e+02
3627	5.94675e+02	3.62700e+03	-1.37313e-02	5.94500e+02
3631	5.95333e+02	3.63100e+03	-1.37567e-02	5.95167e+02
3635	5.96008e+02	3.63500e+03	-1.37479e-02	5.95833e+02
3639	5.96671e+02	3.63900e+03	-1.36920e-02	5.96500e+02
3643	5.97332e+02	3.64300e+03	-1.36995e-02	5.97167e+02
3647	5.97999e+02	3.64700e+03	-1.38088e-02	5.97833e+02
3651	5.98653e+02	3.65100e+03	-1.38660e-02	5.98500e+02
3655	5.99317e+02	3.65500e+03	-1.38158e-02	5.99167e+02
3659	5.99976e+02	3.65900e+03	-1.37627e-02	5.99833e+02
3663	6.00632e+02	3.66300e+03	-1.37601e-02	6.00500e+02
3667	6.01298e+02	3.66700e+03	-1.38026e-02	6.01167e+02
3671	6.01970e+02	3.67100e+03	-1.38500e-02	6.01833e+02
3675	6.02626e+02	3.67500e+03	-1.38339e-02	6.02500e+02
3679	6.03289e+02	3.67900e+03	-1.38155e-02	6.03167e+02
3683	6.03939e+02	3.68300e+03	-1.38713e-02	6.03833e+02
3687	6.04608e+02	3.68700e+03	-1.39237e-02	6.04500e+02
3691	6.05268e+02	3.69100e+03	-1.38968e-02	6.05167e+02
3695	6.05925e+02	3.69500e+03	-1.38406e-02	6.05833e+02
3699	6.06591e+02	3.69900e+03	-1.38534e-02	6.06500e+02
3703	6.07224e+02	3.70300e+03	-1.38903e-02	6.07167e+02
3707	6.07880e+02	3.70700e+03	-1.38793e-02	6.07833e+02
3711	6.08534e+02	3.71100e+03	-1.38568e-02	6.08500e+02
3715	6.09193e+02	3.71500e+03	-1.38170e-02	6.09167e+02
3719	6.09858e+02	3.71900e+03	-1.38031e-02	6.09833e+02
3723	6.10526e+02	3.72300e+03	-1.37972e-02	6.10500e+02
3727	6.11193e+02	3.72700e+03	-1.37425e-02	6.11167e+02
3731	6.11861e+02	3.73100e+03	-1.37253e-02	6.11833e+02
3735	6.12548e+02	3.73500e+03	-1.38077e-02	6.12500e+02
3739	6.13218e+02	3.73900e+03	-1.39074e-02	6.13167e+02
3743	6.13898e+02	3.74300e+03	-1.39392e-02	6.13833e+02
3747	6.14587e+02	3.74700e+03	-1.39657e-02	6.14500e+02
3751	6.15273e+02	3.75100e+03	-1.40200e-02	6.15167e+02
3755	6.15940e+02	3.75500e+03	-1.40263e-02	6.15833e+02
3759	6.16606e+02	3.75900e+03	-1.39791e-02	6.16500e+02
3763	6.17291e+02	3.76300e+03	-1.39602e-02	6.17167e+02
3767	6.17980e+02	3.76700e+03	-1.39541e-02	6.17833e+02
3771	6.18672e+02	3.77100e+03	-1.39494e-02	6.18500e+02
3775	6.19367e+02	3.77500e+03	-1.39568e-02	6.19167e+02
3779	6.20065e+02	3.77900e+03	-1.39527e-02	6.19833e+02
3783	6.20724e+02	3.78300e+03	-1.39576e-02	6.20500e+02
3787	6.21391e+02	3.78700e+03	-1.39874e-02	6.21167e+02
3791	6.22040e+02	3.79100e+03	-1.40234e-02	6.21833e+02
3795	6.22704e+02	3.79500e+03	-1.40482e-02	6.22500e+02
3799	6.23375e+02	3.79900e+03	-1.40750e-02	6.23167e+02
3803	6.24048e+02	3.80300e+03	-1.40987e-02	6.23833e+02
3807	6.24709e+02	3.80700e+03	-1.41178e-02	6.24500e+02
3811	6.25372e+02	3.81100e+03	-1.41363e-02	6.25167e+02
3815	6.26018e+02	3.81500e+03	-1.41315e-02	6.25833e+02
3819	6.26685e+02	3.81900e+03	-1.40913e-02	6.26500e+02
3823	6.27351e+02	3.82300e+03	-1.40556e-02	6.27167e+02
3827	6.28004e+02	3.82700e+03	-1.40177e-02	6.27833e+02
3831	6.28660e+02	3.83100e+03	-1.39761e-02	6.28500e+02
3835	6.29325e+02	3.83500e+03	-1.39560e-02	6.29167e+02
3839	6.29983e+02	3.83900e+03	-1.39036e-02	6.29833e+02
3843	6.30648e+02	3.84300e+03	-1.38599e-02	6.30500e+02
3847	6.31315e+02	3.84700e+03	-1.39356e-02	6.31167e+02
3851	6.31982e+02	3.85100e+03	-1.40630e-02	6.31833e+02
3855	6.32657e+02	3.85500e+03	-1.41014e-02	6.32500e+02
3859	6.33320e+02	3.85900e+03	-1.40304e-02	6.33167e+02
3863	6.33990e+02	3.86300e+03	-1.39670e-02	6.33833e+02
3867	6.34653e+02	3.86700e+03	-1.40007e-02	6.34500e+02
3871	6.35327e+02	3.87100e+03	-1.40639e-02	6.35167e+02
3875	6.35998e+02	3.87500e+03	-1.41082e-02	6.35833e+02
3879	6.36656e+02	3.87900e+03	-1.41130e-02	6.36500e+02
3883	6.37318e+02	3.88300e+03	-1.39901e-02	6.37167e+02
3887	6.37977e+02	3.88700e+03	-1.39171e-02	6.37833e+02
3891	6.38636e+02	3.89100e+03	-1.39953e-02	6.38500e+02
3895	6.39287e+02	3.89500e+03	-1.40809e-02	6.39167e+02
3899	6.39955e+02	3.89900e+03	-1.41268e-02	6.39833e+02
3903	6.40618e+02	3.90300e+03	-1.40597e-02	6.40500e+02
3907	6.41292e+02	3.90700e+03	-1.39542e-02	6.41167e+02
3911	6.41959e+02	3.91100e+03	-1.39454e-02	6.41833e+02
3915	6.42633e+02	3.91500e+03	-1.39849e-02	6.42500e+02
3919	6.43302e+02	3.91900e+03	-1.40187e-02	6.43167e+02
3923	6.43958e+02	3.92300e+03	-1.40301e-02	6.43833e+02
3927	6.44637e+02	3.92700e+03	-1.40606e-02	6.44500e+02
3931	6.45298e+02	3.93100e+03	-1.41092e-02	6.45167e+02
3935	6.45960e+02	3.93500e+03	-1.41082e-02	6.45833e+02
3939	6.46637e+02	3.93900e+03	-1.41089e-02	6.46500e+02
3943	6.47305e+02	3.94300e+03	-1.41093e-02	6.47167e+02
3947	6.47979e+02	3.94700e+03	-1.40669e-02	6.47833e+02
3951	6.48648e+02	3.95100e+03	-1.40199e-02	6.48500e+02
3955	6.49317e+02	3.95500e+03	-1.40028e-02	6.49167e+02
3959	6.49993e+02	3.95900e+03	-1.39780e-02	6.49833e+02
3963	6.50643e+02	3.96300e+03	-1.40056e-02	6.50500e+02
3967	6.51324e+02	3.96700e+03	-1.41424e-02	6.51167e+02
3971	6.51990e+02	3.97100e+03	-1.42505e-02	6.51833e+02
3975	6.52672e+02	3.97500e+03	-1.42409e-02	6.52500e+02
3979	6.53345e+02	3.97900e+03	-1.41542e-02	6.53167e+02
3983	6.54028e+02	3.98300e+03	-1.41067e-02	6.53833e+02
3987	6.54707e+02	3.98700e+03	-1.41313e-02	6.54500e+02
3991	6.55379e+02	3.99100e+03	-1.40985e-02	6.55167e+02
3995	6.56042e+02	3.99500e+03	-1.39962e-02	6.55833e+02
3999	6.56711e+02	3.99900e+03	-1.39981e-02	6.56500e+02
4003	6.57399e+02	4.00300e+03	-1.40984e-02	6.57167e+02
4007	6.58058e+02	4.00700e+03	-1.41579e-02	6.57833e+02
4011	6.58733e+02	4.01100e+03	-1.41963e-02	6.58500e+02
4015	6.59400e+02	4.01500e+03	-1.41778e-02	6.59167e+02
4019	6.60070e+02	4.01900e+03	-1.41264e-02	6.59833e+02
4023	6.60741e+02	4.02300e+03	-1.41474e-02	6.60500e+02
4027	6.61409e+02	4.02700e+03	-1.41648e-02	6.61167e+02
4031	6.62066e+02	4.03100e+03	-1.41570e-02	6.61833e+02
4035	6.62739e+02	4.03500e+03	-1.41499e-02	6.62500e+02
4039	6.63401e+02	4.03900e+03	-1.41450e-02	6.63167e+02
4043	6.64070e+02	4.04300e+03	-1.41595e-02	6.63833e+02
4047	6.64749e+02	4.04700e+03	-1.41895e-02	6.64500e+02
4051	6.65415e+02	4.05100e+03	-1.42026e-02	6.65167e+02
4055	6.66085e+02	4.05500e+03	-1.41691e-02	6.65833e+02
4059	6.66763e+02	4.05900e+03	-1.41234e-02	6.66500e+02
4063	6.67427e+02	4.06300e+03	-1.40805e-02	6.67167e+02
4067	6.68089e+02	4.06700e+03	-1.40771e-02	6.67833e+02
4071	6.68749e+02	4.07100e+03	-1.41306e-02	6.68500e+02
4075	6.69436e+02	4.07500e+03	-1.41717e-02	6.69167e+02
4079	6.70115e+02	4.07900e+03	-1.41523e-02	6.69833e+02
4083	6.70799e+02	4.08300e+03	-1.40723e-02	6.70500e+02
4087	6.71485e+02	4.08700e+03	-1.39824e-02	6.71167e+02
4091	6.72182e+02	4.09100e+03	-1.39468e-02	6.71833e+02
4095	6.72862e+02	4.09500e+03	-1.39555e-02	6.72500e+02
4099	6.73542e+02	4.09900e+03	-1.39823e-02	6.73167e+02
4103	6.74222e+02	4.10300e+03	-1.40319e-02	6.73833e+02
4107	6.74892e+02	4.10700e+03	-1.40530e-02	6.74500e+02
4111	6.75552e+02	4.11100e+03	-1.40784e-02	6.75167e+02
4115	6.76219e+02	4.11500e+03	-1.41286e-02	6.75833e+02
4119	6.76903e+02	4.11900e+03	-1.41328e-02	6.76500e+02
4123	6.77579e+02	4.12300e+03	-1.41174e-02	6.77167e+02
4127	6.78267e+02	4.12700e+03	-1.41456e-02	6.77833e+02
4131	6.78950e+02	4.13100e+03	-1.42222e-02	6.78500e+02
4135	6.79613e+02	4.13500e+03	-1.42891e-02	6.79167e+02
4139	6.80296e+02	4.13900e+03	-1.43594e-02	6.79833e+02
4143	6.80976e+02	4.14300e+03	-1.44593e-02	6.80500e+02
4147	6.81637e+02	4.14700e+03	-1.45169e-02	6.81167e+02
4151	6.82312e+02	4.15100e+03	-1.44565e-02	6.81833e+02
4155	6.82979e+02	4.15500e+03	-1.42781e-02	6.82500e+02
4159	6.83677e+02	4.15900e+03	-1.40888e-02	6.83167e+02
4163	6.84354e+02	4.16300e+03	-1.40008e-02	6.83833e+02
4167	6.85035e+02	4.16700e+03	-1.40256e-02	6.84500e+02
4171	6.85705e+02	4.17100e+03	-1.40752e-02	6.85167e+02
4175	6.86377e+02	4.17500e+03	-1.41392e-02	6.85833e+02
4179	6.87046e+02	4.17900e+03	-1.42250e-02	6.86500e+02
4183	6.87702e+02	4.18300e+03	-1.42344e-02	6.87167e+02
4187	6.88365e+02	4.18700e+03	-1.41988e-02	6.87833e+02
4191	6.89029e+02	4.19100e+03	-1.41955e-02	6.88500e+02
4195	6.89691e+02	4.19500e+03	-1.41641e-02	6.89167e+02
4199	6.90362e+02	4.19900e+03	-1.40440e-02	6.89833e+02
4203	6.91040e+02	4.20300e+03	-1.39141e-02	6.90500e+02
4207	6.91702e+02	4.20700e+03	-1.38390e-02	6.91167e+02
4211	6.92368e+02	4.21100e+03	-1.37983e-02	6.91833e+02
4215	6.93041e+02	4.21500e+03	-1.37827e-02	6.92500e+02
4219	6.93719e+02	4.21900e+03	-1.37675e-02	6.93167e+02
4223	6.94399e+02	4.22300e+03	-1.38027e-02	6.93833e+02
4227	6.95067e+02	4.22700e+03	-1.39047e-02	6.94500e+02
4231	6.95747e+02	4.23100e+03	-1.39586e-02	6.95167e+02
4235	6.96315e+02	4.23500e+03	-1.39595e-02	6.95833e+02
4239	6.96746e+02	4.23900e+03	-1.39737e-02	6.96500e+02
4243	6.97247e+02	4.24300e+03	-1.39810e-02	6.97167e+02
4247	6.97686e+02	4.24700e+03	-1.39636e-02	6.97833e+02
4251	6.98071e+02	4.25100e+03	-1.39041e-02	6.98500e+02
4255	6.98420e+02	4.25500e+03	-1.38590e-02	6.99167e+02
4259	6.98728e+02	4.25900e+03	-1.39648e-02	6.99833e+02
4260	6.98796e+02	4.26000e+03	-1.40210e-02	7.00000e+02