File: Experiments/TUBS/tga_nonisotherm/tga_dynamic_n2_dyn10_piece_3mg_r2.txt
index	ts	t	weight	tr
[#]	[°C]	[s]	[mg]	[°C]
843	1.30642e+02	8.43000e+02	3.00172e+00	1.30500e+02
847	1.31313e+02	8.47000e+02	3.00164e+00	1.31167e+02
851	1.31968e+02	8.51000e+02	3.00151e+00	1.31833e+02
855	1.32640e+02	8.55000e+02	3.00147e+00	1.32500e+02
859	1.33313e+02	8.59000e+02	3.00148e+00	1.33167e+02
863	1.33990e+02	8.63000e+02	3.00149e+00	1.33833e+02
867	1.34651e+02	8.67000e+02	3.00146e+00	1.34500e+02
871	1.35307e+02	8.71000e+02	3.00139e+00	1.35167e+02
875	1.36003e+02	8.75000e+02	3.00133e+00	1.35833e+02
879	1.36698e+02	8.79000e+02	3.00124e+00	1.36500e+02
883	1.37396e+02	8.83000e+02	3.00111e+00	1.37167e+02
887	1.38064e+02	8.87000e+02	3.00104e+00	1.37833e+02
891	1.38736e+02	8.91000e+02	3.00101e+00	1.38500e+02
895	1.39407e+02	8.95000e+02	3.00096e+00	1.39167e+02
899	1.40080e+02	8.99000e+02	3.00091e+00	1.39833e+02
903	1.40743e+02	9.03000e+02	3.00079e+00	1.40500e+02
907	1.41423e+02	9.07000e+02	3.00063e+00	1.41167e+02
911	1.42101e+02	9.11000e+02	3.00060e+00	1.41833e+02
915	1.42785e+02	9.15000e+02	3.00066e+00	1.42500e+02
919	1.43453e+02	9.19000e+02	3.00063e+00	1.43167e+02
923	1.44135e+02	9.23000e+02	3.00040e+00	1.43833e+02
927	1.44820e+02	9.27000e+02	3.00030e+00	1.44500e+02
931	1.45491e+02	9.31000e+02	3.00063e+00	1.45167e+02
935	1.46167e+02	9.35000e+02	3.00092e+00	1.45833e+02
939	1.46876e+02	9.39000e+02	3.00073e+00	1.46500e+02
943	1.47563e+02	9.43000e+02	3.00040e+00	1.47167e+02
947	1.48228e+02	9.47000e+02	3.00022e+00	1.47833e+02
951	1.48914e+02	9.51000e+02	3.00013e+00	1.48500e+02
955	1.49595e+02	9.55000e+02	3.00009e+00	1.49167e+02
959	1.50280e+02	9.59000e+02	3.00004e+00	1.49833e+02
963	1.50955e+02	9.63000e+02	2.99987e+00	1.50500e+02
967	1.51637e+02	9.67000e+02	2.99975e+00	1.51167e+02
971	1.52314e+02	9.71000e+02	2.99976e+00	1.51833e+02
975	1.52990e+02	9.75000e+02	2.99974e+00	1.52500e+02
979	1.53675e+02	9.79000e+02	2.99967e+00	1.53167e+02
983	1.54341e+02	9.83000e+02	2.99957e+00	1.53833e+02
987	1.55028e+02	9.87000e+02	2.99943e+00	1.54500e+02
991	1.55683e+02	9.91000e+02	2.99937e+00	1.55167e+02
995	1.56376e+02	9.95000e+02	2.99938e+00	1.55833e+02
999	1.57048e+02	9.99000e+02	2.99928e+00	1.56500e+02
1003	1.57722e+02	1.00300e+03	2.99912e+00	1.57167e+02
1007	1.58400e+02	1.00700e+03	2.99905e+00	1.57833e+02
1011	1.59070e+02	1.01100e+03	2.99903e+00	1.58500e+02
1015	1.59750e+02	1.01500e+03	2.99889e+00	1.59167e+02
1019	1.60422e+02	1.01900e+03	2.99871e+00	1.59833e+02
1023	1.61108e+02	1.02300e+03	2.99864e+00	1.60500e+02
1027	1.61785e+02	1.02700e+03	2.99866e+00	1.61167e+02
1031	1.62462e+02	1.03100e+03	2.99860e+00	1.61833e+02
1035	1.63146e+02	1.03500e+03	2.99842e+00	1.62500e+02
1039	1.63845e+02	1.03900e+03	2.99825e+00	1.63167e+02
1043	1.64524e+02	1.04300e+03	2.99820e+00	1.63833e+02
1047	1.65188e+02	1.04700e+03	2.99820e+00	1.64500e+02
1051	1.65870e+02	1.05100e+03	2.99815e+00	1.65167e+02
1055	1.66556e+02	1.05500e+03	2.99808e+00	1.65833e+02
1059	1.67221e+02	1.05900e+03	2.99803e+00	1.66500e+02
1063	1.67894e+02	1.06300e+03	2.99787e+00	1.67167e+02
1067	1.68576e+02	1.06700e+03	2.99774e+00	1.67833e+02
1071	1.69248e+02	1.07100e+03	2.99772e+00	1.68500e+02
1075	1.69921e+02	1.07500e+03	2.99766e+00	1.69167e+02
1079	1.70618e+02	1.07900e+03	2.99745e+00	1.69833e+02
1083	1.71290e+02	1.08300e+03	2.99715e+00	1.70500e+02
1087	1.71968e+02	1.08700e+03	2.99687e+00	1.71167e+02
1091	1.72654e+02	1.09100e+03	2.99666e+00	1.71833e+02
1095	1.73325e+02	1.09500e+03	2.99644e+00	1.72500e+02
1099	1.74001e+02	1.09900e+03	2.99630e+00	1.73167e+02
1103	1.74686e+02	1.10300e+03	2.99622e+00	1.73833e+02
1107	1.75360e+02	1.10700e+03	2.99605e+00	1.74500e+02
1111	1.76029e+02	1.11100e+03	2.99580e+00	1.75167e+02
1115	1.76700e+02	1.11500e+03	2.99551e+00	1.75833e+02
1119	1.77376e+02	1.11900e+03	2.99516e+00	1.76500e+02
1123	1.78047e+02	1.12300e+03	2.99482e+00	1.77167e+02
1127	1.78727e+02	1.12700e+03	2.99453e+00	1.77833e+02
1131	1.79392e+02	1.13100e+03	2.99420e+00	1.78500e+02
1135	1.80064e+02	1.13500e+03	2.99383e+00	1.79167e+02
1139	1.80731e+02	1.13900e+03	2.99346e+00	1.79833e+02
1143	1.81421e+02	1.14300e+03	2.99310e+00	1.80500e+02
1147	1.82090e+02	1.14700e+03	2.99272e+00	1.81167e+02
1151	1.82787e+02	1.15100e+03	2.99230e+00	1.81833e+02
1155	1.83454e+02	1.15500e+03	2.99187e+00	1.82500e+02
1159	1.84146e+02	1.15900e+03	2.99142e+00	1.83167e+02
1163	1.84850e+02	1.16300e+03	2.99092e+00	1.83833e+02
1167	1.85571e+02	1.16700e+03	2.99040e+00	1.84500e+02
1171	1.86250e+02	1.17100e+03	2.98980e+00	1.85167e+02
1175	1.86936e+02	1.17500e+03	2.98917e+00	1.85833e+02
1179	1.87604e+02	1.17900e+03	2.98859e+00	1.86500e+02
1183	1.88288e+02	1.18300e+03	2.98804e+00	1.87167e+02
1187	1.88985e+02	1.18700e+03	2.98748e+00	1.87833e+02
1191	1.89673e+02	1.19100e+03	2.98690e+00	1.88500e+02
1195	1.90336e+02	1.19500e+03	2.98634e+00	1.89167e+02
1199	1.91020e+02	1.19900e+03	2.98574e+00	1.89833e+02
1203	1.91707e+02	1.20300e+03	2.98516e+00	1.90500e+02
1207	1.92402e+02	1.20700e+03	2.98462e+00	1.91167e+02
1211	1.93088e+02	1.21100e+03	2.98395e+00	1.91833e+02
1215	1.93758e+02	1.21500e+03	2.98307e+00	1.92500e+02
1219	1.94443e+02	1.21900e+03	2.98222e+00	1.93167e+02
1223	1.95129e+02	1.22300e+03	2.98151e+00	1.93833e+02
1227	1.95819e+02	1.22700e+03	2.98071e+00	1.94500e+02
1231	1.96483e+02	1.23100e+03	2.97969e+00	1.95167e+02
1235	1.97176e+02	1.23500e+03	2.97868e+00	1.95833e+02
1239	1.97857e+02	1.23900e+03	2.97807e+00	1.96500e+02
1243	1.98553e+02	1.24300e+03	2.97768e+00	1.97167e+02
1247	1.99230e+02	1.24700e+03	2.97701e+00	1.97833e+02
1251	1.99947e+02	1.25100e+03	2.97613e+00	1.98500e+02
1255	2.00631e+02	1.25500e+03	2.97529e+00	1.99167e+02
1259	2.01321e+02	1.25900e+03	2.97445e+00	1.99833e+02
1263	2.02008e+02	1.26300e+03	2.97359e+00	2.00500e+02
1267	2.02692e+02	1.26700e+03	2.97284e+00	2.01167e+02
1271	2.03390e+02	1.27100e+03	2.97223e+00	2.01833e+02
1275	2.04078e+02	1.27500e+03	2.97156e+00	2.02500e+02
1279	2.04746e+02	1.27900e+03	2.97070e+00	2.03167e+02
1283	2.05456e+02	1.28300e+03	2.96983e+00	2.03833e+02
1287	2.06114e+02	1.28700e+03	2.96906e+00	2.04500e+02
1291	2.06790e+02	1.29100e+03	2.96827e+00	2.05167e+02
1295	2.07480e+02	1.29500e+03	2.96746e+00	2.05833e+02
1299	2.08159e+02	1.29900e+03	2.96675e+00	2.06500e+02
1303	2.08825e+02	1.30300e+03	2.96610e+00	2.07167e+02
1307	2.09528e+02	1.30700e+03	2.96543e+00	2.07833e+02
1311	2.10200e+02	1.31100e+03	2.96463e+00	2.08500e+02
1315	2.10879e+02	1.31500e+03	2.96365e+00	2.09167e+02
1319	2.11559e+02	1.31900e+03	2.96295e+00	2.09833e+02
1323	2.12230e+02	1.32300e+03	2.96256e+00	2.10500e+02
1327	2.12913e+02	1.32700e+03	2.96186e+00	2.11167e+02
1331	2.13574e+02	1.33100e+03	2.96081e+00	2.11833e+02
1335	2.14255e+02	1.33500e+03	2.95991e+00	2.12500e+02
1339	2.14934e+02	1.33900e+03	2.95921e+00	2.13167e+02
1343	2.15620e+02	1.34300e+03	2.95848e+00	2.13833e+02
1347	2.16299e+02	1.34700e+03	2.95776e+00	2.14500e+02
1351	2.16958e+02	1.35100e+03	2.95711e+00	2.15167e+02
1355	2.17629e+02	1.35500e+03	2.95638e+00	2.15833e+02
1359	2.18304e+02	1.35900e+03	2.95549e+00	2.16500e+02
1363	2.18983e+02	1.36300e+03	2.95461e+00	2.17167e+02
1367	2.19663e+02	1.36700e+03	2.95383e+00	2.17833e+02
1371	2.20341e+02	1.37100e+03	2.95305e+00	2.18500e+02
1375	2.21004e+02	1.37500e+03	2.95232e+00	2.19167e+02
1379	2.21691e+02	1.37900e+03	2.95160e+00	2.19833e+02
1383	2.22367e+02	1.38300e+03	2.95083e+00	2.20500e+02
1387	2.23041e+02	1.38700e+03	2.95015e+00	2.21167e+02
1391	2.23713e+02	1.39100e+03	2.94949e+00	2.21833e+02
1395	2.24380e+02	1.39500e+03	2.94866e+00	2.22500e+02
1399	2.25064e+02	1.39900e+03	2.94772e+00	2.23167e+02
1403	2.25739e+02	1.40300e+03	2.94682e+00	2.23833e+02
1407	2.26411e+02	1.40700e+03	2.94601e+00	2.24500e+02
1411	2.27084e+02	1.41100e+03	2.94520e+00	2.25167e+02
1415	2.27764e+02	1.41500e+03	2.94441e+00	2.25833e+02
1419	2.28437e+02	1.41900e+03	2.94367e+00	2.26500e+02
1423	2.29118e+02	1.42300e+03	2.94297e+00	2.27167e+02
1427	2.29787e+02	1.42700e+03	2.94220e+00	2.27833e+02
1431	2.30460e+02	1.43100e+03	2.94135e+00	2.28500e+02
1435	2.31148e+02	1.43500e+03	2.94050e+00	2.29167e+02
1439	2.31824e+02	1.43900e+03	2.93970e+00	2.29833e+02
1443	2.32506e+02	1.44300e+03	2.93895e+00	2.30500e+02
1447	2.33176e+02	1.44700e+03	2.93808e+00	2.31167e+02
1451	2.33840e+02	1.45100e+03	2.93723e+00	2.31833e+02
1455	2.34520e+02	1.45500e+03	2.93649e+00	2.32500e+02
1459	2.35199e+02	1.45900e+03	2.93566e+00	2.33167e+02
1463	2.35881e+02	1.46300e+03	2.93482e+00	2.33833e+02
1467	2.36552e+02	1.46700e+03	2.93407e+00	2.34500e+02
1471	2.37236e+02	1.47100e+03	2.93340e+00	2.35167e+02
1475	2.37895e+02	1.47500e+03	2.93266e+00	2.35833e+02
1479	2.38594e+02	1.47900e+03	2.93181e+00	2.36500e+02
1483	2.39269e+02	1.48300e+03	2.93096e+00	2.37167e+02
1487	2.39948e+02	1.48700e+03	2.93015e+00	2.37833e+02
1491	2.40611e+02	1.49100e+03	2.92946e+00	2.38500e+02
1495	2.41282e+02	1.49500e+03	2.92882e+00	2.39167e+02
1499	2.41954e+02	1.49900e+03	2.92804e+00	2.39833e+02
1503	2.42624e+02	1.50300e+03	2.92710e+00	2.40500e+02
1507	2.43298e+02	1.50700e+03	2.92623e+00	2.41167e+02
1511	2.43977e+02	1.51100e+03	2.92549e+00	2.41833e+02
1515	2.44641e+02	1.51500e+03	2.92481e+00	2.42500e+02
1519	2.45334e+02	1.51900e+03	2.92415e+00	2.43167e+02
1523	2.46014e+02	1.52300e+03	2.92347e+00	2.43833e+02
1527	2.46684e+02	1.52700e+03	2.92290e+00	2.44500e+02
1531	2.47353e+02	1.53100e+03	2.92217e+00	2.45167e+02
1535	2.48026e+02	1.53500e+03	2.92124e+00	2.45833e+02
1539	2.48697e+02	1.53900e+03	2.92032e+00	2.46500e+02
1543	2.49366e+02	1.54300e+03	2.91945e+00	2.47167e+02
1547	2.50038e+02	1.54700e+03	2.91865e+00	2.47833e+02
1551	2.50716e+02	1.55100e+03	2.91788e+00	2.48500e+02
1555	2.51382e+02	1.55500e+03	2.91709e+00	2.49167e+02
1559	2.52063e+02	1.55900e+03	2.91630e+00	2.49833e+02
1563	2.52722e+02	1.56300e+03	2.91548e+00	2.50500e+02
1567	2.53403e+02	1.56700e+03	2.91468e+00	2.51167e+02
1571	2.54084e+02	1.57100e+03	2.91395e+00	2.51833e+02
1575	2.54744e+02	1.57500e+03	2.91321e+00	2.52500e+02
1579	2.55431e+02	1.57900e+03	2.91247e+00	2.53167e+02
1583	2.56095e+02	1.58300e+03	2.91170e+00	2.53833e+02
1587	2.56784e+02	1.58700e+03	2.91087e+00	2.54500e+02
1591	2.57464e+02	1.59100e+03	2.91008e+00	2.55167e+02
1595	2.58142e+02	1.59500e+03	2.90939e+00	2.55833e+02
1599	2.58824e+02	1.59900e+03	2.90874e+00	2.56500e+02
1603	2.59495e+02	1.60300e+03	2.90797e+00	2.57167e+02
1607	2.60175e+02	1.60700e+03	2.90715e+00	2.57833e+02
1611	2.60877e+02	1.61100e+03	2.90639e+00	2.58500e+02
1615	2.61541e+02	1.61500e+03	2.90556e+00	2.59167e+02
1619	2.62219e+02	1.61900e+03	2.90471e+00	2.59833e+02
1623	2.62881e+02	1.62300e+03	2.90399e+00	2.60500e+02
1627	2.63552e+02	1.62700e+03	2.90332e+00	2.61167e+02
1631	2.64206e+02	1.63100e+03	2.90254e+00	2.61833e+02
1635	2.64879e+02	1.63500e+03	2.90168e+00	2.62500e+02
1639	2.65549e+02	1.63900e+03	2.90090e+00	2.63167e+02
1643	2.66210e+02	1.64300e+03	2.90019e+00	2.63833e+02
1647	2.66867e+02	1.64700e+03	2.89932e+00	2.64500e+02
1651	2.67524e+02	1.65100e+03	2.89838e+00	2.65167e+02
1655	2.68194e+02	1.65500e+03	2.89756e+00	2.65833e+02
1659	2.68846e+02	1.65900e+03	2.89682e+00	2.66500e+02
1663	2.69513e+02	1.66300e+03	2.89604e+00	2.67167e+02
1667	2.70174e+02	1.66700e+03	2.89519e+00	2.67833e+02
1671	2.70835e+02	1.67100e+03	2.89434e+00	2.68500e+02
1675	2.71477e+02	1.67500e+03	2.89350e+00	2.69167e+02
1679	2.72141e+02	1.67900e+03	2.89262e+00	2.69833e+02
1683	2.72807e+02	1.68300e+03	2.89171e+00	2.70500e+02
1687	2.73477e+02	1.68700e+03	2.89078e+00	2.71167e+02
1691	2.74131e+02	1.69100e+03	2.88990e+00	2.71833e+02
1695	2.74793e+02	1.69500e+03	2.88906e+00	2.72500e+02
1699	2.75450e+02	1.69900e+03	2.88813e+00	2.73167e+02
1703	2.76123e+02	1.70300e+03	2.88715e+00	2.73833e+02
1707	2.76785e+02	1.70700e+03	2.88620e+00	2.74500e+02
1711	2.77454e+02	1.71100e+03	2.88517e+00	2.75167e+02
1715	2.78106e+02	1.71500e+03	2.88404e+00	2.75833e+02
1719	2.78770e+02	1.71900e+03	2.88292e+00	2.76500e+02
1723	2.79423e+02	1.72300e+03	2.88187e+00	2.77167e+02
1727	2.80091e+02	1.72700e+03	2.88086e+00	2.77833e+02
1731	2.80743e+02	1.73100e+03	2.87985e+00	2.78500e+02
1735	2.81405e+02	1.73500e+03	2.87882e+00	2.79167e+02
1739	2.82068e+02	1.73900e+03	2.87781e+00	2.79833e+02
1743	2.82722e+02	1.74300e+03	2.87674e+00	2.80500e+02
1747	2.83383e+02	1.74700e+03	2.87554e+00	2.81167e+02
1751	2.84025e+02	1.75100e+03	2.87428e+00	2.81833e+02
1755	2.84687e+02	1.75500e+03	2.87301e+00	2.82500e+02
1759	2.85340e+02	1.75900e+03	2.87169e+00	2.83167e+02
1763	2.86002e+02	1.76300e+03	2.87039e+00	2.83833e+02
1767	2.86664e+02	1.76700e+03	2.86910e+00	2.84500e+02
1771	2.87316e+02	1.77100e+03	2.86778e+00	2.85167e+02
1775	2.87976e+02	1.77500e+03	2.86637e+00	2.85833e+02
1779	2.88642e+02	1.77900e+03	2.86489e+00	2.86500e+02
1783	2.89288e+02	1.78300e+03	2.86336e+00	2.87167e+02
1787	2.89965e+02	1.78700e+03	2.86173e+00	2.87833e+02
1791	2.90623e+02	1.79100e+03	2.86013e+00	2.88500e+02
1795	2.91290e+02	1.79500e+03	2.85854e+00	2.89167e+02
1799	2.91951e+02	1.79900e+03	2.85687e+00	2.89833e+02
1803	2.92605e+02	1.80300e+03	2.85512e+00	2.90500e+02
1807	2.93269e+02	1.80700e+03	2.85328e+00	2.91167e+02
1811	2.93941e+02	1.81100e+03	2.85133e+00	2.91833e+02
1815	2.94618e+02	1.81500e+03	2.84937e+00	2.92500e+02
1819	2.95278e+02	1.81900e+03	2.84752e+00	2.93167e+02
1823	2.95950e+02	1.82300e+03	2.84551e+00	2.93833e+02
1827	2.96619e+02	1.82700e+03	2.84304e+00	2.94500e+02
1831	2.97265e+02	1.83100e+03	2.84046e+00	2.95167e+02
1835	2.97947e+02	1.83500e+03	2.83800e+00	2.95833e+02
1839	2.98612e+02	1.83900e+03	2.83562e+00	2.96500e+02
1843	2.99284e+02	1.84300e+03	2.83323e+00	2.97167e+02
1847	2.99942e+02	1.84700e+03	2.83070e+00	2.97833e+02
1851	3.00597e+02	1.85100e+03	2.82800e+00	2.98500e+02
1855	3.01249e+02	1.85500e+03	2.82512e+00	2.99167e+02
1859	3.01895e+02	1.85900e+03	2.82218e+00	2.99833e+02
1863	3.02529e+02	1.86300e+03	2.81926e+00	3.00500e+02
1867	3.03142e+02	1.86700e+03	2.81632e+00	3.01167e+02
1871	3.03762e+02	1.87100e+03	2.81336e+00	3.01833e+02
1875	3.04392e+02	1.87500e+03	2.81042e+00	3.02500e+02
1879	3.04992e+02	1.87900e+03	2.80758e+00	3.03167e+02
1883	3.05593e+02	1.88300e+03	2.80487e+00	3.03833e+02
1887	3.06230e+02	1.88700e+03	2.80221e+00	3.04500e+02
1891	3.06873e+02	1.89100e+03	2.79955e+00	3.05167e+02
1895	3.07529e+02	1.89500e+03	2.79689e+00	3.05833e+02
1899	3.08187e+02	1.89900e+03	2.79429e+00	3.06500e+02
1903	3.08845e+02	1.90300e+03	2.79189e+00	3.07167e+02
1907	3.09509e+02	1.90700e+03	2.78955e+00	3.07833e+02
1911	3.10168e+02	1.91100e+03	2.78688e+00	3.08500e+02
1915	3.10826e+02	1.91500e+03	2.78417e+00	3.09167e+02
1919	3.11486e+02	1.91900e+03	2.78182e+00	3.09833e+02
1923	3.12158e+02	1.92300e+03	2.77950e+00	3.10500e+02
1927	3.12810e+02	1.92700e+03	2.77701e+00	3.11167e+02
1931	3.13465e+02	1.93100e+03	2.77443e+00	3.11833e+02
1935	3.14117e+02	1.93500e+03	2.77184e+00	3.12500e+02
1939	3.14789e+02	1.93900e+03	2.76935e+00	3.13167e+02
1943	3.15436e+02	1.94300e+03	2.76674e+00	3.13833e+02
1947	3.16108e+02	1.94700e+03	2.76391e+00	3.14500e+02
1951	3.16761e+02	1.95100e+03	2.76112e+00	3.15167e+02
1955	3.17428e+02	1.95500e+03	2.75838e+00	3.15833e+02
1959	3.18072e+02	1.95900e+03	2.75538e+00	3.16500e+02
1963	3.18743e+02	1.96300e+03	2.75230e+00	3.17167e+02
1967	3.19401e+02	1.96700e+03	2.74930e+00	3.17833e+02
1971	3.20053e+02	1.97100e+03	2.74618e+00	3.18500e+02
1975	3.20707e+02	1.97500e+03	2.74295e+00	3.19167e+02
1979	3.21370e+02	1.97900e+03	2.73956e+00	3.19833e+02
1983	3.22029e+02	1.98300e+03	2.73592e+00	3.20500e+02
1987	3.22697e+02	1.98700e+03	2.73218e+00	3.21167e+02
1991	3.23362e+02	1.99100e+03	2.72860e+00	3.21833e+02
1995	3.24026e+02	1.99500e+03	2.72500e+00	3.22500e+02
1999	3.24690e+02	1.99900e+03	2.72103e+00	3.23167e+02
2003	3.25344e+02	2.00300e+03	2.71685e+00	3.23833e+02
2007	3.26008e+02	2.00700e+03	2.71260e+00	3.24500e+02
2011	3.26662e+02	2.01100e+03	2.70815e+00	3.25167e+02
2015	3.27337e+02	2.01500e+03	2.70351e+00	3.25833e+02
2019	3.27992e+02	2.01900e+03	2.69876e+00	3.26500e+02
2023	3.28643e+02	2.02300e+03	2.69373e+00	3.27167e+02
2027	3.29303e+02	2.02700e+03	2.68843e+00	3.27833e+02
2031	3.29976e+02	2.03100e+03	2.68297e+00	3.28500e+02
2035	3.30639e+02	2.03500e+03	2.67723e+00	3.29167e+02
2039	3.31289e+02	2.03900e+03	2.67122e+00	3.29833e+02
2043	3.31958e+02	2.04300e+03	2.66519e+00	3.30500e+02
2047	3.32615e+02	2.04700e+03	2.65896e+00	3.31167e+02
2051	3.33279e+02	2.05100e+03	2.65198e+00	3.31833e+02
2055	3.33930e+02	2.05500e+03	2.64432e+00	3.32500e+02
2059	3.34599e+02	2.05900e+03	2.63665e+00	3.33167e+02
2063	3.35255e+02	2.06300e+03	2.62929e+00	3.33833e+02
2067	3.35920e+02	2.06700e+03	2.62168e+00	3.34500e+02
2071	3.36584e+02	2.07100e+03	2.61324e+00	3.35167e+02
2075	3.37245e+02	2.07500e+03	2.60404e+00	3.35833e+02
2079	3.37909e+02	2.07900e+03	2.59448e+00	3.36500e+02
2083	3.38571e+02	2.08300e+03	2.58470e+00	3.37167e+02
2087	3.39228e+02	2.08700e+03	2.57449e+00	3.37833e+02
2091	3.39883e+02	2.09100e+03	2.56371e+00	3.38500e+02
2095	3.40550e+02	2.09500e+03	2.55248e+00	3.39167e+02
2099	3.41198e+02	2.09900e+03	2.54076e+00	3.39833e+02
2103	3.41856e+02	2.10300e+03	2.52847e+00	3.40500e+02
2107	3.42501e+02	2.10700e+03	2.51566e+00	3.41167e+02
2111	3.43173e+02	2.11100e+03	2.50238e+00	3.41833e+02
2115	3.43839e+02	2.11500e+03	2.48831e+00	3.42500e+02
2119	3.44492e+02	2.11900e+03	2.47321e+00	3.43167e+02
2123	3.45151e+02	2.12300e+03	2.45734e+00	3.43833e+02
2127	3.45804e+02	2.12700e+03	2.44078e+00	3.44500e+02
2131	3.46463e+02	2.13100e+03	2.42371e+00	3.45167e+02
2135	3.47110e+02	2.13500e+03	2.40634e+00	3.45833e+02
2139	3.47768e+02	2.13900e+03	2.38857e+00	3.46500e+02
2143	3.48431e+02	2.14300e+03	2.36958e+00	3.47167e+02
2147	3.49090e+02	2.14700e+03	2.34880e+00	3.47833e+02
2151	3.49739e+02	2.15100e+03	2.32684e+00	3.48500e+02
2155	3.50402e+02	2.15500e+03	2.30439e+00	3.49167e+02
2159	3.51059e+02	2.15900e+03	2.28155e+00	3.49833e+02
2163	3.51725e+02	2.16300e+03	2.25823e+00	3.50500e+02
2167	3.52390e+02	2.16700e+03	2.23435e+00	3.51167e+02
2171	3.53038e+02	2.17100e+03	2.20963e+00	3.51833e+02
2175	3.53688e+02	2.17500e+03	2.18404e+00	3.52500e+02
2179	3.54334e+02	2.17900e+03	2.15777e+00	3.53167e+02
2183	3.54997e+02	2.18300e+03	2.13076e+00	3.53833e+02
2187	3.55655e+02	2.18700e+03	2.10291e+00	3.54500e+02
2191	3.56311e+02	2.19100e+03	2.07391e+00	3.55167e+02
2195	3.56966e+02	2.19500e+03	2.04367e+00	3.55833e+02
2199	3.57624e+02	2.19900e+03	2.01258e+00	3.56500e+02
2203	3.58283e+02	2.20300e+03	1.98080e+00	3.57167e+02
2207	3.58949e+02	2.20700e+03	1.94837e+00	3.57833e+02
2211	3.59604e+02	2.21100e+03	1.91562e+00	3.58500e+02
2215	3.60266e+02	2.21500e+03	1.88264e+00	3.59167e+02
2219	3.60937e+02	2.21900e+03	1.84909e+00	3.59833e+02
2223	3.61591e+02	2.22300e+03	1.81492e+00	3.60500e+02
2227	3.62268e+02	2.22700e+03	1.78032e+00	3.61167e+02
2231	3.62915e+02	2.23100e+03	1.74534e+00	3.61833e+02
2235	3.63576e+02	2.23500e+03	1.70987e+00	3.62500e+02
2239	3.64242e+02	2.23900e+03	1.67388e+00	3.63167e+02
2243	3.64924e+02	2.24300e+03	1.63746e+00	3.63833e+02
2247	3.65588e+02	2.24700e+03	1.60052e+00	3.64500e+02
2251	3.66252e+02	2.25100e+03	1.56287e+00	3.65167e+02
2255	3.66909e+02	2.25500e+03	1.52498e+00	3.65833e+02
2259	3.67559e+02	2.25900e+03	1.48727e+00	3.66500e+02
2263	3.68237e+02	2.26300e+03	1.44961e+00	3.67167e+02
2267	3.69029e+02	2.26700e+03	1.41174e+00	3.67833e+02
2271	3.69705e+02	2.27100e+03	1.37360e+00	3.68500e+02
2275	3.70386e+02	2.27500e+03	1.33531e+00	3.69167e+02
2279	3.71098e+02	2.27900e+03	1.29711e+00	3.69833e+02
2283	3.71798e+02	2.28300e+03	1.25909e+00	3.70500e+02
2287	3.72493e+02	2.28700e+03	1.22118e+00	3.71167e+02
2291	3.73202e+02	2.29100e+03	1.18338e+00	3.71833e+02
2295	3.73940e+02	2.29500e+03	1.14553e+00	3.72500e+02
2299	3.74610e+02	2.29900e+03	1.10750e+00	3.73167e+02
2303	3.75307e+02	2.30300e+03	1.06936e+00	3.73833e+02
2307	3.75924e+02	2.30700e+03	1.03144e+00	3.74500e+02
2311	3.76598e+02	2.31100e+03	9.94081e-01	3.75167e+02
2315	3.77245e+02	2.31500e+03	9.56555e-01	3.75833e+02
2319	3.77892e+02	2.31900e+03	9.18214e-01	3.76500e+02
2323	3.78545e+02	2.32300e+03	8.79907e-01	3.77167e+02
2327	3.79214e+02	2.32700e+03	8.42225e-01	3.77833e+02
2331	3.79895e+02	2.33100e+03	8.05079e-01	3.78500e+02
2335	3.80541e+02	2.33500e+03	7.68646e-01	3.79167e+02
2339	3.81191e+02	2.33900e+03	7.33050e-01	3.79833e+02
2343	3.81845e+02	2.34300e+03	6.98242e-01	3.80500e+02
2347	3.82527e+02	2.34700e+03	6.64395e-01	3.81167e+02
2351	3.83193e+02	2.35100e+03	6.31799e-01	3.81833e+02
2355	3.83871e+02	2.35500e+03	6.00538e-01	3.82500e+02
2359	3.84528e+02	2.35900e+03	5.70388e-01	3.83167e+02
2363	3.85207e+02	2.36300e+03	5.41027e-01	3.83833e+02
2367	3.85867e+02	2.36700e+03	5.12613e-01	3.84500e+02
2371	3.86547e+02	2.37100e+03	4.85491e-01	3.85167e+02
2375	3.87211e+02	2.37500e+03	4.59862e-01	3.85833e+02
2379	3.87881e+02	2.37900e+03	4.35259e-01	3.86500e+02
2383	3.88556e+02	2.38300e+03	4.11268e-01	3.87167e+02
2387	3.89233e+02	2.38700e+03	3.88380e-01	3.87833e+02
2391	3.89903e+02	2.39100e+03	3.66798e-01	3.88500e+02
2395	3.90572e+02	2.39500e+03	3.46198e-01	3.89167e+02
2399	3.91240e+02	2.39900e+03	3.26419e-01	3.89833e+02
2403	3.91924e+02	2.40300e+03	3.07580e-01	3.90500e+02
2407	3.92588e+02	2.40700e+03	2.89761e-01	3.91167e+02
2411	3.93257e+02	2.41100e+03	2.73002e-01	3.91833e+02
2415	3.93930e+02	2.41500e+03	2.57201e-01	3.92500e+02
2419	3.94607e+02	2.41900e+03	2.42210e-01	3.93167e+02
2423	3.95285e+02	2.42300e+03	2.28070e-01	3.93833e+02
2427	3.95969e+02	2.42700e+03	2.14778e-01	3.94500e+02
2431	3.96653e+02	2.43100e+03	2.02217e-01	3.95167e+02
2435	3.97312e+02	2.43500e+03	1.90318e-01	3.95833e+02
2439	3.97986e+02	2.43900e+03	1.79076e-01	3.96500e+02
2443	3.98644e+02	2.44300e+03	1.68541e-01	3.97167e+02
2447	3.99322e+02	2.44700e+03	1.58760e-01	3.97833e+02
2451	3.99988e+02	2.45100e+03	1.49676e-01	3.98500e+02
2455	4.00654e+02	2.45500e+03	1.41308e-01	3.99167e+02
2459	4.01328e+02	2.45900e+03	1.33587e-01	3.99833e+02
2463	4.01987e+02	2.46300e+03	1.26325e-01	4.00500e+02
2467	4.02666e+02	2.46700e+03	1.19394e-01	4.01167e+02
2471	4.03326e+02	2.47100e+03	1.12963e-01	4.01833e+02
2475	4.03985e+02	2.47500e+03	1.07253e-01	4.02500e+02
2479	4.04655e+02	2.47900e+03	1.02104e-01	4.03167e+02
2483	4.05338e+02	2.48300e+03	9.72572e-02	4.03833e+02
2487	4.05989e+02	2.48700e+03	9.26600e-02	4.04500e+02
2491	4.06653e+02	2.49100e+03	8.84105e-02	4.05167e+02
2495	4.07313e+02	2.49500e+03	8.45761e-02	4.05833e+02
2499	4.07977e+02	2.49900e+03	8.10938e-02	4.06500e+02
2503	4.08640e+02	2.50300e+03	7.77937e-02	4.07167e+02
2507	4.09316e+02	2.50700e+03	7.46712e-02	4.07833e+02
2511	4.09986e+02	2.51100e+03	7.17869e-02	4.08500e+02
2515	4.10651e+02	2.51500e+03	6.91607e-02	4.09167e+02
2519	4.11329e+02	2.51900e+03	6.68299e-02	4.09833e+02
2523	4.11987e+02	2.52300e+03	6.47175e-02	4.10500e+02
2527	4.12667e+02	2.52700e+03	6.26791e-02	4.11167e+02
2531	4.13323e+02	2.53100e+03	6.07191e-02	4.11833e+02
2535	4.13995e+02	2.53500e+03	5.89519e-02	4.12500e+02
2539	4.14666e+02	2.53900e+03	5.73861e-02	4.13167e+02
2543	4.15336e+02	2.54300e+03	5.58837e-02	4.13833e+02
2547	4.16023e+02	2.54700e+03	5.44285e-02	4.14500e+02
2551	4.16709e+02	2.55100e+03	5.31273e-02	4.15167e+02
2555	4.17369e+02	2.55500e+03	5.19447e-02	4.15833e+02
2559	4.18050e+02	2.55900e+03	5.07980e-02	4.16500e+02
2563	4.18716e+02	2.56300e+03	4.97021e-02	4.17167e+02
2567	4.19374e+02	2.56700e+03	4.87175e-02	4.17833e+02
2571	4.20041e+02	2.57100e+03	4.78509e-02	4.18500e+02
2575	4.20713e+02	2.57500e+03	4.70393e-02	4.19167e+02
2579	4.21365e+02	2.57900e+03	4.62305e-02	4.19833e+02
2583	4.22025e+02	2.58300e+03	4.54837e-02	4.20500e+02
2587	4.22683e+02	2.58700e+03	4.47651e-02	4.21167e+02
2591	4.23324e+02	2.59100e+03	4.40418e-02	4.21833e+02
2595	4.23984e+02	2.59500e+03	4.33945e-02	4.22500e+02
2599	4.24624e+02	2.59900e+03	4.27253e-02	4.23167e+02
2603	4.25274e+02	2.60300e+03	4.20551e-02	4.23833e+02
2607	4.25939e+02	2.60700e+03	4.15319e-02	4.24500e+02
2611	4.26600e+02	2.61100e+03	4.14175e-02	4.25167e+02
2615	4.27263e+02	2.61500e+03	4.16749e-02	4.25833e+02
2619	4.27935e+02	2.61900e+03	4.17473e-02	4.26500e+02
2623	4.28598e+02	2.62300e+03	4.14281e-02	4.27167e+02
2627	4.29276e+02	2.62700e+03	4.09389e-02	4.27833e+02
2631	4.29937e+02	2.63100e+03	4.03732e-02	4.28500e+02
2635	4.30605e+02	2.63500e+03	3.97484e-02	4.29167e+02
2639	4.31262e+02	2.63900e+03	3.91823e-02	4.29833e+02
2643	4.31922e+02	2.64300e+03	3.86548e-02	4.30500e+02
2647	4.32575e+02	2.64700e+03	3.82006e-02	4.31167e+02
2651	4.33241e+02	2.65100e+03	3.78850e-02	4.31833e+02
2655	4.33894e+02	2.65500e+03	3.75809e-02	4.32500e+02
2659	4.34539e+02	2.65900e+03	3.72551e-02	4.33167e+02
2663	4.35187e+02	2.66300e+03	3.69824e-02	4.33833e+02
2667	4.35832e+02	2.66700e+03	3.67402e-02	4.34500e+02
2671	4.36482e+02	2.67100e+03	3.65442e-02	4.35167e+02
2675	4.37144e+02	2.67500e+03	3.64093e-02	4.35833e+02
2679	4.37803e+02	2.67900e+03	3.63068e-02	4.36500e+02
2683	4.38444e+02	2.68300e+03	3.61838e-02	4.37167e+02
2687	4.39081e+02	2.68700e+03	3.59900e-02	4.37833e+02
2691	4.39728e+02	2.69100e+03	3.57952e-02	4.38500e+02
2695	4.40391e+02	2.69500e+03	3.56604e-02	4.39167e+02
2699	4.41032e+02	2.69900e+03	3.55798e-02	4.39833e+02
2703	4.41674e+02	2.70300e+03	3.55328e-02	4.40500e+02
2707	4.42328e+02	2.70700e+03	3.54616e-02	4.41167e+02
2711	4.42990e+02	2.71100e+03	3.53670e-02	4.41833e+02
2715	4.43630e+02	2.71500e+03	3.52917e-02	4.42500e+02
2719	4.44278e+02	2.71900e+03	3.53408e-02	4.43167e+02
2723	4.44938e+02	2.72300e+03	3.55314e-02	4.43833e+02
2727	4.45591e+02	2.72700e+03	3.56743e-02	4.44500e+02
2731	4.46252e+02	2.73100e+03	3.57589e-02	4.45167e+02
2735	4.46889e+02	2.73500e+03	3.58841e-02	4.45833e+02
2739	4.47539e+02	2.73900e+03	3.59121e-02	4.46500e+02
2743	4.48203e+02	2.74300e+03	3.57506e-02	4.47167e+02
2747	4.48849e+02	2.74700e+03	3.55734e-02	4.47833e+02
2751	4.49506e+02	2.75100e+03	3.55462e-02	4.48500e+02
2755	4.50163e+02	2.75500e+03	3.55753e-02	4.49167e+02
2759	4.50807e+02	2.75900e+03	3.55616e-02	4.49833e+02
2763	4.51462e+02	2.76300e+03	3.56072e-02	4.50500e+02
2767	4.52121e+02	2.76700e+03	3.56617e-02	4.51167e+02
2771	4.52766e+02	2.77100e+03	3.55961e-02	4.51833e+02
2775	4.53422e+02	2.77500e+03	3.54277e-02	4.52500e+02
2779	4.54077e+02	2.77900e+03	3.52360e-02	4.53167e+02
2783	4.54721e+02	2.78300e+03	3.51293e-02	4.53833e+02
2787	4.55376e+02	2.78700e+03	3.51344e-02	4.54500e+02
2791	4.56031e+02	2.79100e+03	3.51726e-02	4.55167e+02
2795	4.56685e+02	2.79500e+03	3.51742e-02	4.55833e+02
2799	4.57328e+02	2.79900e+03	3.51002e-02	4.56500e+02
2803	4.57983e+02	2.80300e+03	3.49235e-02	4.57167e+02
2807	4.58626e+02	2.80700e+03	3.47454e-02	4.57833e+02
2811	4.59281e+02	2.81100e+03	3.47400e-02	4.58500e+02
2815	4.59939e+02	2.81500e+03	3.48010e-02	4.59167e+02
2819	4.60588e+02	2.81900e+03	3.47569e-02	4.59833e+02
2823	4.61244e+02	2.82300e+03	3.46939e-02	4.60500e+02
2827	4.61886e+02	2.82700e+03	3.46749e-02	4.61167e+02
2831	4.62544e+02	2.83100e+03	3.46510e-02	4.61833e+02
2835	4.63200e+02	2.83500e+03	3.46178e-02	4.62500e+02
2839	4.63855e+02	2.83900e+03	3.45755e-02	4.63167e+02
2843	4.64515e+02	2.84300e+03	3.45591e-02	4.63833e+02
2847	4.65168e+02	2.84700e+03	3.45432e-02	4.64500e+02
2851	4.65826e+02	2.85100e+03	3.44314e-02	4.65167e+02
2855	4.66481e+02	2.85500e+03	3.43254e-02	4.65833e+02
2859	4.67140e+02	2.85900e+03	3.42873e-02	4.66500e+02
2863	4.67795e+02	2.86300e+03	3.42350e-02	4.67167e+02
2867	4.68459e+02	2.86700e+03	3.41758e-02	4.67833e+02
2871	4.69103e+02	2.87100e+03	3.41622e-02	4.68500e+02
2875	4.69753e+02	2.87500e+03	3.41713e-02	4.69167e+02
2879	4.70416e+02	2.87900e+03	3.41713e-02	4.69833e+02
2883	4.71074e+02	2.88300e+03	3.41543e-02	4.70500e+02
2887	4.71719e+02	2.88700e+03	3.40665e-02	4.71167e+02
2891	4.72383e+02	2.89100e+03	3.39548e-02	4.71833e+02
2895	4.73035e+02	2.89500e+03	3.39273e-02	4.72500e+02
2899	4.73680e+02	2.89900e+03	3.39349e-02	4.73167e+02
2903	4.74337e+02	2.90300e+03	3.38868e-02	4.73833e+02
2907	4.74994e+02	2.90700e+03	3.38568e-02	4.74500e+02
2911	4.75649e+02	2.91100e+03	3.39196e-02	4.75167e+02
2915	4.76301e+02	2.91500e+03	3.40159e-02	4.75833e+02
2919	4.76968e+02	2.91900e+03	3.39745e-02	4.76500e+02
2923	4.77625e+02	2.92300e+03	3.37735e-02	4.77167e+02
2927	4.78268e+02	2.92700e+03	3.36720e-02	4.77833e+02
2931	4.78939e+02	2.93100e+03	3.37622e-02	4.78500e+02
2935	4.79594e+02	2.93500e+03	3.38644e-02	4.79167e+02
2939	4.80239e+02	2.93900e+03	3.38607e-02	4.79833e+02
2943	4.80902e+02	2.94300e+03	3.38513e-02	4.80500e+02
2947	4.81554e+02	2.94700e+03	3.38163e-02	4.81167e+02
2951	4.82208e+02	2.95100e+03	3.36835e-02	4.81833e+02
2955	4.82854e+02	2.95500e+03	3.36304e-02	4.82500e+02
2959	4.83501e+02	2.95900e+03	3.36549e-02	4.83167e+02
2963	4.84160e+02	2.96300e+03	3.35537e-02	4.83833e+02
2967	4.84817e+02	2.96700e+03	3.34189e-02	4.84500e+02
2971	4.85462e+02	2.97100e+03	3.33730e-02	4.85167e+02
2975	4.86119e+02	2.97500e+03	3.33862e-02	4.85833e+02
2979	4.86770e+02	2.97900e+03	3.34121e-02	4.86500e+02
2983	4.87427e+02	2.98300e+03	3.33401e-02	4.87167e+02
2987	4.88076e+02	2.98700e+03	3.32132e-02	4.87833e+02
2991	4.88727e+02	2.99100e+03	3.32195e-02	4.88500e+02
2995	4.89386e+02	2.99500e+03	3.33124e-02	4.89167e+02
2999	4.90035e+02	2.99900e+03	3.33529e-02	4.89833e+02
3003	4.90697e+02	3.00300e+03	3.33318e-02	4.90500e+02
3007	4.91356e+02	3.00700e+03	3.32865e-02	4.91167e+02
3011	4.92013e+02	3.01100e+03	3.32188e-02	4.91833e+02
3015	4.92668e+02	3.01500e+03	3.32109e-02	4.92500e+02
3019	4.93327e+02	3.01900e+03	3.32778e-02	4.93167e+02
3023	4.93992e+02	3.02300e+03	3.33239e-02	4.93833e+02
3027	4.94638e+02	3.02700e+03	3.33761e-02	4.94500e+02
3031	4.95302e+02	3.03100e+03	3.34486e-02	4.95167e+02
3035	4.95946e+02	3.03500e+03	3.33893e-02	4.95833e+02
3039	4.96627e+02	3.03900e+03	3.32096e-02	4.96500e+02
3043	4.97300e+02	3.04300e+03	3.31483e-02	4.97167e+02
3047	4.97961e+02	3.04700e+03	3.31583e-02	4.97833e+02
3051	4.98624e+02	3.05100e+03	3.30996e-02	4.98500e+02
3055	4.99284e+02	3.05500e+03	3.30449e-02	4.99167e+02
3059	4.99949e+02	3.05900e+03	3.31208e-02	4.99833e+02
3063	5.00606e+02	3.06300e+03	3.31922e-02	5.00500e+02
3067	5.01277e+02	3.06700e+03	3.31612e-02	5.01167e+02
3071	5.01936e+02	3.07100e+03	3.31534e-02	5.01833e+02
3075	5.02598e+02	3.07500e+03	3.30860e-02	5.02500e+02
3079	5.03255e+02	3.07900e+03	3.29183e-02	5.03167e+02
3083	5.03929e+02	3.08300e+03	3.28360e-02	5.03833e+02
3087	5.04590e+02	3.08700e+03	3.28621e-02	5.04500e+02
3091	5.05245e+02	3.09100e+03	3.28340e-02	5.05167e+02
3095	5.05904e+02	3.09500e+03	3.27860e-02	5.05833e+02
3099	5.06566e+02	3.09900e+03	3.27557e-02	5.06500e+02
3103	5.07227e+02	3.10300e+03	3.27345e-02	5.07167e+02
3107	5.07893e+02	3.10700e+03	3.27867e-02	5.07833e+02
3111	5.08553e+02	3.11100e+03	3.28246e-02	5.08500e+02
3115	5.09212e+02	3.11500e+03	3.28125e-02	5.09167e+02
3119	5.09875e+02	3.11900e+03	3.27482e-02	5.09833e+02
3123	5.10525e+02	3.12300e+03	3.26331e-02	5.10500e+02
3127	5.11205e+02	3.12700e+03	3.25849e-02	5.11167e+02
3131	5.11866e+02	3.13100e+03	3.27045e-02	5.11833e+02
3135	5.12535e+02	3.13500e+03	3.28610e-02	5.12500e+02
3139	5.13194e+02	3.13900e+03	3.28683e-02	5.13167e+02
3143	5.13855e+02	3.14300e+03	3.27869e-02	5.13833e+02
3147	5.14516e+02	3.14700e+03	3.27627e-02	5.14500e+02
3151	5.15193e+02	3.15100e+03	3.28851e-02	5.15167e+02
3155	5.15838e+02	3.15500e+03	3.30369e-02	5.15833e+02
3159	5.16507e+02	3.15900e+03	3.30077e-02	5.16500e+02
3163	5.17168e+02	3.16300e+03	3.28347e-02	5.17167e+02
3167	5.17841e+02	3.16700e+03	3.26719e-02	5.17833e+02
3171	5.18502e+02	3.17100e+03	3.25905e-02	5.18500e+02
3175	5.19171e+02	3.17500e+03	3.26024e-02	5.19167e+02
3179	5.19829e+02	3.17900e+03	3.26280e-02	5.19833e+02
3183	5.20488e+02	3.18300e+03	3.26221e-02	5.20500e+02
3187	5.21158e+02	3.18700e+03	3.26218e-02	5.21167e+02
3191	5.21820e+02	3.19100e+03	3.25373e-02	5.21833e+02
3195	5.22486e+02	3.19500e+03	3.23634e-02	5.22500e+02
3199	5.23135e+02	3.19900e+03	3.23244e-02	5.23167e+02
3203	5.23808e+02	3.20300e+03	3.24539e-02	5.23833e+02
3207	5.24480e+02	3.20700e+03	3.25976e-02	5.24500e+02
3211	5.25145e+02	3.21100e+03	3.26661e-02	5.25167e+02
3215	5.25816e+02	3.21500e+03	3.26638e-02	5.25833e+02
3219	5.26475e+02	3.21900e+03	3.25949e-02	5.26500e+02
3223	5.27146e+02	3.22300e+03	3.25301e-02	5.27167e+02
3227	5.27809e+02	3.22700e+03	3.25025e-02	5.27833e+02
3231	5.28477e+02	3.23100e+03	3.24773e-02	5.28500e+02
3235	5.29141e+02	3.23500e+03	3.24764e-02	5.29167e+02
3239	5.29798e+02	3.23900e+03	3.24886e-02	5.29833e+02
3243	5.30460e+02	3.24300e+03	3.24806e-02	5.30500e+02
3247	5.31123e+02	3.24700e+03	3.24761e-02	5.31167e+02
3251	5.31783e+02	3.25100e+03	3.25007e-02	5.31833e+02
3255	5.32443e+02	3.25500e+03	3.24817e-02	5.32500e+02
3259	5.33103e+02	3.25900e+03	3.24434e-02	5.33167e+02
3263	5.33772e+02	3.26300e+03	3.24391e-02	5.33833e+02
3267	5.34435e+02	3.26700e+03	3.24701e-02	5.34500e+02
3271	5.35097e+02	3.27100e+03	3.25048e-02	5.35167e+02
3275	5.35767e+02	3.27500e+03	3.24958e-02	5.35833e+02
3279	5.36425e+02	3.27900e+03	3.24180e-02	5.36500e+02
3283	5.37099e+02	3.28300e+03	3.23256e-02	5.37167e+02
3287	5.37762e+02	3.28700e+03	3.22902e-02	5.37833e+02
3291	5.38425e+02	3.29100e+03	3.23164e-02	5.38500e+02
3295	5.39089e+02	3.29500e+03	3.23198e-02	5.39167e+02
3299	5.39760e+02	3.29900e+03	3.22839e-02	5.39833e+02
3303	5.40429e+02	3.30300e+03	3.23125e-02	5.40500e+02
3307	5.41097e+02	3.30700e+03	3.23642e-02	5.41167e+02
3311	5.41764e+02	3.31100e+03	3.23147e-02	5.41833e+02
3315	5.42438e+02	3.31500e+03	3.21590e-02	5.42500e+02
3319	5.43097e+02	3.31900e+03	3.19957e-02	5.43167e+02
3323	5.43770e+02	3.32300e+03	3.20237e-02	5.43833e+02
3327	5.44436e+02	3.32700e+03	3.23524e-02	5.44500e+02
3331	5.45107e+02	3.33100e+03	3.26464e-02	5.45167e+02
3335	5.45773e+02	3.33500e+03	3.25767e-02	5.45833e+02
3339	5.46448e+02	3.33900e+03	3.22801e-02	5.46500e+02
3343	5.47114e+02	3.34300e+03	3.20793e-02	5.47167e+02
3347	5.47793e+02	3.34700e+03	3.21058e-02	5.47833e+02
3351	5.48462e+02	3.35100e+03	3.22246e-02	5.48500e+02
3355	5.49133e+02	3.35500e+03	3.22722e-02	5.49167e+02
3359	5.49813e+02	3.35900e+03	3.22512e-02	5.49833e+02
3363	5.50485e+02	3.36300e+03	3.22416e-02	5.50500e+02
3367	5.51156e+02	3.36700e+03	3.22479e-02	5.51167e+02
3371	5.51823e+02	3.37100e+03	3.21903e-02	5.51833e+02
3375	5.52497e+02	3.37500e+03	3.20404e-02	5.52500e+02
3379	5.53174e+02	3.37900e+03	3.19626e-02	5.53167e+02
3383	5.53850e+02	3.38300e+03	3.20494e-02	5.53833e+02
3387	5.54522e+02	3.38700e+03	3.21641e-02	5.54500e+02
3391	5.55181e+02	3.39100e+03	3.21652e-02	5.55167e+02
3395	5.55862e+02	3.39500e+03	3.20580e-02	5.55833e+02
3399	5.56546e+02	3.39900e+03	3.19106e-02	5.56500e+02
3403	5.57213e+02	3.40300e+03	3.18032e-02	5.57167e+02
3407	5.57900e+02	3.40700e+03	3.18204e-02	5.57833e+02
3411	5.58574e+02	3.41100e+03	3.18714e-02	5.58500e+02
3415	5.59218e+02	3.41500e+03	3.18583e-02	5.59167e+02
3419	5.59891e+02	3.41900e+03	3.18427e-02	5.59833e+02
3423	5.60529e+02	3.42300e+03	3.18826e-02	5.60500e+02
3427	5.61181e+02	3.42700e+03	3.18876e-02	5.61167e+02
3431	5.61855e+02	3.43100e+03	3.17863e-02	5.61833e+02
3435	5.62536e+02	3.43500e+03	3.16322e-02	5.62500e+02
3439	5.63211e+02	3.43900e+03	3.15809e-02	5.63167e+02
3443	5.63868e+02	3.44300e+03	3.17382e-02	5.63833e+02
3447	5.64523e+02	3.44700e+03	3.19922e-02	5.64500e+02
3451	5.65200e+02	3.45100e+03	3.21325e-02	5.65167e+02
3455	5.65858e+02	3.45500e+03	3.20400e-02	5.65833e+02
3459	5.66529e+02	3.45900e+03	3.19015e-02	5.66500e+02
3463	5.67189e+02	3.46300e+03	3.18661e-02	5.67167e+02
3467	5.67851e+02	3.46700e+03	3.18229e-02	5.67833e+02
3471	5.68495e+02	3.47100e+03	3.17475e-02	5.68500e+02
3475	5.69141e+02	3.47500e+03	3.17195e-02	5.69167e+02
3479	5.69790e+02	3.47900e+03	3.17106e-02	5.69833e+02
3483	5.70438e+02	3.48300e+03	3.16561e-02	5.70500e+02
3487	5.71094e+02	3.48700e+03	3.15936e-02	5.71167e+02
3491	5.71746e+02	3.49100e+03	3.15791e-02	5.71833e+02
3495	5.72397e+02	3.49500e+03	3.16408e-02	5.72500e+02
3499	5.73056e+02	3.49900e+03	3.16947e-02	5.73167e+02
3503	5.73700e+02	3.50300e+03	3.17164e-02	5.73833e+02
3507	5.74352e+02	3.50700e+03	3.17042e-02	5.74500e+02
3511	5.75011e+02	3.51100e+03	3.15983e-02	5.75167e+02
3515	5.75664e+02	3.51500e+03	3.14685e-02	5.75833e+02
3519	5.76325e+02	3.51900e+03	3.14054e-02	5.76500e+02
3523	5.76974e+02	3.52300e+03	3.14323e-02	5.77167e+02
3527	5.77639e+02	3.52700e+03	3.14591e-02	5.77833e+02
3531	5.78284e+02	3.53100e+03	3.14976e-02	5.78500e+02
3535	5.78942e+02	3.53500e+03	3.15644e-02	5.79167e+02
3539	5.79615e+02	3.53900e+03	3.15777e-02	5.79833e+02
3543	5.80260e+02	3.54300e+03	3.15018e-02	5.80500e+02
3547	5.80927e+02	3.54700e+03	3.14279e-02	5.81167e+02
3551	5.81585e+02	3.55100e+03	3.14651e-02	5.81833e+02
3555	5.82245e+02	3.55500e+03	3.15336e-02	5.82500e+02
3559	5.82912e+02	3.55900e+03	3.15119e-02	5.83167e+02
3563	5.83567e+02	3.56300e+03	3.14867e-02	5.83833e+02
3567	5.84234e+02	3.56700e+03	3.15459e-02	5.84500e+02
3571	5.84891e+02	3.57100e+03	3.15726e-02	5.85167e+02
3575	5.85548e+02	3.57500e+03	3.14813e-02	5.85833e+02
3579	5.86215e+02	3.57900e+03	3.13888e-02	5.86500e+02
3583	5.86863e+02	3.58300e+03	3.14041e-02	5.87167e+02
3587	5.87517e+02	3.58700e+03	3.15013e-02	5.87833e+02
3591	5.88184e+02	3.59100e+03	3.15492e-02	5.88500e+02
3595	5.88831e+02	3.59500e+03	3.14467e-02	5.89167e+02
3599	5.89488e+02	3.59900e+03	3.12733e-02	5.89833e+02
3603	5.90147e+02	3.60300e+03	3.11621e-02	5.90500e+02
3607	5.90806e+02	3.60700e+03	3.11405e-02	5.91167e+02
3611	5.91466e+02	3.61100e+03	3.11659e-02	5.91833e+02
3615	5.92131e+02	3.61500e+03	3.12539e-02	5.92500e+02
3619	5.92795e+02	3.61900e+03	3.13281e-02	5.93167e+02
3623	5.93451e+02	3.62300e+03	3.13359e-02	5.93833e+02
3627	5.94113e+02	3.62700e+03	3.13088e-02	5.94500e+02
3631	5.94774e+02	3.63100e+03	3.13234e-02	5.95167e+02
3635	5.95430e+02	3.63500e+03	3.13660e-02	5.95833e+02
3639	5.96081e+02	3.63900e+03	3.13118e-02	5.96500e+02
3643	5.96747e+02	3.64300e+03	3.12821e-02	5.97167e+02
3647	5.97400e+02	3.64700e+03	3.13264e-02	5.97833e+02
3651	5.98057e+02	3.65100e+03	3.13357e-02	5.98500e+02
3655	5.98731e+02	3.65500e+03	3.13616e-02	5.99167e+02
3659	5.99376e+02	3.65900e+03	3.13887e-02	5.99833e+02
3663	6.00028e+02	3.66300e+03	3.12995e-02	6.00500e+02
3667	6.00690e+02	3.66700e+03	3.11412e-02	6.01167e+02
3671	6.01360e+02	3.67100e+03	3.10360e-02	6.01833e+02
3675	6.02029e+02	3.67500e+03	3.10346e-02	6.02500e+02
3679	6.02696e+02	3.67900e+03	3.10872e-02	6.03167e+02
3683	6.03371e+02	3.68300e+03	3.11224e-02	6.03833e+02
3687	6.04025e+02	3.68700e+03	3.11662e-02	6.04500e+02
3691	6.04696e+02	3.69100e+03	3.11932e-02	6.05167e+02
3695	6.05365e+02	3.69500e+03	3.11728e-02	6.05833e+02
3699	6.06024e+02	3.69900e+03	3.11581e-02	6.06500e+02
3703	6.06696e+02	3.70300e+03	3.11254e-02	6.07167e+02
3707	6.07364e+02	3.70700e+03	3.10731e-02	6.07833e+02
3711	6.08026e+02	3.71100e+03	3.10530e-02	6.08500e+02
3715	6.08699e+02	3.71500e+03	3.10825e-02	6.09167e+02
3719	6.09368e+02	3.71900e+03	3.11357e-02	6.09833e+02
3723	6.10041e+02	3.72300e+03	3.11560e-02	6.10500e+02
3727	6.10707e+02	3.72700e+03	3.11578e-02	6.11167e+02
3731	6.11355e+02	3.73100e+03	3.12181e-02	6.11833e+02
3735	6.12024e+02	3.73500e+03	3.12832e-02	6.12500e+02
3739	6.12668e+02	3.73900e+03	3.12672e-02	6.13167e+02
3743	6.13309e+02	3.74300e+03	3.11969e-02	6.13833e+02
3747	6.13946e+02	3.74700e+03	3.11122e-02	6.14500e+02
3751	6.14590e+02	3.75100e+03	3.10765e-02	6.15167e+02
3755	6.15252e+02	3.75500e+03	3.10772e-02	6.15833e+02
3759	6.15905e+02	3.75900e+03	3.10368e-02	6.16500e+02
3763	6.16568e+02	3.76300e+03	3.09205e-02	6.17167e+02
3767	6.17236e+02	3.76700e+03	3.08271e-02	6.17833e+02
3771	6.17896e+02	3.77100e+03	3.08208e-02	6.18500e+02
3775	6.18554e+02	3.77500e+03	3.09155e-02	6.19167e+02
3779	6.19215e+02	3.77900e+03	3.10314e-02	6.19833e+02
3783	6.19878e+02	3.78300e+03	3.10201e-02	6.20500e+02
3787	6.20544e+02	3.78700e+03	3.09562e-02	6.21167e+02
3791	6.21222e+02	3.79100e+03	3.09381e-02	6.21833e+02
3795	6.21885e+02	3.79500e+03	3.09359e-02	6.22500e+02
3799	6.22543e+02	3.79900e+03	3.09094e-02	6.23167e+02
3803	6.23195e+02	3.80300e+03	3.08768e-02	6.23833e+02
3807	6.23847e+02	3.80700e+03	3.08573e-02	6.24500e+02
3811	6.24507e+02	3.81100e+03	3.08276e-02	6.25167e+02
3815	6.25183e+02	3.81500e+03	3.08256e-02	6.25833e+02
3819	6.25840e+02	3.81900e+03	3.08556e-02	6.26500e+02
3823	6.26487e+02	3.82300e+03	3.08141e-02	6.27167e+02
3827	6.27145e+02	3.82700e+03	3.07694e-02	6.27833e+02
3831	6.27802e+02	3.83100e+03	3.07764e-02	6.28500e+02
3835	6.28469e+02	3.83500e+03	3.07965e-02	6.29167e+02
3839	6.29137e+02	3.83900e+03	3.08606e-02	6.29833e+02
3843	6.29784e+02	3.84300e+03	3.08517e-02	6.30500e+02
3847	6.30458e+02	3.84700e+03	3.07445e-02	6.31167e+02
3851	6.31119e+02	3.85100e+03	3.06770e-02	6.31833e+02
3855	6.31778e+02	3.85500e+03	3.07041e-02	6.32500e+02
3859	6.32461e+02	3.85900e+03	3.08230e-02	6.33167e+02
3863	6.33121e+02	3.86300e+03	3.09145e-02	6.33833e+02
3867	6.33784e+02	3.86700e+03	3.09189e-02	6.34500e+02
3871	6.34448e+02	3.87100e+03	3.08550e-02	6.35167e+02
3875	6.35112e+02	3.87500e+03	3.07545e-02	6.35833e+02
3879	6.35781e+02	3.87900e+03	3.07651e-02	6.36500e+02
3883	6.36439e+02	3.88300e+03	3.08397e-02	6.37167e+02
3887	6.37112e+02	3.88700e+03	3.08251e-02	6.37833e+02
3891	6.37773e+02	3.89100e+03	3.07449e-02	6.38500e+02
3895	6.38443e+02	3.89500e+03	3.06558e-02	6.39167e+02
3899	6.39099e+02	3.89900e+03	3.06367e-02	6.39833e+02
3903	6.39757e+02	3.90300e+03	3.07041e-02	6.40500e+02
3907	6.40425e+02	3.90700e+03	3.08040e-02	6.41167e+02
3911	6.41085e+02	3.91100e+03	3.08866e-02	6.41833e+02
3915	6.41753e+02	3.91500e+03	3.09047e-02	6.42500e+02
3919	6.42419e+02	3.91900e+03	3.08168e-02	6.43167e+02
3923	6.43076e+02	3.92300e+03	3.06699e-02	6.43833e+02
3927	6.43740e+02	3.92700e+03	3.06050e-02	6.44500e+02
3931	6.44419e+02	3.93100e+03	3.05897e-02	6.45167e+02
3935	6.45077e+02	3.93500e+03	3.05573e-02	6.45833e+02
3939	6.45755e+02	3.93900e+03	3.05645e-02	6.46500e+02
3943	6.46420e+02	3.94300e+03	3.06583e-02	6.47167e+02
3947	6.47082e+02	3.94700e+03	3.07540e-02	6.47833e+02
3951	6.47760e+02	3.95100e+03	3.07230e-02	6.48500e+02
3955	6.48443e+02	3.95500e+03	3.06181e-02	6.49167e+02
3959	6.49113e+02	3.95900e+03	3.05732e-02	6.49833e+02
3963	6.49788e+02	3.96300e+03	3.05651e-02	6.50500e+02
3967	6.50454e+02	3.96700e+03	3.05294e-02	6.51167e+02
3971	6.51117e+02	3.97100e+03	3.04725e-02	6.51833e+02
3975	6.51779e+02	3.97500e+03	3.04433e-02	6.52500e+02
3979	6.52441e+02	3.97900e+03	3.04602e-02	6.53167e+02
3983	6.53098e+02	3.98300e+03	3.04116e-02	6.53833e+02
3987	6.53759e+02	3.98700e+03	3.03246e-02	6.54500e+02
3991	6.54421e+02	3.99100e+03	3.03338e-02	6.55167e+02
3995	6.55084e+02	3.99500e+03	3.04030e-02	6.55833e+02
3999	6.55764e+02	3.99900e+03	3.04057e-02	6.56500e+02
4003	6.56418e+02	4.00300e+03	3.03504e-02	6.57167e+02
4007	6.57080e+02	4.00700e+03	3.03414e-02	6.57833e+02
4011	6.57735e+02	4.01100e+03	3.03559e-02	6.58500e+02
4015	6.58399e+02	4.01500e+03	3.03057e-02	6.59167e+02
4019	6.59063e+02	4.01900e+03	3.02573e-02	6.59833e+02
4023	6.59723e+02	4.02300e+03	3.02741e-02	6.60500e+02
4027	6.60386e+02	4.02700e+03	3.03065e-02	6.61167e+02
4031	6.61044e+02	4.03100e+03	3.03303e-02	6.61833e+02
4035	6.61714e+02	4.03500e+03	3.03287e-02	6.62500e+02
4039	6.62383e+02	4.03900e+03	3.02982e-02	6.63167e+02
4043	6.63030e+02	4.04300e+03	3.02598e-02	6.63833e+02
4047	6.63699e+02	4.04700e+03	3.02321e-02	6.64500e+02
4051	6.64365e+02	4.05100e+03	3.01998e-02	6.65167e+02
4055	6.65025e+02	4.05500e+03	3.01806e-02	6.65833e+02
4059	6.65694e+02	4.05900e+03	3.02044e-02	6.66500e+02
4063	6.66355e+02	4.06300e+03	3.02626e-02	6.67167e+02
4067	6.67001e+02	4.06700e+03	3.03099e-02	6.67833e+02
4071	6.67675e+02	4.07100e+03	3.02946e-02	6.68500e+02
4075	6.68344e+02	4.07500e+03	3.03134e-02	6.69167e+02
4079	6.69013e+02	4.07900e+03	3.03622e-02	6.69833e+02
4083	6.69679e+02	4.08300e+03	3.03482e-02	6.70500e+02
4087	6.70344e+02	4.08700e+03	3.02959e-02	6.71167e+02
4091	6.71011e+02	4.09100e+03	3.02797e-02	6.71833e+02
4095	6.71691e+02	4.09500e+03	3.03336e-02	6.72500e+02
4099	6.72348e+02	4.09900e+03	3.04076e-02	6.73167e+02
4103	6.73028e+02	4.10300e+03	3.04720e-02	6.73833e+02
4107	6.73692e+02	4.10700e+03	3.05185e-02	6.74500e+02
4111	6.74370e+02	4.11100e+03	3.04496e-02	6.75167e+02
4115	6.75024e+02	4.11500e+03	3.02456e-02	6.75833e+02
4119	6.75700e+02	4.11900e+03	3.01255e-02	6.76500e+02
4123	6.76363e+02	4.12300e+03	3.01780e-02	6.77167e+02
4127	6.77031e+02	4.12700e+03	3.02189e-02	6.77833e+02
4131	6.77703e+02	4.13100e+03	3.01994e-02	6.78500e+02
4135	6.78372e+02	4.13500e+03	3.01972e-02	6.79167e+02
4139	6.79048e+02	4.13900e+03	3.01324e-02	6.79833e+02
4143	6.79707e+02	4.14300e+03	3.00120e-02	6.80500e+02
4147	6.80374e+02	4.14700e+03	2.99727e-02	6.81167e+02
4151	6.81051e+02	4.15100e+03	3.00179e-02	6.81833e+02
4155	6.81709e+02	4.15500e+03	3.00768e-02	6.82500e+02
4159	6.82358e+02	4.15900e+03	3.00973e-02	6.83167e+02
4163	6.83045e+02	4.16300e+03	3.00716e-02	6.83833e+02
4167	6.83693e+02	4.16700e+03	3.00364e-02	6.84500e+02
4171	6.84362e+02	4.17100e+03	3.00173e-02	6.85167e+02
4175	6.85022e+02	4.17500e+03	3.00128e-02	6.85833e+02
4179	6.85692e+02	4.17900e+03	3.00119e-02	6.86500e+02
4183	6.86358e+02	4.18300e+03	2.99925e-02	6.87167e+02
4187	6.87020e+02	4.18700e+03	2.99776e-02	6.87833e+02
4191	6.87688e+02	4.19100e+03	2.99852e-02	6.88500e+02
4195	6.88359e+02	4.19500e+03	3.00254e-02	6.89167e+02
4199	6.89022e+02	4.19900e+03	3.01076e-02	6.89833e+02
4203	6.89688e+02	4.20300e+03	3.02361e-02	6.90500e+02
4207	6.90351e+02	4.20700e+03	3.03760e-02	6.91167e+02
4211	6.91017e+02	4.21100e+03	3.04072e-02	6.91833e+02
4215	6.91688e+02	4.21500e+03	3.03091e-02	6.92500e+02
4219	6.92354e+02	4.21900e+03	3.01661e-02	6.93167e+02
4223	6.93022e+02	4.22300e+03	3.00966e-02	6.93833e+02
4227	6.93689e+02	4.22700e+03	3.00903e-02	6.94500e+02
4231	6.94359e+02	4.23100e+03	3.00686e-02	6.95167e+02
4235	6.94919e+02	4.23500e+03	3.00674e-02	6.95833e+02
4239	6.95334e+02	4.23900e+03	3.01065e-02	6.96500e+02
4243	6.95795e+02	4.24300e+03	3.01624e-02	6.97167e+02
4247	6.96204e+02	4.24700e+03	3.01612e-02	6.97833e+02
4251	6.96571e+02	4.25100e+03	3.00853e-02	6.98500e+02
4255	6.96898e+02	4.25500e+03	3.00182e-02	6.99167e+02
4259	6.97186e+02	4.25900e+03	2.99994e-02	6.99833e+02
4260	6.97241e+02	4.26000e+03	2.99967e-02	7.00000e+02