File: Experiments/TUBS/tga_nonisotherm/tga_dynamic_n2low30_dyn30_powder_3mg_r3.txt
Index	Ts	t	Weight	Tr
[#]	[°C]	[s]	[mg]	[°C]
681	1.30278e+02	6.81000e+02	3.04896	130.5
683	1.31294e+02	6.83000e+02	3.04881	131.5
685	1.32300e+02	6.85000e+02	3.04862	132.5
687	1.33321e+02	6.87000e+02	3.04849	133.5
689	1.34314e+02	6.89000e+02	3.04841	134.5
691	1.35322e+02	6.91000e+02	3.0483	135.5
693	1.36327e+02	6.93000e+02	3.0482	136.5
695	1.37337e+02	6.95000e+02	3.04807	137.5
697	1.38344e+02	6.97000e+02	3.0479	138.5
699	1.39361e+02	6.99000e+02	3.04771	139.5
701	1.40368e+02	7.01000e+02	3.04751	140.5
703	1.41372e+02	7.03000e+02	3.04733	141.5
705	1.42389e+02	7.05000e+02	3.04716	142.5
707	1.43388e+02	7.07000e+02	3.04695	143.5
709	1.44388e+02	7.09000e+02	3.04671	144.5
711	1.45400e+02	7.11000e+02	3.04647	145.5
713	1.46409e+02	7.13000e+02	3.04616	146.5
715	1.47422e+02	7.15000e+02	3.04582	147.5
717	1.48427e+02	7.17000e+02	3.04543	148.5
719	1.49427e+02	7.19000e+02	3.04509	149.5
721	1.50442e+02	7.21000e+02	3.04476	150.5
723	1.51448e+02	7.23000e+02	3.04442	151.5
725	1.52464e+02	7.25000e+02	3.04405	152.5
727	1.53474e+02	7.27000e+02	3.0437	153.5
729	1.54484e+02	7.29000e+02	3.04335	154.5
731	1.55494e+02	7.31000e+02	3.04299	155.5
733	1.56498e+02	7.33000e+02	3.04255	156.5
735	1.57518e+02	7.35000e+02	3.04207	157.5
737	1.58526e+02	7.37000e+02	3.0415	158.5
739	1.59550e+02	7.39000e+02	3.04099	159.5
741	1.60554e+02	7.41000e+02	3.04051	160.5
743	1.61571e+02	7.43000e+02	3.04004	161.5
745	1.62579e+02	7.45000e+02	3.03956	162.5
747	1.63587e+02	7.47000e+02	3.03906	163.5
749	1.64608e+02	7.49000e+02	3.03847	164.5
751	1.65624e+02	7.51000e+02	3.03787	165.5
753	1.66648e+02	7.53000e+02	3.03719	166.5
755	1.67667e+02	7.55000e+02	3.03654	167.5
757	1.68683e+02	7.57000e+02	3.0359	168.5
759	1.69690e+02	7.59000e+02	3.03529	169.5
761	1.70711e+02	7.61000e+02	3.03469	170.5
763	1.71733e+02	7.63000e+02	3.03406	171.5
765	1.72741e+02	7.65000e+02	3.03336	172.5
767	1.73773e+02	7.67000e+02	3.0326	173.5
769	1.74779e+02	7.69000e+02	3.03172	174.5
771	1.75800e+02	7.71000e+02	3.03084	175.5
773	1.76832e+02	7.73000e+02	3.02984	176.5
775	1.77844e+02	7.75000e+02	3.02881	177.5
777	1.78852e+02	7.77000e+02	3.02765	178.5
779	1.79883e+02	7.79000e+02	3.02647	179.5
781	1.80950e+02	7.81000e+02	3.02514	180.5
783	1.81985e+02	7.83000e+02	3.02374	181.5
785	1.83008e+02	7.85000e+02	3.02215	182.5
787	1.84023e+02	7.87000e+02	3.02052	183.5
789	1.85049e+02	7.89000e+02	3.01864	184.5
791	1.86081e+02	7.91000e+02	3.01666	185.5
793	1.87094e+02	7.93000e+02	3.01439	186.5
795	1.88125e+02	7.95000e+02	3.01208	187.5
797	1.89129e+02	7.97000e+02	3.00952	188.5
799	1.90152e+02	7.99000e+02	3.00692	189.5
801	1.91171e+02	8.01000e+02	3.00415	190.5
803	1.92198e+02	8.03000e+02	3.00141	191.5
805	1.93220e+02	8.05000e+02	2.99858	192.5
807	1.94229e+02	8.07000e+02	2.99572	193.5
809	1.95288e+02	8.09000e+02	2.99279	194.5
811	1.96282e+02	8.11000e+02	2.98986	195.5
813	1.97296e+02	8.13000e+02	2.9869	196.5
815	1.98332e+02	8.15000e+02	2.98394	197.5
817	1.99359e+02	8.17000e+02	2.98101	198.5
819	2.00387e+02	8.19000e+02	2.97812	199.5
821	2.01408e+02	8.21000e+02	2.97533	200.5
823	2.02438e+02	8.23000e+02	2.9726	201.5
825	2.03456e+02	8.25000e+02	2.97003	202.5
827	2.04483e+02	8.27000e+02	2.96752	203.5
829	2.05504e+02	8.29000e+02	2.96524	204.5
831	2.06526e+02	8.31000e+02	2.96303	205.5
833	2.07567e+02	8.33000e+02	2.96106	206.5
835	2.08583e+02	8.35000e+02	2.95916	207.5
837	2.09616e+02	8.37000e+02	2.95751	208.5
839	2.10648e+02	8.39000e+02	2.95592	209.5
841	2.11666e+02	8.41000e+02	2.95457	210.5
843	2.12700e+02	8.43000e+02	2.95325	211.5
845	2.13721e+02	8.45000e+02	2.95211	212.5
847	2.14746e+02	8.47000e+02	2.95098	213.5
849	2.15763e+02	8.49000e+02	2.94997	214.5
851	2.16784e+02	8.51000e+02	2.94899	215.5
853	2.17798e+02	8.53000e+02	2.94815	216.5
855	2.18805e+02	8.55000e+02	2.94735	217.5
857	2.19815e+02	8.57000e+02	2.94664	218.5
859	2.20807e+02	8.59000e+02	2.94592	219.5
861	2.21822e+02	8.61000e+02	2.94523	220.5
863	2.22820e+02	8.63000e+02	2.94454	221.5
865	2.23823e+02	8.65000e+02	2.94388	222.5
867	2.24828e+02	8.67000e+02	2.9432	223.5
869	2.25829e+02	8.69000e+02	2.94253	224.5
871	2.26823e+02	8.71000e+02	2.94185	225.5
873	2.27840e+02	8.73000e+02	2.94115	226.5
875	2.28850e+02	8.75000e+02	2.94041	227.5
877	2.29866e+02	8.77000e+02	2.93965	228.5
879	2.30861e+02	8.79000e+02	2.9389	229.5
881	2.31874e+02	8.81000e+02	2.93815	230.5
883	2.32874e+02	8.83000e+02	2.93738	231.5
885	2.33892e+02	8.85000e+02	2.9366	232.5
887	2.34897e+02	8.87000e+02	2.93581	233.5
889	2.35913e+02	8.89000e+02	2.935	234.5
891	2.36911e+02	8.91000e+02	2.93418	235.5
893	2.37927e+02	8.93000e+02	2.93334	236.5
895	2.38923e+02	8.95000e+02	2.9325	237.5
897	2.39933e+02	8.97000e+02	2.93168	238.5
899	2.40930e+02	8.99000e+02	2.93092	239.5
901	2.41934e+02	9.01000e+02	2.93023	240.5
903	2.42949e+02	9.03000e+02	2.92952	241.5
905	2.43954e+02	9.05000e+02	2.92884	242.5
907	2.44945e+02	9.07000e+02	2.92811	243.5
909	2.45971e+02	9.09000e+02	2.92735	244.5
911	2.47004e+02	9.11000e+02	2.92661	245.5
913	2.48023e+02	9.13000e+02	2.9259	246.5
915	2.49057e+02	9.15000e+02	2.9252	247.5
917	2.50103e+02	9.17000e+02	2.92454	248.5
919	2.51116e+02	9.19000e+02	2.92389	249.5
921	2.52145e+02	9.21000e+02	2.92328	250.5
923	2.53169e+02	9.23000e+02	2.92268	251.5
925	2.54225e+02	9.25000e+02	2.92211	252.5
927	2.55265e+02	9.27000e+02	2.92153	253.5
929	2.56295e+02	9.29000e+02	2.92096	254.5
931	2.57338e+02	9.31000e+02	2.92042	255.5
933	2.58434e+02	9.33000e+02	2.9199	256.5
935	2.59440e+02	9.35000e+02	2.91938	257.5
937	2.60454e+02	9.37000e+02	2.91886	258.5
939	2.61511e+02	9.39000e+02	2.91834	259.5
941	2.62560e+02	9.41000e+02	2.9178	260.5
943	2.63551e+02	9.43000e+02	2.91724	261.5
945	2.64547e+02	9.45000e+02	2.91667	262.5
947	2.65595e+02	9.47000e+02	2.91612	263.5
949	2.66607e+02	9.49000e+02	2.91556	264.5
951	2.67596e+02	9.51000e+02	2.91497	265.5
953	2.68659e+02	9.53000e+02	2.91436	266.5
955	2.69709e+02	9.55000e+02	2.91376	267.5
957	2.70745e+02	9.57000e+02	2.91317	268.5
959	2.71804e+02	9.59000e+02	2.91257	269.5
961	2.72812e+02	9.61000e+02	2.91196	270.5
963	2.73830e+02	9.63000e+02	2.91134	271.5
965	2.74848e+02	9.65000e+02	2.91068	272.5
967	2.75874e+02	9.67000e+02	2.90998	273.5
969	2.76866e+02	9.69000e+02	2.90921	274.5
971	2.77872e+02	9.71000e+02	2.90844	275.5
973	2.78865e+02	9.73000e+02	2.90764	276.5
975	2.79864e+02	9.75000e+02	2.90681	277.5
977	2.80859e+02	9.77000e+02	2.90591	278.5
979	2.81890e+02	9.79000e+02	2.90499	279.5
981	2.82930e+02	9.81000e+02	2.90398	280.5
983	2.83989e+02	9.83000e+02	2.90294	281.5
985	2.85023e+02	9.85000e+02	2.90181	282.5
987	2.86084e+02	9.87000e+02	2.90065	283.5
989	2.87148e+02	9.89000e+02	2.89938	284.5
991	2.88188e+02	9.91000e+02	2.89805	285.5
993	2.89242e+02	9.93000e+02	2.89655	286.5
995	2.90272e+02	9.95000e+02	2.895	287.5
997	2.91288e+02	9.97000e+02	2.89324	288.5
999	2.92280e+02	9.99000e+02	2.89144	289.5
1001	2.93294e+02	1.00100e+03	2.88943	290.5
1003	2.94295e+02	1.00300e+03	2.88736	291.5
1005	2.95315e+02	1.00500e+03	2.88506	292.5
1007	2.96353e+02	1.00700e+03	2.88273	293.5
1009	2.97387e+02	1.00900e+03	2.88023	294.5
1011	2.98426e+02	1.01100e+03	2.87772	295.5
1013	2.99463e+02	1.01300e+03	2.87508	296.5
1015	3.00523e+02	1.01500e+03	2.87234	297.5
1017	3.01559e+02	1.01700e+03	2.86932	298.5
1019	3.02593e+02	1.01900e+03	2.86619	299.5
1021	3.03590e+02	1.02100e+03	2.86276	300.5
1023	3.04592e+02	1.02300e+03	2.85932	301.5
1025	3.05622e+02	1.02500e+03	2.85567	302.5
1027	3.06640e+02	1.02700e+03	2.85198	303.5
1029	3.07692e+02	1.02900e+03	2.84808	304.5
1031	3.08769e+02	1.03100e+03	2.84413	305.5
1033	3.09771e+02	1.03300e+03	2.83997	306.5
1035	3.10785e+02	1.03500e+03	2.83579	307.5
1037	3.11823e+02	1.03700e+03	2.83147	308.5
1039	3.12836e+02	1.03900e+03	2.82716	309.5
1041	3.13908e+02	1.04100e+03	2.82277	310.5
1043	3.14942e+02	1.04300e+03	2.81834	311.5
1045	3.15951e+02	1.04500e+03	2.81382	312.5
1047	3.16919e+02	1.04700e+03	2.80926	313.5
1049	3.17904e+02	1.04900e+03	2.80461	314.5
1051	3.18915e+02	1.05100e+03	2.79995	315.5
1053	3.19939e+02	1.05300e+03	2.79525	316.5
1055	3.20963e+02	1.05500e+03	2.79057	317.5
1057	3.21969e+02	1.05700e+03	2.78589	318.5
1059	3.22966e+02	1.05900e+03	2.78117	319.5
1061	3.23968e+02	1.06100e+03	2.77641	320.5
1063	3.24984e+02	1.06300e+03	2.77162	321.5
1065	3.25984e+02	1.06500e+03	2.76676	322.5
1067	3.26983e+02	1.06700e+03	2.76184	323.5
1069	3.27978e+02	1.06900e+03	2.75674	324.5
1071	3.28987e+02	1.07100e+03	2.75153	325.5
1073	3.29991e+02	1.07300e+03	2.74601	326.5
1075	3.31008e+02	1.07500e+03	2.74038	327.5
1077	3.32028e+02	1.07700e+03	2.73433	328.5
1079	3.33039e+02	1.07900e+03	2.72815	329.5
1081	3.34076e+02	1.08100e+03	2.72144	330.5
1083	3.35099e+02	1.08300e+03	2.71456	331.5
1085	3.36146e+02	1.08500e+03	2.70701	332.5
1087	3.37164e+02	1.08700e+03	2.69922	333.5
1089	3.38179e+02	1.08900e+03	2.6906	334.5
1091	3.39198e+02	1.09100e+03	2.68178	335.5
1093	3.40235e+02	1.09300e+03	2.67211	336.5
1095	3.41280e+02	1.09500e+03	2.66224	337.5
1097	3.42300e+02	1.09700e+03	2.6515	338.5
1099	3.43353e+02	1.09900e+03	2.64047	339.5
1101	3.44340e+02	1.10100e+03	2.62836	340.5
1103	3.45337e+02	1.10300e+03	2.61589	341.5
1105	3.46379e+02	1.10500e+03	2.60211	342.5
1107	3.47389e+02	1.10700e+03	2.58797	343.5
1109	3.48428e+02	1.10900e+03	2.57241	344.5
1111	3.49429e+02	1.11100e+03	2.55651	345.5
1113	3.50425e+02	1.11300e+03	2.53914	346.5
1115	3.51402e+02	1.11500e+03	2.52137	347.5
1117	3.52413e+02	1.11700e+03	2.50203	348.5
1119	3.53426e+02	1.11900e+03	2.48226	349.5
1121	3.54436e+02	1.12100e+03	2.46084	350.5
1123	3.55448e+02	1.12300e+03	2.43898	351.5
1125	3.56463e+02	1.12500e+03	2.41539	352.5
1127	3.57462e+02	1.12700e+03	2.39137	353.5
1129	3.58458e+02	1.12900e+03	2.36561	354.5
1131	3.59446e+02	1.13100e+03	2.33949	355.5
1133	3.60440e+02	1.13300e+03	2.31167	356.5
1135	3.61369e+02	1.13500e+03	2.28341	357.5
1137	3.62325e+02	1.13700e+03	2.25339	358.5
1139	3.63308e+02	1.13900e+03	2.22299	359.5
1141	3.64273e+02	1.14100e+03	2.19087	360.5
1143	3.65240e+02	1.14300e+03	2.15839	361.5
1145	3.66206e+02	1.14500e+03	2.1243	362.5
1147	3.67193e+02	1.14700e+03	2.08992	363.5
1149	3.68166e+02	1.14900e+03	2.05403	364.5
1151	3.69138e+02	1.15100e+03	2.0178	365.5
1153	3.70123e+02	1.15300e+03	1.98011	366.5
1155	3.71098e+02	1.15500e+03	1.9421	367.5
1157	3.72072e+02	1.15700e+03	1.90264	368.5
1159	3.73025e+02	1.15900e+03	1.8628	369.5
1161	3.74004e+02	1.16100e+03	1.82152	370.5
1163	3.74979e+02	1.16300e+03	1.77996	371.5
1165	3.75952e+02	1.16500e+03	1.7371	372.5
1167	3.76931e+02	1.16700e+03	1.69397	373.5
1169	3.77919e+02	1.16900e+03	1.6497	374.5
1171	3.78898e+02	1.17100e+03	1.60529	375.5
1173	3.79881e+02	1.17300e+03	1.56003	376.5
1175	3.80860e+02	1.17500e+03	1.51467	377.5
1177	3.81853e+02	1.17700e+03	1.46869	378.5
1179	3.82826e+02	1.17900e+03	1.42266	379.5
1181	3.83817e+02	1.18100e+03	1.37621	380.5
1183	3.84804e+02	1.18300e+03	1.32973	381.5
1185	3.85814e+02	1.18500e+03	1.28292	382.5
1187	3.86800e+02	1.18700e+03	1.23604	383.5
1189	3.87791e+02	1.18900e+03	1.18893	384.5
1191	3.88787e+02	1.19100e+03	1.14191	385.5
1193	3.89796e+02	1.19300e+03	1.09496	386.5
1195	3.90805e+02	1.19500e+03	1.04818	387.5
1197	3.91829e+02	1.19700e+03	1.00179	388.5
1199	3.92867e+02	1.19900e+03	0.955585	389.5
1201	3.93934e+02	1.20100e+03	0.909869	390.5
1203	3.94993e+02	1.20300e+03	0.864313	391.5
1205	3.96037e+02	1.20500e+03	0.819476	392.5
1207	3.97043e+02	1.20700e+03	0.775061	393.5
1209	3.98072e+02	1.20900e+03	0.73185	394.5
1211	3.99095e+02	1.21100e+03	0.689093	395.5
1213	4.00119e+02	1.21300e+03	0.647959	396.5
1215	4.01174e+02	1.21500e+03	0.607403	397.5
1217	4.02364e+02	1.21700e+03	0.568829	398.5
1219	4.03378e+02	1.21900e+03	0.53082	399.5
1221	4.04437e+02	1.22100e+03	0.495111	400.5
1223	4.05462e+02	1.22300e+03	0.460108	401.5
1225	4.06485e+02	1.22500e+03	0.427687	402.5
1227	4.07497e+02	1.22700e+03	0.395895	403.5
1229	4.08486e+02	1.22900e+03	0.366745	404.5
1231	4.09499e+02	1.23100e+03	0.338222	405.5
1233	4.10539e+02	1.23300e+03	0.312322	406.5
1235	4.11557e+02	1.23500e+03	0.287	407.5
1237	4.12614e+02	1.23700e+03	0.264192	408.5
1239	4.13686e+02	1.23900e+03	0.241908	409.5
1241	4.14743e+02	1.24100e+03	0.222006	410.5
1243	4.15807e+02	1.24300e+03	0.202611	411.5
1245	4.16846e+02	1.24500e+03	0.18544	412.5
1247	4.17923e+02	1.24700e+03	0.168684	413.5
1249	4.18992e+02	1.24900e+03	0.153937	414.5
1251	4.19963e+02	1.25100e+03	0.139599	415.5
1253	4.20963e+02	1.25300e+03	0.127103	416.5
1255	4.22039e+02	1.25500e+03	0.114969	417.5
1257	4.23072e+02	1.25700e+03	0.104535	418.5
1259	4.24096e+02	1.25900e+03	0.0944253	419.5
1261	4.25124e+02	1.26100e+03	0.0858434	420.5
1263	4.26177e+02	1.26300e+03	0.0775128	421.5
1265	4.27230e+02	1.26500e+03	0.0704848	422.5
1267	4.28183e+02	1.26700e+03	0.0636783	423.5
1269	4.29103e+02	1.26900e+03	0.0580052	424.5
1271	4.30088e+02	1.27100e+03	0.0525429	425.5
1273	4.31077e+02	1.27300e+03	0.0480907	426.5
1275	4.32014e+02	1.27500e+03	0.0438057	427.5
1277	4.32988e+02	1.27700e+03	0.0403667	428.5
1279	4.33959e+02	1.27900e+03	0.0370364	429.5
1281	4.34915e+02	1.28100e+03	0.0343767	430.5
1283	4.35904e+02	1.28300e+03	0.0318052	431.5
1285	4.36858e+02	1.28500e+03	0.0297288	432.5
1287	4.37848e+02	1.28700e+03	0.027699	433.5
1289	4.38884e+02	1.28900e+03	0.0260571	434.5
1291	4.39829e+02	1.29100e+03	0.0245091	435.5
1293	4.40842e+02	1.29300e+03	0.0233262	436.5
1295	4.41821e+02	1.29500e+03	0.0221746	437.5
1297	4.42894e+02	1.29700e+03	0.0212743	438.5
1299	4.44059e+02	1.29900e+03	0.0203788	439.5
1301	4.45012e+02	1.30100e+03	0.0196175	440.5
1303	4.46203e+02	1.30300e+03	0.0188801	441.5
1305	4.47164e+02	1.30500e+03	0.0182764	442.5
1307	4.48089e+02	1.30700e+03	0.0177223	443.5
1309	4.49025e+02	1.30900e+03	0.0173078	444.5
1311	4.49957e+02	1.31100e+03	0.0168792	445.5
1313	4.50905e+02	1.31300e+03	0.0165203	446.5
1315	4.51928e+02	1.31500e+03	0.0161725	447.5
1317	4.52808e+02	1.31700e+03	0.015876	448.5
1319	4.53710e+02	1.31900e+03	0.0155809	449.5
1321	4.54706e+02	1.32100e+03	0.0153231	450.5
1323	4.55672e+02	1.32300e+03	0.0150794	451.5
1325	4.56614e+02	1.32500e+03	0.0148864	452.5
1327	4.57563e+02	1.32700e+03	0.0146872	453.5
1329	4.58514e+02	1.32900e+03	0.0145131	454.5
1331	4.59471e+02	1.33100e+03	0.0143385	455.5
1333	4.60459e+02	1.33300e+03	0.0141928	456.5
1335	4.61428e+02	1.33500e+03	0.0140995	457.5
1337	4.62404e+02	1.33700e+03	0.014118	458.5
1339	4.63384e+02	1.33900e+03	0.0141459	459.5
1341	4.64335e+02	1.34100e+03	0.0142288	460.5
1343	4.65280e+02	1.34300e+03	0.0142591	461.5
1345	4.66260e+02	1.34500e+03	0.0142134	462.5
1347	4.67249e+02	1.34700e+03	0.0141547	463.5
1349	4.68275e+02	1.34900e+03	0.0140519	464.5
1351	4.69248e+02	1.35100e+03	0.0139921	465.5
1353	4.70231e+02	1.35300e+03	0.013963	466.5
1355	4.71237e+02	1.35500e+03	0.0139083	467.5
1357	4.72328e+02	1.35700e+03	0.0138494	468.5
1359	4.73357e+02	1.35900e+03	0.0137969	469.5
1361	4.74355e+02	1.36100e+03	0.0137465	470.5
1363	4.75345e+02	1.36300e+03	0.0137156	471.5
1365	4.76389e+02	1.36500e+03	0.0137109	472.5
1367	4.77458e+02	1.36700e+03	0.0137031	473.5
1369	4.78395e+02	1.36900e+03	0.0136952	474.5
1371	4.79400e+02	1.37100e+03	0.0136792	475.5
1373	4.80462e+02	1.37300e+03	0.0136671	476.5
1375	4.81424e+02	1.37500e+03	0.0136504	477.5
1377	4.82396e+02	1.37700e+03	0.0136402	478.5
1379	4.83363e+02	1.37900e+03	0.0136486	479.5
1381	4.84403e+02	1.38100e+03	0.0136697	480.5
1383	4.85190e+02	1.38300e+03	0.0136866	481.5
1385	4.86077e+02	1.38500e+03	0.0136856	482.5
1387	4.86916e+02	1.38700e+03	0.0136321	483.5
1389	4.87821e+02	1.38900e+03	0.0135289	484.5
1391	4.88798e+02	1.39100e+03	0.0134637	485.5
1393	4.89744e+02	1.39300e+03	0.0134037	486.5
1395	4.90674e+02	1.39500e+03	0.0133344	487.5
1397	4.91704e+02	1.39700e+03	0.0132837	488.5
1399	4.92808e+02	1.39900e+03	0.0132552	489.5
1401	4.93807e+02	1.40100e+03	0.013275	490.5
1403	4.94758e+02	1.40300e+03	0.0133015	491.5
1405	4.95691e+02	1.40500e+03	0.0133495	492.5
1407	4.96649e+02	1.40700e+03	0.013381	493.5
1409	4.97637e+02	1.40900e+03	0.0133861	494.5
1411	4.98616e+02	1.41100e+03	0.0133738	495.5
1413	4.99534e+02	1.41300e+03	0.0133375	496.5
1415	5.00542e+02	1.41500e+03	0.0133085	497.5
1417	5.01533e+02	1.41700e+03	0.0132761	498.5
1419	5.02532e+02	1.41900e+03	0.0132392	499.5
1421	5.03470e+02	1.42100e+03	0.0131797	500.5
1423	5.04450e+02	1.42300e+03	0.0131128	501.5
1425	5.05446e+02	1.42500e+03	0.0130334	502.5
1427	5.06403e+02	1.42700e+03	0.0129616	503.5
1429	5.07363e+02	1.42900e+03	0.0129055	504.5
1431	5.08373e+02	1.43100e+03	0.0128618	505.5
1433	5.09382e+02	1.43300e+03	0.0128518	506.5
1435	5.10368e+02	1.43500e+03	0.0128619	507.5
1437	5.11369e+02	1.43700e+03	0.0128927	508.5
1439	5.12360e+02	1.43900e+03	0.0128901	509.5
1441	5.13333e+02	1.44100e+03	0.0128659	510.5
1443	5.14311e+02	1.44300e+03	0.0128468	511.5
1445	5.15317e+02	1.44500e+03	0.0128183	512.5
1447	5.16311e+02	1.44700e+03	0.0128057	513.5
1449	5.17302e+02	1.44900e+03	0.0128154	514.5
1451	5.18309e+02	1.45100e+03	0.0128305	515.5
1453	5.19275e+02	1.45300e+03	0.0128552	516.5
1455	5.20265e+02	1.45500e+03	0.0128534	517.5
1457	5.21283e+02	1.45700e+03	0.0128328	518.5
1459	5.22294e+02	1.45900e+03	0.0128266	519.5
1461	5.23272e+02	1.46100e+03	0.0128129	520.5
1463	5.24277e+02	1.46300e+03	0.0127897	521.5
1465	5.25240e+02	1.46500e+03	0.0127762	522.5
1467	5.26241e+02	1.46700e+03	0.0127822	523.5
1469	5.27234e+02	1.46900e+03	0.0128083	524.5
1471	5.28189e+02	1.47100e+03	0.012836	525.5
1473	5.29206e+02	1.47300e+03	0.0128716	526.5
1475	5.30245e+02	1.47500e+03	0.0128996	527.5
1477	5.31256e+02	1.47700e+03	0.0129232	528.5
1479	5.32258e+02	1.47900e+03	0.012931	529.5
1481	5.33234e+02	1.48100e+03	0.0129126	530.5
1483	5.34112e+02	1.48300e+03	0.0129033	531.5
1485	5.34921e+02	1.48500e+03	0.0128752	532.5
1487	5.35780e+02	1.48700e+03	0.012832	533.5
1489	5.36677e+02	1.48900e+03	0.0127767	534.5
1491	5.37543e+02	1.49100e+03	0.012737	535.5
1493	5.38439e+02	1.49300e+03	0.0127129	536.5
1495	5.39454e+02	1.49500e+03	0.0126882	537.5
1497	5.40351e+02	1.49700e+03	0.0126443	538.5
1499	5.41327e+02	1.49900e+03	0.0125707	539.5
1501	5.42319e+02	1.50100e+03	0.012483	540.5
1503	5.43247e+02	1.50300e+03	0.0124389	541.5
1505	5.44142e+02	1.50500e+03	0.0124706	542.5
1507	5.45128e+02	1.50700e+03	0.0125382	543.5
1509	5.46061e+02	1.50900e+03	0.0126781	544.5
1511	5.47125e+02	1.51100e+03	0.0127812	545.5
1513	5.48101e+02	1.51300e+03	0.0128493	546.5
1515	5.48951e+02	1.51500e+03	0.0128795	547.5
1517	5.49931e+02	1.51700e+03	0.0128297	548.5
1519	5.50852e+02	1.51900e+03	0.0127893	549.5
1521	5.51810e+02	1.52100e+03	0.0127276	550.5
1523	5.52791e+02	1.52300e+03	0.0126715	551.5
1525	5.53764e+02	1.52500e+03	0.0126289	552.5
1527	5.54731e+02	1.52700e+03	0.0126122	553.5
1529	5.55689e+02	1.52900e+03	0.0126251	554.5
1531	5.56647e+02	1.53100e+03	0.0126342	555.5
1533	5.57604e+02	1.53300e+03	0.0126743	556.5
1535	5.58581e+02	1.53500e+03	0.0127171	557.5
1537	5.59549e+02	1.53700e+03	0.0127553	558.5
1539	5.60537e+02	1.53900e+03	0.0127812	559.5
1541	5.61510e+02	1.54100e+03	0.012798	560.5
1543	5.62488e+02	1.54300e+03	0.0128212	561.5
1545	5.63476e+02	1.54500e+03	0.0128328	562.5
1547	5.64466e+02	1.54700e+03	0.0128153	563.5
1549	5.65459e+02	1.54900e+03	0.0127473	564.5
1551	5.66451e+02	1.55100e+03	0.0126956	565.5
1553	5.67463e+02	1.55300e+03	0.0126453	566.5
1555	5.68485e+02	1.55500e+03	0.0126139	567.5
1557	5.69502e+02	1.55700e+03	0.012639	568.5
1559	5.70511e+02	1.55900e+03	0.0126656	569.5
1561	5.71495e+02	1.56100e+03	0.0126929	570.5
1563	5.72503e+02	1.56300e+03	0.0126811	571.5
1565	5.73478e+02	1.56500e+03	0.0126204	572.5
1567	5.74493e+02	1.56700e+03	0.01258	573.5
1569	5.75523e+02	1.56900e+03	0.0125634	574.5
1571	5.76561e+02	1.57100e+03	0.0125612	575.5
1573	5.77618e+02	1.57300e+03	0.0125866	576.5
1575	5.79046e+02	1.57500e+03	0.0125979	577.5
1577	5.80547e+02	1.57700e+03	0.0125829	578.5
1579	5.81716e+02	1.57900e+03	0.0125597	579.5
1581	5.82510e+02	1.58100e+03	0.012526	580.5
1583	5.83382e+02	1.58300e+03	0.0125115	581.5
1585	5.84284e+02	1.58500e+03	0.0125217	582.5
1587	5.85259e+02	1.58700e+03	0.0125162	583.5
1589	5.86242e+02	1.58900e+03	0.0125048	584.5
1591	5.87210e+02	1.59100e+03	0.0124979	585.5
1593	5.88187e+02	1.59300e+03	0.0124821	586.5
1595	5.89145e+02	1.59500e+03	0.0124684	587.5
1597	5.90118e+02	1.59700e+03	0.012419	588.5
1599	5.91090e+02	1.59900e+03	0.0123298	589.5
1601	5.92048e+02	1.60100e+03	0.0121889	590.5
1603	5.93028e+02	1.60300e+03	0.0120845	591.5
1605	5.94004e+02	1.60500e+03	0.0120318	592.5
1607	5.94983e+02	1.60700e+03	0.0120225	593.5
1609	5.95959e+02	1.60900e+03	0.0121381	594.5
1611	5.96932e+02	1.61100e+03	0.012274	595.5
1613	5.97909e+02	1.61300e+03	0.0124444	596.5
1615	5.98899e+02	1.61500e+03	0.0125351	597.5
1617	5.99874e+02	1.61700e+03	0.0125291	598.5
1619	6.00836e+02	1.61900e+03	0.0125216	599.5
1621	6.01803e+02	1.62100e+03	0.0124701	600.5
1623	6.02785e+02	1.62300e+03	0.0124477	601.5
1625	6.03779e+02	1.62500e+03	0.0124592	602.5
1627	6.04758e+02	1.62700e+03	0.0124675	603.5
1629	6.05742e+02	1.62900e+03	0.0124581	604.5
1631	6.06701e+02	1.63100e+03	0.0124238	605.5
1633	6.07686e+02	1.63300e+03	0.0123798	606.5
1635	6.08649e+02	1.63500e+03	0.0123709	607.5
1637	6.09618e+02	1.63700e+03	0.0123698	608.5
1639	6.10587e+02	1.63900e+03	0.0123268	609.5
1641	6.11553e+02	1.64100e+03	0.0122651	610.5
1643	6.12547e+02	1.64300e+03	0.0122276	611.5
1645	6.13518e+02	1.64500e+03	0.0122211	612.5
1647	6.14462e+02	1.64700e+03	0.012219	613.5
1649	6.15413e+02	1.64900e+03	0.0122429	614.5
1651	6.16361e+02	1.65100e+03	0.0122659	615.5
1653	6.17304e+02	1.65300e+03	0.0122789	616.5
1655	6.18264e+02	1.65500e+03	0.0122704	617.5
1657	6.19235e+02	1.65700e+03	0.0122607	618.5
1659	6.20222e+02	1.65900e+03	0.0122823	619.5
1661	6.21198e+02	1.66100e+03	0.0123444	620.5
1663	6.22186e+02	1.66300e+03	0.0123933	621.5
1665	6.23174e+02	1.66500e+03	0.0124308	622.5
1667	6.24159e+02	1.66700e+03	0.0124491	623.5
1669	6.25159e+02	1.66900e+03	0.0124474	624.5
1671	6.26140e+02	1.67100e+03	0.0124731	625.5
1673	6.27133e+02	1.67300e+03	0.0125171	626.5
1675	6.28124e+02	1.67500e+03	0.0125479	627.5
1677	6.29108e+02	1.67700e+03	0.0125621	628.5
1679	6.30103e+02	1.67900e+03	0.0125536	629.5
1681	6.31083e+02	1.68100e+03	0.0125048	630.5
1683	6.32074e+02	1.68300e+03	0.0124743	631.5
1685	6.33057e+02	1.68500e+03	0.0124682	632.5
1687	6.34047e+02	1.68700e+03	0.0124876	633.5
1689	6.35021e+02	1.68900e+03	0.0125463	634.5
1691	6.36001e+02	1.69100e+03	0.0125807	635.5
1693	6.36988e+02	1.69300e+03	0.0125938	636.5
1695	6.37973e+02	1.69500e+03	0.0125863	637.5
1697	6.38956e+02	1.69700e+03	0.0125233	638.5
1699	6.39946e+02	1.69900e+03	0.0124514	639.5
1701	6.40950e+02	1.70100e+03	0.0123511	640.5
1703	6.41941e+02	1.70300e+03	0.0122723	641.5
1705	6.42961e+02	1.70500e+03	0.0122027	642.5
1707	6.43966e+02	1.70700e+03	0.0121513	643.5
1709	6.44948e+02	1.70900e+03	0.0121559	644.5
1711	6.45942e+02	1.71100e+03	0.0121962	645.5
1713	6.46939e+02	1.71300e+03	0.0122897	646.5
1715	6.47966e+02	1.71500e+03	0.0123402	647.5
1717	6.49014e+02	1.71700e+03	0.0123516	648.5
1719	6.50096e+02	1.71900e+03	0.0123496	649.5
1721	6.51186e+02	1.72100e+03	0.0122969	650.5
1723	6.52317e+02	1.72300e+03	0.0122445	651.5
1725	6.53299e+02	1.72500e+03	0.0121958	652.5
1727	6.54273e+02	1.72700e+03	0.0121819	653.5
1729	6.55256e+02	1.72900e+03	0.0122158	654.5
1731	6.56278e+02	1.73100e+03	0.0122479	655.5
1733	6.57298e+02	1.73300e+03	0.0123011	656.5
1735	6.58320e+02	1.73500e+03	0.0123418	657.5
1737	6.59300e+02	1.73700e+03	0.0123596	658.5
1739	6.60277e+02	1.73900e+03	0.0123508	659.5
1741	6.61236e+02	1.74100e+03	0.012311	660.5
1743	6.62225e+02	1.74300e+03	0.0122997	661.5
1745	6.63181e+02	1.74500e+03	0.0123123	662.5
1747	6.64171e+02	1.74700e+03	0.012332	663.5
1749	6.65133e+02	1.74900e+03	0.0123677	664.5
1751	6.66108e+02	1.75100e+03	0.0123912	665.5
1753	6.67084e+02	1.75300e+03	0.0124057	666.5
1755	6.68053e+02	1.75500e+03	0.0124227	667.5
1757	6.69025e+02	1.75700e+03	0.0124396	668.5
1759	6.70005e+02	1.75900e+03	0.0124556	669.5
1761	6.70975e+02	1.76100e+03	0.0124679	670.5
1763	6.71959e+02	1.76300e+03	0.0124749	671.5
1765	6.72936e+02	1.76500e+03	0.0124738	672.5
1767	6.73925e+02	1.76700e+03	0.0124727	673.5
1769	6.74910e+02	1.76900e+03	0.0124716	674.5
1771	6.75885e+02	1.77100e+03	0.0124759	675.5
1773	6.76870e+02	1.77300e+03	0.0124794	676.5
1775	6.77838e+02	1.77500e+03	0.0124727	677.5
1777	6.78842e+02	1.77700e+03	0.0124453	678.5
1779	6.79821e+02	1.77900e+03	0.0124154	679.5
1781	6.80809e+02	1.78100e+03	0.0123877	680.5
1783	6.81801e+02	1.78300e+03	0.0123767	681.5
1785	6.82796e+02	1.78500e+03	0.0123806	682.5
1787	6.83768e+02	1.78700e+03	0.0123756	683.5
1789	6.84768e+02	1.78900e+03	0.0123656	684.5
1791	6.85755e+02	1.79100e+03	0.0123555	685.5
1793	6.86747e+02	1.79300e+03	0.0123311	686.5
1795	6.87417e+02	1.79500e+03	0.0123043	687.5
1797	6.87914e+02	1.79700e+03	0.012289	688.5
1799	6.88643e+02	1.79900e+03	0.0122879	689.5
1801	6.89335e+02	1.80100e+03	0.0123105	690.5
1803	6.90000e+02	1.80300e+03	0.0123151	691.5
1805	6.90606e+02	1.80500e+03	0.0123382	692.5
1807	6.91187e+02	1.80700e+03	0.0123687	693.5
1809	6.91725e+02	1.80900e+03	0.012407	694.5
1811	6.92226e+02	1.81100e+03	0.0124324	695.5
1813	6.92699e+02	1.81300e+03	0.0124345	696.5
1815	6.93150e+02	1.81500e+03	0.0124314	697.5
1817	6.93571e+02	1.81700e+03	0.0124171	698.5
1819	6.93975e+02	1.81900e+03	0.0124228	699.5
1821	6.94344e+02	1.82100e+03	0.0124376	700.0
1823	6.94698e+02	1.82300e+03	0.012428	700.0
1825	6.95032e+02	1.82500e+03	0.0123918	700.0
1827	6.95344e+02	1.82700e+03	0.0123584	700.0
1829	6.95645e+02	1.82900e+03	0.0123347	700.0
1831	6.95917e+02	1.83100e+03	0.0123391	700.0
1833	6.96178e+02	1.83300e+03	0.0123688	700.0
1835	6.96431e+02	1.83500e+03	0.0123758	700.0
1837	6.96661e+02	1.83700e+03	0.0123629	700.0
1839	6.96880e+02	1.83900e+03	0.0123537	700.0
1841	6.97091e+02	1.84100e+03	0.0123557	700.0
1843	6.97272e+02	1.84300e+03	0.01237	700.0
1845	6.97467e+02	1.84500e+03	0.012419	700.0
1847	6.97628e+02	1.84700e+03	0.0124652	700.0
1849	6.97787e+02	1.84900e+03	0.0125059	700.0
1851	6.97940e+02	1.85100e+03	0.0125324	700.0
1853	6.98081e+02	1.85300e+03	0.0125239	700.0
1855	6.98225e+02	1.85500e+03	0.0125239	700.0
1857	6.98355e+02	1.85700e+03	0.0125209	700.0
1859	6.98483e+02	1.85900e+03	0.0125214	700.0
1861	6.98617e+02	1.86100e+03	0.012508	700.0
1863	6.98719e+02	1.86300e+03	0.0124715	700.0
1865	6.98828e+02	1.86500e+03	0.0124034	700.0
1867	6.98923e+02	1.86700e+03	0.01236	700.0
1869	6.99032e+02	1.86900e+03	0.0123424	700.0
1871	6.99110e+02	1.87100e+03	0.0123437	700.0
1873	6.99201e+02	1.87300e+03	0.0123824	700.0
1875	6.99276e+02	1.87500e+03	0.01241	700.0
1877	6.99358e+02	1.87700e+03	0.0124364	700.0
1879	6.99422e+02	1.87900e+03	0.0124557	700.0
1881	6.99488e+02	1.88100e+03	0.0124631	700.0
1883	6.99538e+02	1.88300e+03	0.0124706	700.0
1885	6.99618e+02	1.88500e+03	0.012472	700.0
1887	6.99675e+02	1.88700e+03	0.0124737	700.0
1889	6.99720e+02	1.88900e+03	0.0124696	700.0
1891	6.99754e+02	1.89100e+03	0.0124618	700.0
1893	6.99816e+02	1.89300e+03	0.012444	700.0
1895	6.99848e+02	1.89500e+03	0.0124263	700.0
1897	6.99895e+02	1.89700e+03	0.0124069	700.0
1899	6.99942e+02	1.89900e+03	0.0123926	700.0
1901	6.99985e+02	1.90100e+03	0.0123856	700.0
1903	7.00015e+02	1.90300e+03	0.0123788	700.0
1905	7.00044e+02	1.90500e+03	0.0123861	700.0
1907	7.00073e+02	1.90700e+03	0.0123934	700.0
1909	7.00109e+02	1.90900e+03	0.0123942	700.0
1911	7.00143e+02	1.91100e+03	0.0123809	700.0
1913	7.00156e+02	1.91300e+03	0.0123488	700.0
1915	7.00182e+02	1.91500e+03	0.0123242	700.0
1917	7.00210e+02	1.91700e+03	0.0123067	700.0
1919	7.00235e+02	1.91900e+03	0.0122978	700.0
1921	7.00267e+02	1.92100e+03	0.0123077	700.0
1923	7.00281e+02	1.92300e+03	0.0123187	700.0
1925	7.00302e+02	1.92500e+03	0.0123405	700.0
1927	7.00313e+02	1.92700e+03	0.0123606	700.0
1929	7.00342e+02	1.92900e+03	0.0123845	700.0
1931	7.00357e+02	1.93100e+03	0.0124111	700.0
1933	7.00383e+02	1.93300e+03	0.0124538	700.0
1935	7.00399e+02	1.93500e+03	0.0124941	700.0
1937	7.00420e+02	1.93700e+03	0.0125326	700.0
1939	7.00432e+02	1.93900e+03	0.0125541	700.0
1941	7.00453e+02	1.94100e+03	0.0125438	700.0
1943	7.00462e+02	1.94300e+03	0.0125285	700.0
1945	7.00488e+02	1.94500e+03	0.0124991	700.0
1947	7.00499e+02	1.94700e+03	0.0124828	700.0
1949	7.00507e+02	1.94900e+03	0.0124685	700.0
1951	7.00522e+02	1.95100e+03	0.012451	700.0
1953	7.00543e+02	1.95300e+03	0.0124356	700.0
1955	7.00549e+02	1.95500e+03	0.0124248	700.0
1957	7.00562e+02	1.95700e+03	0.0124229	700.0
1959	7.00578e+02	1.95900e+03	0.0124302	700.0
1961	7.00582e+02	1.96100e+03	0.0124505	700.0
1963	7.00594e+02	1.96300e+03	0.0124641	700.0
1965	7.00601e+02	1.96500e+03	0.0124737	700.0
1967	7.00613e+02	1.96700e+03	0.0124731	700.0
1969	7.00619e+02	1.96900e+03	0.0124547	700.0
1971	7.00633e+02	1.97100e+03	0.0124372	700.0
1973	7.00634e+02	1.97300e+03	0.0124114	700.0
1975	7.00644e+02	1.97500e+03	0.0123867	700.0
1977	7.00641e+02	1.97700e+03	0.0123609	700.0
1979	7.00656e+02	1.97900e+03	0.0123495	700.0
1981	7.00658e+02	1.98100e+03	0.0123632	700.0
1983	7.00661e+02	1.98300e+03	0.0123817	700.0
1985	7.00672e+02	1.98500e+03	0.0124146	700.0
1987	7.00673e+02	1.98700e+03	0.0124365	700.0
1989	7.00678e+02	1.98900e+03	0.0124482	700.0
1991	7.00678e+02	1.99100e+03	0.0124511	700.0
1993	7.00696e+02	1.99300e+03	0.0124351	700.0
1995	7.00695e+02	1.99500e+03	0.0124134	700.0
1997	7.00696e+02	1.99700e+03	0.0123819	700.0
1999	7.00701e+02	1.99900e+03	0.0123642	700.0
2001	7.00708e+02	2.00100e+03	0.0123628	700.0
2003	7.00710e+02	2.00300e+03	0.0123615	700.0
2005	7.00705e+02	2.00500e+03	0.012367	700.0
2007	7.00710e+02	2.00700e+03	0.0123677	700.0
2009	7.00713e+02	2.00900e+03	0.0123617	700.0
2011	7.00712e+02	2.01100e+03	0.0123515	700.0
2013	7.00716e+02	2.01300e+03	0.0123318	700.0
2015	7.00722e+02	2.01500e+03	0.01232	700.0
2017	7.00714e+02	2.01700e+03	0.0123279	700.0
2019	7.00723e+02	2.01900e+03	0.0123506	700.0
2021	7.00721e+02	2.02100e+03	0.0124037	700.0
2023	7.00711e+02	2.02300e+03	0.0124481	700.0
2025	7.00715e+02	2.02500e+03	0.0124922	700.0
2027	7.00720e+02	2.02700e+03	0.0125263	700.0
2029	7.00724e+02	2.02900e+03	0.0125435	700.0
2031	7.00716e+02	2.03100e+03	0.0125555	700.0
2033	7.00720e+02	2.03300e+03	0.0125451	700.0
2035	7.00725e+02	2.03500e+03	0.0125287	700.0
2037	7.00724e+02	2.03700e+03	0.0124918	700.0
2039	7.00722e+02	2.03900e+03	0.0124585	700.0
2041	7.00726e+02	2.04100e+03	0.0124223	700.0
2043	7.00713e+02	2.04300e+03	0.0123908	700.0
2045	7.00728e+02	2.04500e+03	0.0123679	700.0
2047	7.00725e+02	2.04700e+03	0.0123493	700.0
2049	7.00724e+02	2.04900e+03	0.0123464	700.0
2051	7.00717e+02	2.05100e+03	0.012347	700.0
2053	7.00721e+02	2.05300e+03	0.0123575	700.0
2055	7.00724e+02	2.05500e+03	0.0123603	700.0
2057	7.00724e+02	2.05700e+03	0.0123654	700.0
2059	7.00727e+02	2.05900e+03	0.0123687	700.0
2061	7.00721e+02	2.06100e+03	0.0123613	700.0
2063	7.00723e+02	2.06300e+03	0.0123513	700.0
2065	7.00717e+02	2.06500e+03	0.0123477	700.0
2067	7.00707e+02	2.06700e+03	0.0123549	700.0
2069	7.00728e+02	2.06900e+03	0.0123919	700.0
2071	7.00718e+02	2.07100e+03	0.0124162	700.0
2073	7.00730e+02	2.07300e+03	0.0124279	700.0
2075	7.00715e+02	2.07500e+03	0.0124196	700.0
2077	7.00713e+02	2.07700e+03	0.0123737	700.0
2079	7.00706e+02	2.07900e+03	0.0123304	700.0
2081	7.00709e+02	2.08100e+03	0.0122812	700.0
2083	7.00710e+02	2.08300e+03	0.0122508	700.0
2085	7.00710e+02	2.08500e+03	0.0122669	700.0
2087	7.00706e+02	2.08700e+03	0.0122951	700.0
2089	7.00699e+02	2.08900e+03	0.0123631	700.0
2091	7.00693e+02	2.09100e+03	0.0124267	700.0
2093	7.00699e+02	2.09300e+03	0.0124839	700.0
2095	7.00707e+02	2.09500e+03	0.0125241	700.0
2097	7.00697e+02	2.09700e+03	0.0125313	700.0
2099	7.00701e+02	2.09900e+03	0.0125309	700.0
2101	7.00692e+02	2.10100e+03	0.0125077	700.0
2103	7.00687e+02	2.10300e+03	0.0124945	700.0
2105	7.00695e+02	2.10500e+03	0.0124809	700.0
2107	7.00688e+02	2.10700e+03	0.0124621	700.0
2109	7.00683e+02	2.10900e+03	0.0124306	700.0
2111	7.00691e+02	2.11100e+03	0.0123943	700.0
2113	7.00686e+02	2.11300e+03	0.0123756	700.0
2115	7.00687e+02	2.11500e+03	0.0123867	700.0
2117	7.00675e+02	2.11700e+03	0.0123789	700.0
2119	7.00676e+02	2.11900e+03	0.0123105	700.0
2121	7.00673e+02	2.12100e+03	0.0122074	700.0
2123	7.00676e+02	2.12300e+03	0.0121656	700.0
2125	7.00686e+02	2.12500e+03	0.0122002	700.0
2127	7.00675e+02	2.12700e+03	0.0122606	700.0
2129	7.00666e+02	2.12900e+03	0.0123745	700.0
2131	7.00673e+02	2.13100e+03	0.0124452	700.0
2133	7.00662e+02	2.13300e+03	0.0124772	700.0
2135	7.00665e+02	2.13500e+03	0.0124977	700.0
2137	7.00662e+02	2.13700e+03	0.0124923	700.0
2139	7.00665e+02	2.13900e+03	0.0125022	700.0
2141	7.00670e+02	2.14100e+03	0.0125198	700.0
2143	7.00660e+02	2.14300e+03	0.012539	700.0
2145	7.00653e+02	2.14500e+03	0.0125542	700.0
2147	7.00659e+02	2.14700e+03	0.0125681	700.0
2149	7.00650e+02	2.14900e+03	0.0125768	700.0
2151	7.00651e+02	2.15100e+03	0.0125838	700.0
2153	7.00648e+02	2.15300e+03	0.0125878	700.0
2155	7.00642e+02	2.15500e+03	0.0125877	700.0
2157	7.00655e+02	2.15700e+03	0.0125817	700.0
2159	7.00643e+02	2.15900e+03	0.0125787	700.0
2161	7.00638e+02	2.16100e+03	0.0125751	700.0
2163	7.00636e+02	2.16300e+03	0.0125682	700.0
2165	7.00643e+02	2.16500e+03	0.0125539	700.0
2167	7.00634e+02	2.16700e+03	0.0125376	700.0
2169	7.00622e+02	2.16900e+03	0.0125157	700.0
2171	7.00631e+02	2.17100e+03	0.012493	700.0
2173	7.00628e+02	2.17300e+03	0.0124539	700.0
2175	7.00628e+02	2.17500e+03	0.0124466	700.0
2177	7.00627e+02	2.17700e+03	0.0125093	700.0
2179	7.00614e+02	2.17900e+03	0.0125762	700.0
2181	7.00637e+02	2.18100e+03	0.0127106	700.0
2183	7.00621e+02	2.18300e+03	0.0128581	700.0
2185	7.00617e+02	2.18500e+03	0.0129473	700.0
2187	7.00624e+02	2.18700e+03	0.0129486	700.0
2189	7.00621e+02	2.18900e+03	0.0128339	700.0
2191	7.00610e+02	2.19100e+03	0.0127188	700.0
2193	7.00609e+02	2.19300e+03	0.0125327	700.0
2195	7.00603e+02	2.19500e+03	0.0123851	700.0
2197	7.00609e+02	2.19700e+03	0.0123033	700.0
2199	7.00587e+02	2.19900e+03	0.0122706	700.0
2201	7.00597e+02	2.20100e+03	0.0123147	700.0
2203	7.00581e+02	2.20300e+03	0.0123294	700.0
2205	7.00597e+02	2.20500e+03	0.0123378	700.0
2207	7.00585e+02	2.20700e+03	0.0123472	700.0
2209	7.00582e+02	2.20900e+03	0.0123825	700.0
2211	7.00582e+02	2.21100e+03	0.0124434	700.0
2213	7.00582e+02	2.21300e+03	0.0125379	700.0
2215	7.00592e+02	2.21500e+03	0.0125995	700.0
2217	7.00577e+02	2.21700e+03	0.0126146	700.0
2219	7.00580e+02	2.21900e+03	0.0126182	700.0
2221	7.00568e+02	2.22100e+03	0.0125843	700.0
2223	7.00570e+02	2.22300e+03	0.0125569	700.0
2225	7.00568e+02	2.22500e+03	0.0125171	700.0
2227	7.00567e+02	2.22700e+03	0.0124789	700.0
2229	7.00569e+02	2.22900e+03	0.012442	700.0
2231	7.00569e+02	2.23100e+03	0.0124129	700.0
2233	7.00559e+02	2.23300e+03	0.0123981	700.0
2235	7.00561e+02	2.23500e+03	0.0123848	700.0
2237	7.00564e+02	2.23700e+03	0.0123815	700.0
2239	7.00571e+02	2.23900e+03	0.0123841	700.0
2241	7.00554e+02	2.24100e+03	0.0124135	700.0
2243	7.00549e+02	2.24300e+03	0.0124605	700.0
2245	7.00552e+02	2.24500e+03	0.012542	700.0
2247	7.00549e+02	2.24700e+03	0.0126097	700.0
2249	7.00548e+02	2.24900e+03	0.012679	700.0
2251	7.00541e+02	2.25100e+03	0.0127488	700.0
2253	7.00536e+02	2.25300e+03	0.012796	700.0
2255	7.00539e+02	2.25500e+03	0.0128189	700.0
2257	7.00550e+02	2.25700e+03	0.0127899	700.0
2259	7.00532e+02	2.25900e+03	0.0127515	700.0
2261	7.00550e+02	2.26100e+03	0.0126655	700.0
2263	7.00534e+02	2.26300e+03	0.0125713	700.0
2265	7.00538e+02	2.26500e+03	0.0124453	700.0
2267	7.00534e+02	2.26700e+03	0.0123437	700.0
2269	7.00532e+02	2.26900e+03	0.0123087	700.0
2271	7.00526e+02	2.27100e+03	0.0123552	700.0
2273	7.00524e+02	2.27300e+03	0.0125666	700.0
2275	7.00515e+02	2.27500e+03	0.0127708	700.0
2277	7.00517e+02	2.27700e+03	0.013002	700.0
2279	7.00509e+02	2.27900e+03	0.0131478	700.0
2281	7.00506e+02	2.28100e+03	0.0131582	700.0
2283	7.00506e+02	2.28300e+03	0.0131493	700.0
2285	7.00503e+02	2.28500e+03	0.013048	700.0
2287	7.00483e+02	2.28700e+03	0.0129763	700.0
2289	7.00487e+02	2.28900e+03	0.0129049	700.0
2291	7.00484e+02	2.29100e+03	0.012854	700.0
2293	7.00479e+02	2.29300e+03	0.0128333	700.0
2295	7.00463e+02	2.29500e+03	0.0128129	700.0
2297	7.00471e+02	2.29700e+03	0.0128124	700.0
2299	7.00463e+02	2.29900e+03	0.0128022	700.0
2301	7.00464e+02	2.30100e+03	0.0127775	700.0
2303	7.00457e+02	2.30300e+03	0.0127483	700.0
2305	7.00451e+02	2.30500e+03	0.012716	700.0
2307	7.00435e+02	2.30700e+03	0.012705	700.0
2309	7.00449e+02	2.30900e+03	0.0128258	700.0
2311	7.00435e+02	2.31100e+03	0.0130373	700.0
2313	7.00440e+02	2.31300e+03	0.0132734	700.0
2315	7.00441e+02	2.31500e+03	0.0132705	700.0
2317	7.00436e+02	2.31700e+03	0.0129407	700.0
2319	7.00422e+02	2.31900e+03	0.0126374	700.0
2321	7.00426e+02	2.32100e+03	0.0123267	700.0
2323	7.00424e+02	2.32300e+03	0.0122468	700.0
2325	7.00422e+02	2.32500e+03	0.0124497	700.0
2327	7.00416e+02	2.32700e+03	0.0125671	700.0
2329	7.00417e+02	2.32900e+03	0.0126866	700.0
2331	7.00413e+02	2.33100e+03	0.0127532	700.0
2333	7.00404e+02	2.33300e+03	0.0127492	700.0
2335	7.00404e+02	2.33500e+03	0.0127634	700.0
2337	7.00402e+02	2.33700e+03	0.0127662	700.0
2339	7.00398e+02	2.33900e+03	0.0127709	700.0
2341	7.00399e+02	2.34100e+03	0.0127724	700.0
2343	7.00401e+02	2.34300e+03	0.012774	700.0
2345	7.00398e+02	2.34500e+03	0.0127729	700.0
2347	7.00394e+02	2.34700e+03	0.0127712	700.0
2349	7.00395e+02	2.34900e+03	0.012779	700.0
2351	7.00384e+02	2.35100e+03	0.0127982	700.0
2353	7.00392e+02	2.35300e+03	0.0128709	700.0
2355	7.00386e+02	2.35500e+03	0.0129297	700.0
2357	7.00385e+02	2.35700e+03	0.0129359	700.0
2359	7.00376e+02	2.35900e+03	0.0128804	700.0
2361	7.00384e+02	2.36100e+03	0.0127495	700.0
2363	7.00374e+02	2.36300e+03	0.0126857	700.0
2365	7.00372e+02	2.36500e+03	0.0126697	700.0
2367	7.00371e+02	2.36700e+03	0.0126681	700.0
2369	7.00366e+02	2.36900e+03	0.0126988	700.0
2371	7.00360e+02	2.37100e+03	0.0127174	700.0
2373	7.00365e+02	2.37300e+03	0.0127293	700.0
2375	7.00367e+02	2.37500e+03	0.0127216	700.0
2377	7.00368e+02	2.37700e+03	0.0126901	700.0
2379	7.00354e+02	2.37900e+03	0.0126613	700.0
2381	7.00353e+02	2.38100e+03	0.0126366	700.0
2383	7.00345e+02	2.38300e+03	0.0126227	700.0
2385	7.00355e+02	2.38500e+03	0.0126307	700.0
2387	7.00349e+02	2.38700e+03	0.0126254	700.0
2389	7.00350e+02	2.38900e+03	0.0126055	700.0
2391	7.00357e+02	2.39100e+03	0.0126268	700.0
2393	7.00348e+02	2.39300e+03	0.0126897	700.0
2395	7.00353e+02	2.39500e+03	0.0127956	700.0
2397	7.00344e+02	2.39700e+03	0.0129403	700.0
2399	7.00350e+02	2.39900e+03	0.0129811	700.0
2401	7.00336e+02	2.40100e+03	0.0129102	700.0
2403	7.00346e+02	2.40300e+03	0.0128459	700.0
2405	7.00346e+02	2.40500e+03	0.0127635	700.0
2407	7.00338e+02	2.40700e+03	0.012752	700.0
2409	7.00337e+02	2.40900e+03	0.0128125	700.0
2411	7.00331e+02	2.41100e+03	0.0128388	700.0
2413	7.00321e+02	2.41300e+03	0.0128332	700.0
2415	7.00326e+02	2.41500e+03	0.0128114	700.0
2417	7.00335e+02	2.41700e+03	0.0127603	700.0
2419	7.00328e+02	2.41900e+03	0.0127199	700.0
2421	7.00322e+02	2.42100e+03	0.0126509	700.0
2423	7.00319e+02	2.42300e+03	0.0125404	700.0
2425	7.00328e+02	2.42500e+03	0.0123901	700.0
2427	7.00312e+02	2.42700e+03	0.0122824	700.0
2429	7.00307e+02	2.42900e+03	0.0122289	700.0
2431	7.00308e+02	2.43100e+03	0.0122174	700.0
2433	7.00304e+02	2.43300e+03	0.0122882	700.0
2435	7.00305e+02	2.43500e+03	0.0123432	700.0
2437	7.00306e+02	2.43700e+03	0.012403	700.0
2439	7.00299e+02	2.43900e+03	0.0124529	700.0
2441	7.00307e+02	2.44100e+03	0.0125173	700.0
2443	7.00308e+02	2.44300e+03	0.0125814	700.0
2445	7.00298e+02	2.44500e+03	0.0126421	700.0
2447	7.00296e+02	2.44700e+03	0.0126671	700.0
2449	7.00295e+02	2.44900e+03	0.0126595	700.0
2451	7.00292e+02	2.45100e+03	0.0126947	700.0
2453	7.00292e+02	2.45300e+03	0.0127157	700.0
2455	7.00292e+02	2.45500e+03	0.0126534	700.0
2457	7.00304e+02	2.45700e+03	0.0125074	700.0
2459	7.00302e+02	2.45900e+03	0.0124032	700.0
2461	7.00303e+02	2.46100e+03	0.0123818	700.0
2463	7.00295e+02	2.46300e+03	0.0125061	700.0
2465	7.00273e+02	2.46500e+03	0.0128054	700.0
2467	7.00299e+02	2.46700e+03	0.0129084	700.0
2469	7.00287e+02	2.46900e+03	0.0127823	700.0
2471	7.00281e+02	2.47100e+03	0.0125775	700.0
2473	7.00279e+02	2.47300e+03	0.0122409	700.0
2475	7.00281e+02	2.47500e+03	0.0120904	700.0
2477	7.00271e+02	2.47700e+03	0.0121286	700.0
2479	7.00285e+02	2.47900e+03	0.0121598	700.0
2481	7.00274e+02	2.48100e+03	0.0122698	700.0
2483	7.00277e+02	2.48300e+03	0.0123479	700.0
2485	7.00273e+02	2.48500e+03	0.0124109	700.0
2487	7.00274e+02	2.48700e+03	0.0124539	700.0
2489	7.00275e+02	2.48900e+03	0.0124615	700.0
2491	7.00271e+02	2.49100e+03	0.0124796	700.0
2493	7.00274e+02	2.49300e+03	0.0125023	700.0
2495	7.00270e+02	2.49500e+03	0.0125254	700.0
2497	7.00275e+02	2.49700e+03	0.0125465	700.0
2499	7.00271e+02	2.49900e+03	0.0125527	700.0
2501	7.00262e+02	2.50100e+03	0.012553	700.0
2503	7.00264e+02	2.50300e+03	0.0125691	700.0
2505	7.00267e+02	2.50500e+03	0.0125968	700.0
2507	7.00263e+02	2.50700e+03	0.0126129	700.0
2509	7.00258e+02	2.50900e+03	0.0126111	700.0
2511	7.00258e+02	2.51100e+03	0.0126005	700.0
2513	7.00256e+02	2.51300e+03	0.0125737	700.0
2515	7.00256e+02	2.51500e+03	0.0125583	700.0
2517	7.00255e+02	2.51700e+03	0.012555	700.0
2519	7.00266e+02	2.51900e+03	0.0125614	700.0
2521	7.00264e+02	2.52100e+03	0.0126025	700.0
2523	7.00265e+02	2.52300e+03	0.0126395	700.0
2525	7.00248e+02	2.52500e+03	0.012662	700.0
2527	7.00256e+02	2.52700e+03	0.0126589	700.0
2529	7.00256e+02	2.52900e+03	0.0126172	700.0
2531	7.00252e+02	2.53100e+03	0.0125825	700.0
2533	7.00260e+02	2.53300e+03	0.0125167	700.0
2535	7.00251e+02	2.53500e+03	0.0124451	700.0
2537	7.00263e+02	2.53700e+03	0.0123744	700.0
2539	7.00254e+02	2.53900e+03	0.0123559	700.0
2541	7.00265e+02	2.54100e+03	0.0124454	700.0
2543	7.00272e+02	2.54300e+03	0.0125381	700.0
2545	7.00254e+02	2.54500e+03	0.0126509	700.0
2547	7.00255e+02	2.54700e+03	0.0126953	700.0
2549	7.00255e+02	2.54900e+03	0.0126254	700.0
2551	7.00258e+02	2.55100e+03	0.012557	700.0
2553	7.00252e+02	2.55300e+03	0.0124498	700.0
2555	7.00242e+02	2.55500e+03	0.0123965	700.0
2557	7.00247e+02	2.55700e+03	0.0124337	700.0
2559	7.00260e+02	2.55900e+03	0.0124934	700.0
2561	7.00247e+02	2.56100e+03	0.0126073	700.0
2563	7.00257e+02	2.56300e+03	0.0126762	700.0
2565	7.00251e+02	2.56500e+03	0.0126937	700.0
2567	7.00246e+02	2.56700e+03	0.012695	700.0
2569	7.00250e+02	2.56900e+03	0.0126475	700.0
2571	7.00251e+02	2.57100e+03	0.0126086	700.0
2573	7.00256e+02	2.57300e+03	0.0125672	700.0
2575	7.00246e+02	2.57500e+03	0.0125455	700.0
2577	7.00248e+02	2.57700e+03	0.0125364	700.0
2579	7.00244e+02	2.57900e+03	0.0125217	700.0
2581	7.00250e+02	2.58100e+03	0.012509	700.0
2583	7.00244e+02	2.58300e+03	0.0124971	700.0
2585	7.00253e+02	2.58500e+03	0.0124922	700.0
2587	7.00249e+02	2.58700e+03	0.0124933	700.0
2589	7.00253e+02	2.58900e+03	0.0125079	700.0
2591	7.00247e+02	2.59100e+03	0.0125198	700.0
2593	7.00229e+02	2.59300e+03	0.0125288	700.0
2595	7.00248e+02	2.59500e+03	0.0125293	700.0
2597	7.00245e+02	2.59700e+03	0.0125159	700.0
2599	7.00240e+02	2.59900e+03	0.0125031	700.0
2601	7.00242e+02	2.60100e+03	0.0124833	700.0
2603	7.00238e+02	2.60300e+03	0.0124657	700.0
2605	7.00244e+02	2.60500e+03	0.0124509	700.0
2607	7.00234e+02	2.60700e+03	0.0124418	700.0
2609	7.00232e+02	2.60900e+03	0.0124482	700.0
2611	7.00234e+02	2.61100e+03	0.0124664	700.0
2613	7.00230e+02	2.61300e+03	0.0125202	700.0
2615	7.00234e+02	2.61500e+03	0.0125675	700.0
2617	7.00245e+02	2.61700e+03	0.0125948	700.0
2619	7.00234e+02	2.61900e+03	0.0125789	700.0
2621	7.00237e+02	2.62100e+03	0.0124992	700.0
2623	7.00233e+02	2.62300e+03	0.0124322	700.0
2625	7.00235e+02	2.62500e+03	0.0123585	700.0
2627	7.00238e+02	2.62700e+03	0.012303	700.0
2629	7.00236e+02	2.62900e+03	0.0122807	700.0
2631	7.00225e+02	2.63100e+03	0.0122743	700.0
2633	7.00235e+02	2.63300e+03	0.012327	700.0
2635	7.00242e+02	2.63500e+03	0.0123822	700.0
2637	7.00236e+02	2.63700e+03	0.0124592	700.0
2639	7.00236e+02	2.63900e+03	0.0125078	700.0
2641	7.00238e+02	2.64100e+03	0.0125176	700.0
2643	7.00230e+02	2.64300e+03	0.0125184	700.0
2645	7.00242e+02	2.64500e+03	0.0124851	700.0
2647	7.00233e+02	2.64700e+03	0.012457	700.0
2649	7.00232e+02	2.64900e+03	0.0124248	700.0
2651	7.00231e+02	2.65100e+03	0.0124017	700.0
2653	7.00228e+02	2.65300e+03	0.0123923	700.0
2655	7.00235e+02	2.65500e+03	0.012387	700.0
2657	7.00233e+02	2.65700e+03	0.0123969	700.0
2659	7.00231e+02	2.65900e+03	0.0124085	700.0
2661	7.00224e+02	2.66100e+03	0.0124288	700.0
2663	7.00228e+02	2.66300e+03	0.0124447	700.0
2665	7.00229e+02	2.66500e+03	0.012464	700.0
2667	7.00233e+02	2.66700e+03	0.012494	700.0
2669	7.00231e+02	2.66900e+03	0.0125247	700.0
2671	7.00237e+02	2.67100e+03	0.0125483	700.0
2673	7.00220e+02	2.67300e+03	0.0125597	700.0
2675	7.00238e+02	2.67500e+03	0.0125642	700.0
2677	7.00242e+02	2.67700e+03	0.0125534	700.0
2679	7.00235e+02	2.67900e+03	0.0125408	700.0
2681	7.00234e+02	2.68100e+03	0.0125117	700.0
2683	7.00236e+02	2.68300e+03	0.0124864	700.0
2685	7.00233e+02	2.68500e+03	0.0124564	700.0
2687	7.00230e+02	2.68700e+03	0.0124351	700.0
2689	7.00232e+02	2.68900e+03	0.0124262	700.0
2691	7.00229e+02	2.69100e+03	0.0124165	700.0
2693	7.00233e+02	2.69300e+03	0.0124081	700.0
2695	7.00232e+02	2.69500e+03	0.0123941	700.0
2697	7.00238e+02	2.69700e+03	0.0123766	700.0
2699	7.00232e+02	2.69900e+03	0.0123673	700.0
2701	7.00227e+02	2.70100e+03	0.012375	700.0
2703	7.00237e+02	2.70300e+03	0.0123875	700.0
2705	7.00231e+02	2.70500e+03	0.0124061	700.0
2707	7.00233e+02	2.70700e+03	0.012409	700.0
2709	7.00229e+02	2.70900e+03	0.0123908	700.0
2711	7.00237e+02	2.71100e+03	0.0123632	700.0
2713	7.00227e+02	2.71300e+03	0.0123192	700.0
2715	7.00229e+02	2.71500e+03	0.0122789	700.0
2717	7.00232e+02	2.71700e+03	0.0122488	700.0
2719	7.00223e+02	2.71900e+03	0.0122288	700.0
2720	7.00234e+02	2.72000e+03	0.0122238	700.0