File: Experiments/TUBS/tga_nonisotherm/tga_dynamic_n2_dyn5_piece_3mg_r1.txt
index	ts	t	weight	tr
[#]	[°C]	[s]	[mg]	[°C]
1083	1.30984e+02	1.08300e+03	2.95806e+00	1.30250e+02
1091	1.31665e+02	1.09100e+03	2.95797e+00	1.30917e+02
1099	1.32328e+02	1.09900e+03	2.95792e+00	1.31583e+02
1107	1.33007e+02	1.10700e+03	2.95781e+00	1.32250e+02
1115	1.33678e+02	1.11500e+03	2.95769e+00	1.32917e+02
1123	1.34354e+02	1.12300e+03	2.95752e+00	1.33583e+02
1131	1.35020e+02	1.13100e+03	2.95743e+00	1.34250e+02
1139	1.35699e+02	1.13900e+03	2.95741e+00	1.34917e+02
1147	1.36379e+02	1.14700e+03	2.95736e+00	1.35583e+02
1155	1.37054e+02	1.15500e+03	2.95739e+00	1.36250e+02
1163	1.37729e+02	1.16300e+03	2.95709e+00	1.36917e+02
1171	1.38389e+02	1.17100e+03	2.95683e+00	1.37583e+02
1179	1.39086e+02	1.17900e+03	2.95698e+00	1.38250e+02
1187	1.39740e+02	1.18700e+03	2.95694e+00	1.38917e+02
1195	1.40430e+02	1.19500e+03	2.95678e+00	1.39583e+02
1203	1.41095e+02	1.20300e+03	2.95677e+00	1.40250e+02
1211	1.41756e+02	1.21100e+03	2.95666e+00	1.40917e+02
1219	1.42445e+02	1.21900e+03	2.95656e+00	1.41583e+02
1227	1.43117e+02	1.22700e+03	2.95639e+00	1.42250e+02
1235	1.43789e+02	1.23500e+03	2.95623e+00	1.42917e+02
1243	1.44467e+02	1.24300e+03	2.95633e+00	1.43583e+02
1251	1.45142e+02	1.25100e+03	2.95614e+00	1.44250e+02
1259	1.45812e+02	1.25900e+03	2.95604e+00	1.44917e+02
1267	1.46492e+02	1.26700e+03	2.95605e+00	1.45583e+02
1275	1.47162e+02	1.27500e+03	2.95580e+00	1.46250e+02
1283	1.47826e+02	1.28300e+03	2.95575e+00	1.46917e+02
1291	1.48514e+02	1.29100e+03	2.95556e+00	1.47583e+02
1299	1.49179e+02	1.29900e+03	2.95544e+00	1.48250e+02
1307	1.49857e+02	1.30700e+03	2.95543e+00	1.48917e+02
1315	1.50541e+02	1.31500e+03	2.95536e+00	1.49583e+02
1323	1.51202e+02	1.32300e+03	2.95523e+00	1.50250e+02
1331	1.51879e+02	1.33100e+03	2.95508e+00	1.50917e+02
1339	1.52562e+02	1.33900e+03	2.95498e+00	1.51583e+02
1347	1.53224e+02	1.34700e+03	2.95495e+00	1.52250e+02
1355	1.53903e+02	1.35500e+03	2.95499e+00	1.52917e+02
1363	1.54579e+02	1.36300e+03	2.95490e+00	1.53583e+02
1371	1.55254e+02	1.37100e+03	2.95487e+00	1.54250e+02
1379	1.55913e+02	1.37900e+03	2.95487e+00	1.54917e+02
1387	1.56583e+02	1.38700e+03	2.95470e+00	1.55583e+02
1395	1.57274e+02	1.39500e+03	2.95458e+00	1.56250e+02
1403	1.57939e+02	1.40300e+03	2.95459e+00	1.56917e+02
1411	1.58614e+02	1.41100e+03	2.95458e+00	1.57583e+02
1419	1.59292e+02	1.41900e+03	2.95433e+00	1.58250e+02
1427	1.59968e+02	1.42700e+03	2.95423e+00	1.58917e+02
1435	1.60624e+02	1.43500e+03	2.95408e+00	1.59583e+02
1443	1.61315e+02	1.44300e+03	2.95401e+00	1.60250e+02
1451	1.61976e+02	1.45100e+03	2.95387e+00	1.60917e+02
1459	1.62654e+02	1.45900e+03	2.95376e+00	1.61583e+02
1467	1.63330e+02	1.46700e+03	2.95351e+00	1.62250e+02
1475	1.64001e+02	1.47500e+03	2.95348e+00	1.62917e+02
1483	1.64685e+02	1.48300e+03	2.95338e+00	1.63583e+02
1491	1.65343e+02	1.49100e+03	2.95313e+00	1.64250e+02
1499	1.66027e+02	1.49900e+03	2.95294e+00	1.64917e+02
1507	1.66671e+02	1.50700e+03	2.95271e+00	1.65583e+02
1515	1.67362e+02	1.51500e+03	2.95266e+00	1.66250e+02
1523	1.68035e+02	1.52300e+03	2.95241e+00	1.66917e+02
1531	1.68716e+02	1.53100e+03	2.95218e+00	1.67583e+02
1539	1.69386e+02	1.53900e+03	2.95193e+00	1.68250e+02
1547	1.70068e+02	1.54700e+03	2.95161e+00	1.68917e+02
1555	1.70728e+02	1.55500e+03	2.95130e+00	1.69583e+02
1563	1.71391e+02	1.56300e+03	2.95097e+00	1.70250e+02
1571	1.72072e+02	1.57100e+03	2.95075e+00	1.70917e+02
1579	1.72748e+02	1.57900e+03	2.95038e+00	1.71583e+02
1587	1.73431e+02	1.58700e+03	2.94994e+00	1.72250e+02
1595	1.74088e+02	1.59500e+03	2.94953e+00	1.72917e+02
1603	1.74765e+02	1.60300e+03	2.94919e+00	1.73583e+02
1611	1.75436e+02	1.61100e+03	2.94882e+00	1.74250e+02
1619	1.76106e+02	1.61900e+03	2.94823e+00	1.74917e+02
1627	1.76788e+02	1.62700e+03	2.94776e+00	1.75583e+02
1635	1.77455e+02	1.63500e+03	2.94731e+00	1.76250e+02
1643	1.78116e+02	1.64300e+03	2.94680e+00	1.76917e+02
1651	1.78793e+02	1.65100e+03	2.94633e+00	1.77583e+02
1659	1.79472e+02	1.65900e+03	2.94591e+00	1.78250e+02
1667	1.80130e+02	1.66700e+03	2.94539e+00	1.78917e+02
1675	1.80816e+02	1.67500e+03	2.94477e+00	1.79583e+02
1683	1.81477e+02	1.68300e+03	2.94415e+00	1.80250e+02
1691	1.82164e+02	1.69100e+03	2.94362e+00	1.80917e+02
1699	1.82816e+02	1.69900e+03	2.94302e+00	1.81583e+02
1707	1.83484e+02	1.70700e+03	2.94237e+00	1.82250e+02
1715	1.84157e+02	1.71500e+03	2.94178e+00	1.82917e+02
1723	1.84824e+02	1.72300e+03	2.94121e+00	1.83583e+02
1731	1.85483e+02	1.73100e+03	2.94066e+00	1.84250e+02
1739	1.86156e+02	1.73900e+03	2.93986e+00	1.84917e+02
1747	1.86828e+02	1.74700e+03	2.93909e+00	1.85583e+02
1755	1.87497e+02	1.75500e+03	2.93849e+00	1.86250e+02
1763	1.88153e+02	1.76300e+03	2.93781e+00	1.86917e+02
1771	1.88824e+02	1.77100e+03	2.93711e+00	1.87583e+02
1779	1.89493e+02	1.77900e+03	2.93640e+00	1.88250e+02
1787	1.90160e+02	1.78700e+03	2.93570e+00	1.88917e+02
1795	1.90838e+02	1.79500e+03	2.93494e+00	1.89583e+02
1803	1.91503e+02	1.80300e+03	2.93442e+00	1.90250e+02
1811	1.92183e+02	1.81100e+03	2.93362e+00	1.90917e+02
1819	1.92833e+02	1.81900e+03	2.93294e+00	1.91583e+02
1827	1.93504e+02	1.82700e+03	2.93222e+00	1.92250e+02
1835	1.94182e+02	1.83500e+03	2.93159e+00	1.92917e+02
1843	1.94851e+02	1.84300e+03	2.93085e+00	1.93583e+02
1851	1.95521e+02	1.85100e+03	2.93018e+00	1.94250e+02
1859	1.96177e+02	1.85900e+03	2.92956e+00	1.94917e+02
1867	1.96847e+02	1.86700e+03	2.92887e+00	1.95583e+02
1875	1.97530e+02	1.87500e+03	2.92806e+00	1.96250e+02
1883	1.98196e+02	1.88300e+03	2.92733e+00	1.96917e+02
1891	1.98870e+02	1.89100e+03	2.92652e+00	1.97583e+02
1899	1.99542e+02	1.89900e+03	2.92571e+00	1.98250e+02
1907	2.00207e+02	1.90700e+03	2.92508e+00	1.98917e+02
1915	2.00868e+02	1.91500e+03	2.92443e+00	1.99583e+02
1923	2.01534e+02	1.92300e+03	2.92372e+00	2.00250e+02
1931	2.02211e+02	1.93100e+03	2.92280e+00	2.00917e+02
1939	2.02886e+02	1.93900e+03	2.92209e+00	2.01583e+02
1947	2.03556e+02	1.94700e+03	2.92128e+00	2.02250e+02
1955	2.04228e+02	1.95500e+03	2.92062e+00	2.02917e+02
1963	2.04898e+02	1.96300e+03	2.91985e+00	2.03583e+02
1971	2.05575e+02	1.97100e+03	2.91915e+00	2.04250e+02
1979	2.06226e+02	1.97900e+03	2.91835e+00	2.04917e+02
1987	2.06895e+02	1.98700e+03	2.91750e+00	2.05583e+02
1995	2.07577e+02	1.99500e+03	2.91664e+00	2.06250e+02
2003	2.08241e+02	2.00300e+03	2.91594e+00	2.06917e+02
2011	2.08910e+02	2.01100e+03	2.91518e+00	2.07583e+02
2019	2.09573e+02	2.01900e+03	2.91440e+00	2.08250e+02
2027	2.10252e+02	2.02700e+03	2.91359e+00	2.08917e+02
2035	2.10917e+02	2.03500e+03	2.91276e+00	2.09583e+02
2043	2.11595e+02	2.04300e+03	2.91201e+00	2.10250e+02
2051	2.12268e+02	2.05100e+03	2.91126e+00	2.10917e+02
2059	2.12913e+02	2.05900e+03	2.91043e+00	2.11583e+02
2067	2.13595e+02	2.06700e+03	2.90968e+00	2.12250e+02
2075	2.14259e+02	2.07500e+03	2.90884e+00	2.12917e+02
2083	2.14935e+02	2.08300e+03	2.90802e+00	2.13583e+02
2091	2.15597e+02	2.09100e+03	2.90716e+00	2.14250e+02
2099	2.16270e+02	2.09900e+03	2.90636e+00	2.14917e+02
2107	2.16934e+02	2.10700e+03	2.90560e+00	2.15583e+02
2115	2.17607e+02	2.11500e+03	2.90479e+00	2.16250e+02
2123	2.18288e+02	2.12300e+03	2.90394e+00	2.16917e+02
2131	2.18937e+02	2.13100e+03	2.90301e+00	2.17583e+02
2139	2.19624e+02	2.13900e+03	2.90205e+00	2.18250e+02
2147	2.20295e+02	2.14700e+03	2.90128e+00	2.18917e+02
2155	2.20968e+02	2.15500e+03	2.90056e+00	2.19583e+02
2163	2.21647e+02	2.16300e+03	2.89962e+00	2.20250e+02
2171	2.22307e+02	2.17100e+03	2.89871e+00	2.20917e+02
2179	2.22987e+02	2.17900e+03	2.89788e+00	2.21583e+02
2187	2.23652e+02	2.18700e+03	2.89708e+00	2.22250e+02
2195	2.24318e+02	2.19500e+03	2.89615e+00	2.22917e+02
2203	2.24992e+02	2.20300e+03	2.89536e+00	2.23583e+02
2211	2.25662e+02	2.21100e+03	2.89441e+00	2.24250e+02
2219	2.26338e+02	2.21900e+03	2.89365e+00	2.24917e+02
2227	2.26998e+02	2.22700e+03	2.89279e+00	2.25583e+02
2235	2.27668e+02	2.23500e+03	2.89181e+00	2.26250e+02
2243	2.28326e+02	2.24300e+03	2.89085e+00	2.26917e+02
2251	2.29000e+02	2.25100e+03	2.88984e+00	2.27583e+02
2259	2.29664e+02	2.25900e+03	2.88897e+00	2.28250e+02
2267	2.30336e+02	2.26700e+03	2.88820e+00	2.28917e+02
2275	2.30993e+02	2.27500e+03	2.88722e+00	2.29583e+02
2283	2.31660e+02	2.28300e+03	2.88638e+00	2.30250e+02
2291	2.32311e+02	2.29100e+03	2.88550e+00	2.30917e+02
2299	2.32982e+02	2.29900e+03	2.88458e+00	2.31583e+02
2307	2.33655e+02	2.30700e+03	2.88359e+00	2.32250e+02
2315	2.34311e+02	2.31500e+03	2.88273e+00	2.32917e+02
2323	2.34976e+02	2.32300e+03	2.88196e+00	2.33583e+02
2331	2.35640e+02	2.33100e+03	2.88102e+00	2.34250e+02
2339	2.36309e+02	2.33900e+03	2.87998e+00	2.34917e+02
2347	2.36970e+02	2.34700e+03	2.87902e+00	2.35583e+02
2355	2.37642e+02	2.35500e+03	2.87814e+00	2.36250e+02
2363	2.38308e+02	2.36300e+03	2.87727e+00	2.36917e+02
2371	2.38973e+02	2.37100e+03	2.87647e+00	2.37583e+02
2379	2.39641e+02	2.37900e+03	2.87551e+00	2.38250e+02
2387	2.40306e+02	2.38700e+03	2.87441e+00	2.38917e+02
2395	2.40965e+02	2.39500e+03	2.87362e+00	2.39583e+02
2403	2.41640e+02	2.40300e+03	2.87261e+00	2.40250e+02
2411	2.42309e+02	2.41100e+03	2.87177e+00	2.40917e+02
2419	2.42959e+02	2.41900e+03	2.87080e+00	2.41583e+02
2427	2.43625e+02	2.42700e+03	2.86980e+00	2.42250e+02
2435	2.44292e+02	2.43500e+03	2.86872e+00	2.42917e+02
2443	2.44960e+02	2.44300e+03	2.86784e+00	2.43583e+02
2451	2.45604e+02	2.45100e+03	2.86703e+00	2.44250e+02
2459	2.46276e+02	2.45900e+03	2.86613e+00	2.44917e+02
2467	2.46938e+02	2.46700e+03	2.86520e+00	2.45583e+02
2475	2.47595e+02	2.47500e+03	2.86425e+00	2.46250e+02
2483	2.48257e+02	2.48300e+03	2.86315e+00	2.46917e+02
2491	2.48924e+02	2.49100e+03	2.86223e+00	2.47583e+02
2499	2.49589e+02	2.49900e+03	2.86142e+00	2.48250e+02
2507	2.50246e+02	2.50700e+03	2.86052e+00	2.48917e+02
2515	2.50916e+02	2.51500e+03	2.85952e+00	2.49583e+02
2523	2.51593e+02	2.52300e+03	2.85861e+00	2.50250e+02
2531	2.52241e+02	2.53100e+03	2.85771e+00	2.50917e+02
2539	2.52893e+02	2.53900e+03	2.85659e+00	2.51583e+02
2547	2.53558e+02	2.54700e+03	2.85582e+00	2.52250e+02
2555	2.54227e+02	2.55500e+03	2.85470e+00	2.52917e+02
2563	2.54888e+02	2.56300e+03	2.85373e+00	2.53583e+02
2571	2.55550e+02	2.57100e+03	2.85276e+00	2.54250e+02
2579	2.56203e+02	2.57900e+03	2.85166e+00	2.54917e+02
2587	2.56862e+02	2.58700e+03	2.85072e+00	2.55583e+02
2595	2.57513e+02	2.59500e+03	2.84977e+00	2.56250e+02
2603	2.58172e+02	2.60300e+03	2.84868e+00	2.56917e+02
2611	2.58840e+02	2.61100e+03	2.84760e+00	2.57583e+02
2619	2.59488e+02	2.61900e+03	2.84659e+00	2.58250e+02
2627	2.60147e+02	2.62700e+03	2.84571e+00	2.58917e+02
2635	2.60811e+02	2.63500e+03	2.84476e+00	2.59583e+02
2643	2.61460e+02	2.64300e+03	2.84361e+00	2.60250e+02
2651	2.62135e+02	2.65100e+03	2.84251e+00	2.60917e+02
2659	2.62788e+02	2.65900e+03	2.84151e+00	2.61583e+02
2667	2.63452e+02	2.66700e+03	2.84045e+00	2.62250e+02
2675	2.64123e+02	2.67500e+03	2.83934e+00	2.62917e+02
2683	2.64784e+02	2.68300e+03	2.83811e+00	2.63583e+02
2691	2.65454e+02	2.69100e+03	2.83694e+00	2.64250e+02
2699	2.66117e+02	2.69900e+03	2.83587e+00	2.64917e+02
2707	2.66789e+02	2.70700e+03	2.83481e+00	2.65583e+02
2715	2.67468e+02	2.71500e+03	2.83368e+00	2.66250e+02
2723	2.68111e+02	2.72300e+03	2.83245e+00	2.66917e+02
2731	2.68786e+02	2.73100e+03	2.83103e+00	2.67583e+02
2739	2.69452e+02	2.73900e+03	2.82980e+00	2.68250e+02
2747	2.70116e+02	2.74700e+03	2.82861e+00	2.68917e+02
2755	2.70787e+02	2.75500e+03	2.82743e+00	2.69583e+02
2763	2.71457e+02	2.76300e+03	2.82603e+00	2.70250e+02
2771	2.72145e+02	2.77100e+03	2.82449e+00	2.70917e+02
2779	2.72820e+02	2.77900e+03	2.82316e+00	2.71583e+02
2787	2.73520e+02	2.78700e+03	2.82174e+00	2.72250e+02
2795	2.74187e+02	2.79500e+03	2.82041e+00	2.72917e+02
2803	2.74857e+02	2.80300e+03	2.81889e+00	2.73583e+02
2811	2.75500e+02	2.81100e+03	2.81738e+00	2.74250e+02
2819	2.76162e+02	2.81900e+03	2.81577e+00	2.74917e+02
2827	2.76845e+02	2.82700e+03	2.81422e+00	2.75583e+02
2835	2.77529e+02	2.83500e+03	2.81255e+00	2.76250e+02
2843	2.78205e+02	2.84300e+03	2.81086e+00	2.76917e+02
2851	2.78883e+02	2.85100e+03	2.80913e+00	2.77583e+02
2859	2.79544e+02	2.85900e+03	2.80705e+00	2.78250e+02
2867	2.80218e+02	2.86700e+03	2.80508e+00	2.78917e+02
2875	2.80893e+02	2.87500e+03	2.80247e+00	2.79583e+02
2883	2.81556e+02	2.88300e+03	2.79980e+00	2.80250e+02
2891	2.82220e+02	2.89100e+03	2.79744e+00	2.80917e+02
2899	2.82909e+02	2.89900e+03	2.79512e+00	2.81583e+02
2907	2.83570e+02	2.90700e+03	2.79299e+00	2.82250e+02
2915	2.84270e+02	2.91500e+03	2.79078e+00	2.82917e+02
2923	2.84926e+02	2.92300e+03	2.78855e+00	2.83583e+02
2931	2.85611e+02	2.93100e+03	2.78626e+00	2.84250e+02
2939	2.86347e+02	2.93900e+03	2.78392e+00	2.84917e+02
2947	2.87033e+02	2.94700e+03	2.78142e+00	2.85583e+02
2955	2.87706e+02	2.95500e+03	2.77910e+00	2.86250e+02
2963	2.88390e+02	2.96300e+03	2.77667e+00	2.86917e+02
2971	2.89085e+02	2.97100e+03	2.77408e+00	2.87583e+02
2979	2.89763e+02	2.97900e+03	2.77151e+00	2.88250e+02
2987	2.90412e+02	2.98700e+03	2.76902e+00	2.88917e+02
2995	2.91070e+02	2.99500e+03	2.76637e+00	2.89583e+02
3003	2.91737e+02	3.00300e+03	2.76371e+00	2.90250e+02
3011	2.92394e+02	3.01100e+03	2.76080e+00	2.90917e+02
3019	2.93065e+02	3.01900e+03	2.75802e+00	2.91583e+02
3027	2.93732e+02	3.02700e+03	2.75521e+00	2.92250e+02
3035	2.94402e+02	3.03500e+03	2.75269e+00	2.92917e+02
3043	2.95060e+02	3.04300e+03	2.74984e+00	2.93583e+02
3051	2.95717e+02	3.05100e+03	2.74701e+00	2.94250e+02
3059	2.96386e+02	3.05900e+03	2.74414e+00	2.94917e+02
3067	2.97058e+02	3.06700e+03	2.74152e+00	2.95583e+02
3075	2.97718e+02	3.07500e+03	2.73859e+00	2.96250e+02
3083	2.98404e+02	3.08300e+03	2.73574e+00	2.96917e+02
3091	2.99081e+02	3.09100e+03	2.73290e+00	2.97583e+02
3099	2.99750e+02	3.09900e+03	2.72998e+00	2.98250e+02
3107	3.00415e+02	3.10700e+03	2.72702e+00	2.98917e+02
3115	3.01097e+02	3.11500e+03	2.72431e+00	2.99583e+02
3123	3.01764e+02	3.12300e+03	2.72131e+00	3.00250e+02
3131	3.02429e+02	3.13100e+03	2.71827e+00	3.00917e+02
3139	3.03088e+02	3.13900e+03	2.71545e+00	3.01583e+02
3147	3.03763e+02	3.14700e+03	2.71266e+00	3.02250e+02
3155	3.04442e+02	3.15500e+03	2.70970e+00	3.02917e+02
3163	3.05111e+02	3.16300e+03	2.70676e+00	3.03583e+02
3171	3.05793e+02	3.17100e+03	2.70377e+00	3.04250e+02
3179	3.06495e+02	3.17900e+03	2.70068e+00	3.04917e+02
3187	3.07169e+02	3.18700e+03	2.69764e+00	3.05583e+02
3195	3.07845e+02	3.19500e+03	2.69443e+00	3.06250e+02
3203	3.08537e+02	3.20300e+03	2.69126e+00	3.06917e+02
3211	3.09215e+02	3.21100e+03	2.68812e+00	3.07583e+02
3219	3.09907e+02	3.21900e+03	2.68487e+00	3.08250e+02
3227	3.10596e+02	3.22700e+03	2.68148e+00	3.08917e+02
3235	3.11271e+02	3.23500e+03	2.67804e+00	3.09583e+02
3243	3.11951e+02	3.24300e+03	2.67456e+00	3.10250e+02
3251	3.12622e+02	3.25100e+03	2.67102e+00	3.10917e+02
3259	3.13315e+02	3.25900e+03	2.66735e+00	3.11583e+02
3267	3.13980e+02	3.26700e+03	2.66359e+00	3.12250e+02
3275	3.14661e+02	3.27500e+03	2.65976e+00	3.12917e+02
3283	3.15307e+02	3.28300e+03	2.65570e+00	3.13583e+02
3291	3.15987e+02	3.29100e+03	2.65153e+00	3.14250e+02
3299	3.16665e+02	3.29900e+03	2.64736e+00	3.14917e+02
3307	3.17354e+02	3.30700e+03	2.64296e+00	3.15583e+02
3315	3.18039e+02	3.31500e+03	2.63830e+00	3.16250e+02
3323	3.18729e+02	3.32300e+03	2.63352e+00	3.16917e+02
3331	3.19387e+02	3.33100e+03	2.62860e+00	3.17583e+02
3339	3.20048e+02	3.33900e+03	2.62348e+00	3.18250e+02
3347	3.20722e+02	3.34700e+03	2.61826e+00	3.18917e+02
3355	3.21413e+02	3.35500e+03	2.61281e+00	3.19583e+02
3363	3.22093e+02	3.36300e+03	2.60716e+00	3.20250e+02
3371	3.22787e+02	3.37100e+03	2.60135e+00	3.20917e+02
3379	3.23447e+02	3.37900e+03	2.59515e+00	3.21583e+02
3387	3.24135e+02	3.38700e+03	2.58874e+00	3.22250e+02
3395	3.24834e+02	3.39500e+03	2.58196e+00	3.22917e+02
3403	3.25512e+02	3.40300e+03	2.57487e+00	3.23583e+02
3411	3.26176e+02	3.41100e+03	2.56748e+00	3.24250e+02
3419	3.26856e+02	3.41900e+03	2.55978e+00	3.24917e+02
3427	3.27517e+02	3.42700e+03	2.55154e+00	3.25583e+02
3435	3.28183e+02	3.43500e+03	2.54259e+00	3.26250e+02
3443	3.28858e+02	3.44300e+03	2.53362e+00	3.26917e+02
3451	3.29525e+02	3.45100e+03	2.52413e+00	3.27583e+02
3459	3.30183e+02	3.45900e+03	2.51390e+00	3.28250e+02
3467	3.30877e+02	3.46700e+03	2.50328e+00	3.28917e+02
3475	3.31543e+02	3.47500e+03	2.49250e+00	3.29583e+02
3483	3.32235e+02	3.48300e+03	2.48124e+00	3.30250e+02
3491	3.32918e+02	3.49100e+03	2.46947e+00	3.30917e+02
3499	3.33602e+02	3.49900e+03	2.45725e+00	3.31583e+02
3507	3.34273e+02	3.50700e+03	2.44445e+00	3.32250e+02
3515	3.34964e+02	3.51500e+03	2.43012e+00	3.32917e+02
3523	3.35653e+02	3.52300e+03	2.41567e+00	3.33583e+02
3531	3.36359e+02	3.53100e+03	2.40101e+00	3.34250e+02
3539	3.37038e+02	3.53900e+03	2.38554e+00	3.34917e+02
3547	3.37722e+02	3.54700e+03	2.36932e+00	3.35583e+02
3555	3.38411e+02	3.55500e+03	2.35245e+00	3.36250e+02
3563	3.39108e+02	3.56300e+03	2.33472e+00	3.36917e+02
3571	3.39798e+02	3.57100e+03	2.31647e+00	3.37583e+02
3579	3.40491e+02	3.57900e+03	2.29757e+00	3.38250e+02
3587	3.41178e+02	3.58700e+03	2.27786e+00	3.38917e+02
3595	3.41844e+02	3.59500e+03	2.25737e+00	3.39583e+02
3603	3.42529e+02	3.60300e+03	2.23608e+00	3.40250e+02
3611	3.43233e+02	3.61100e+03	2.21395e+00	3.40917e+02
3619	3.43901e+02	3.61900e+03	2.19087e+00	3.41583e+02
3627	3.44578e+02	3.62700e+03	2.16689e+00	3.42250e+02
3635	3.45273e+02	3.63500e+03	2.14203e+00	3.42917e+02
3643	3.45941e+02	3.64300e+03	2.11615e+00	3.43583e+02
3651	3.46612e+02	3.65100e+03	2.08930e+00	3.44250e+02
3659	3.47283e+02	3.65900e+03	2.06142e+00	3.44917e+02
3667	3.47967e+02	3.66700e+03	2.03262e+00	3.45583e+02
3675	3.48631e+02	3.67500e+03	2.00302e+00	3.46250e+02
3683	3.49298e+02	3.68300e+03	1.97272e+00	3.46917e+02
3691	3.49958e+02	3.69100e+03	1.94169e+00	3.47583e+02
3699	3.50629e+02	3.69900e+03	1.90990e+00	3.48250e+02
3707	3.51318e+02	3.70700e+03	1.87701e+00	3.48917e+02
3715	3.51997e+02	3.71500e+03	1.84250e+00	3.49583e+02
3723	3.52659e+02	3.72300e+03	1.80750e+00	3.50250e+02
3731	3.53328e+02	3.73100e+03	1.77247e+00	3.50917e+02
3739	3.53995e+02	3.73900e+03	1.73711e+00	3.51583e+02
3747	3.54651e+02	3.74700e+03	1.70146e+00	3.52250e+02
3755	3.55321e+02	3.75500e+03	1.66540e+00	3.52917e+02
3763	3.55988e+02	3.76300e+03	1.62894e+00	3.53583e+02
3771	3.56658e+02	3.77100e+03	1.59140e+00	3.54250e+02
3779	3.57331e+02	3.77900e+03	1.55329e+00	3.54917e+02
3787	3.58011e+02	3.78700e+03	1.51447e+00	3.55583e+02
3795	3.58678e+02	3.79500e+03	1.47480e+00	3.56250e+02
3803	3.59352e+02	3.80300e+03	1.43499e+00	3.56917e+02
3811	3.60045e+02	3.81100e+03	1.39514e+00	3.57583e+02
3819	3.60713e+02	3.81900e+03	1.35482e+00	3.58250e+02
3827	3.61369e+02	3.82700e+03	1.31396e+00	3.58917e+02
3835	3.62030e+02	3.83500e+03	1.27303e+00	3.59583e+02
3843	3.62724e+02	3.84300e+03	1.23229e+00	3.60250e+02
3851	3.63424e+02	3.85100e+03	1.19192e+00	3.60917e+02
3859	3.64079e+02	3.85900e+03	1.15132e+00	3.61583e+02
3867	3.64739e+02	3.86700e+03	1.11096e+00	3.62250e+02
3875	3.65417e+02	3.87500e+03	1.07158e+00	3.62917e+02
3883	3.66085e+02	3.88300e+03	1.03370e+00	3.63583e+02
3891	3.66753e+02	3.89100e+03	9.94894e-01	3.64250e+02
3899	3.67411e+02	3.89900e+03	9.54660e-01	3.64917e+02
3907	3.68074e+02	3.90700e+03	9.13365e-01	3.65583e+02
3915	3.68751e+02	3.91500e+03	8.73945e-01	3.66250e+02
3923	3.69410e+02	3.92300e+03	8.35063e-01	3.66917e+02
3931	3.70080e+02	3.93100e+03	7.96419e-01	3.67583e+02
3939	3.70757e+02	3.93900e+03	7.58667e-01	3.68250e+02
3947	3.71428e+02	3.94700e+03	7.21323e-01	3.68917e+02
3955	3.72130e+02	3.95500e+03	6.84332e-01	3.69583e+02
3963	3.72791e+02	3.96300e+03	6.48496e-01	3.70250e+02
3971	3.73445e+02	3.97100e+03	6.12574e-01	3.70917e+02
3979	3.74108e+02	3.97900e+03	5.78864e-01	3.71583e+02
3987	3.74767e+02	3.98700e+03	5.45313e-01	3.72250e+02
3995	3.75437e+02	3.99500e+03	5.11564e-01	3.72917e+02
4003	3.76117e+02	4.00300e+03	4.80141e-01	3.73583e+02
4011	3.76796e+02	4.01100e+03	4.49759e-01	3.74250e+02
4019	3.77504e+02	4.01900e+03	4.20225e-01	3.74917e+02
4027	3.78177e+02	4.02700e+03	3.91794e-01	3.75583e+02
4035	3.78849e+02	4.03500e+03	3.64812e-01	3.76250e+02
4043	3.79511e+02	4.04300e+03	3.39014e-01	3.76917e+02
4051	3.80193e+02	4.05100e+03	3.14513e-01	3.77583e+02
4059	3.80881e+02	4.05900e+03	2.91251e-01	3.78250e+02
4067	3.81579e+02	4.06700e+03	2.69101e-01	3.78917e+02
4075	3.82234e+02	4.07500e+03	2.48333e-01	3.79583e+02
4083	3.82907e+02	4.08300e+03	2.28816e-01	3.80250e+02
4091	3.83556e+02	4.09100e+03	2.10332e-01	3.80917e+02
4099	3.84212e+02	4.09900e+03	1.92780e-01	3.81583e+02
4107	3.84889e+02	4.10700e+03	1.76326e-01	3.82250e+02
4115	3.85555e+02	4.11500e+03	1.60713e-01	3.82917e+02
4123	3.86197e+02	4.12300e+03	1.46039e-01	3.83583e+02
4131	3.86859e+02	4.13100e+03	1.32156e-01	3.84250e+02
4139	3.87519e+02	4.13900e+03	1.19240e-01	3.84917e+02
4147	3.88195e+02	4.14700e+03	1.07086e-01	3.85583e+02
4155	3.88870e+02	4.15500e+03	9.57791e-02	3.86250e+02
4163	3.89531e+02	4.16300e+03	8.51880e-02	3.86917e+02
4171	3.90213e+02	4.17100e+03	7.52113e-02	3.87583e+02
4179	3.90873e+02	4.17900e+03	6.60179e-02	3.88250e+02
4187	3.91539e+02	4.18700e+03	5.73019e-02	3.88917e+02
4195	3.92194e+02	4.19500e+03	4.91976e-02	3.89583e+02
4203	3.92857e+02	4.20300e+03	4.16753e-02	3.90250e+02
4211	3.93521e+02	4.21100e+03	3.45383e-02	3.90917e+02
4219	3.94184e+02	4.21900e+03	2.79053e-02	3.91583e+02
4227	3.94841e+02	4.22700e+03	2.15500e-02	3.92250e+02
4235	3.95506e+02	4.23500e+03	1.59344e-02	3.92917e+02
4243	3.96172e+02	4.24300e+03	1.07244e-02	3.93583e+02
4251	3.96841e+02	4.25100e+03	5.77672e-03	3.94250e+02
4259	3.97512e+02	4.25900e+03	1.09242e-03	3.94917e+02
4267	3.98165e+02	4.26700e+03	-3.15411e-03	3.95583e+02
4275	3.98813e+02	4.27500e+03	-7.33734e-03	3.96250e+02
4283	3.99471e+02	4.28300e+03	-1.12076e-02	3.96917e+02
4291	4.00162e+02	4.29100e+03	-1.48931e-02	3.97583e+02
4299	4.00796e+02	4.29900e+03	-1.83247e-02	3.98250e+02
4307	4.01436e+02	4.30700e+03	-2.15762e-02	3.98917e+02
4315	4.02089e+02	4.31500e+03	-2.45858e-02	3.99583e+02
4323	4.02749e+02	4.32300e+03	-2.73374e-02	4.00250e+02
4331	4.03422e+02	4.33100e+03	-2.99952e-02	4.00917e+02
4339	4.04060e+02	4.33900e+03	-3.26081e-02	4.01583e+02
4347	4.04734e+02	4.34700e+03	-3.50127e-02	4.02250e+02
4355	4.05393e+02	4.35500e+03	-3.72544e-02	4.02917e+02
4363	4.06066e+02	4.36300e+03	-3.95718e-02	4.03583e+02
4371	4.06728e+02	4.37100e+03	-4.17546e-02	4.04250e+02
4379	4.07388e+02	4.37900e+03	-4.36245e-02	4.04917e+02
4387	4.08071e+02	4.38700e+03	-4.55109e-02	4.05583e+02
4395	4.08740e+02	4.39500e+03	-4.72381e-02	4.06250e+02
4403	4.09398e+02	4.40300e+03	-4.89573e-02	4.06917e+02
4411	4.10053e+02	4.41100e+03	-5.06653e-02	4.07583e+02
4419	4.10702e+02	4.41900e+03	-5.22434e-02	4.08250e+02
4427	4.11368e+02	4.42700e+03	-5.37838e-02	4.08917e+02
4435	4.12034e+02	4.43500e+03	-5.52315e-02	4.09583e+02
4443	4.12690e+02	4.44300e+03	-5.65021e-02	4.10250e+02
4451	4.13354e+02	4.45100e+03	-5.78924e-02	4.10917e+02
4459	4.14002e+02	4.45900e+03	-5.93205e-02	4.11583e+02
4467	4.14668e+02	4.46700e+03	-6.05503e-02	4.12250e+02
4475	4.15318e+02	4.47500e+03	-6.16518e-02	4.12917e+02
4483	4.15980e+02	4.48300e+03	-6.27405e-02	4.13583e+02
4491	4.16630e+02	4.49100e+03	-6.38516e-02	4.14250e+02
4499	4.17284e+02	4.49900e+03	-6.48420e-02	4.14917e+02
4507	4.17933e+02	4.50700e+03	-6.56209e-02	4.15583e+02
4515	4.18585e+02	4.51500e+03	-6.64309e-02	4.16250e+02
4523	4.19247e+02	4.52300e+03	-6.72042e-02	4.16917e+02
4531	4.19899e+02	4.53100e+03	-6.79868e-02	4.17583e+02
4539	4.20574e+02	4.53900e+03	-6.87321e-02	4.18250e+02
4547	4.21214e+02	4.54700e+03	-6.94127e-02	4.18917e+02
4555	4.21889e+02	4.55500e+03	-6.98317e-02	4.19583e+02
4563	4.22547e+02	4.56300e+03	-7.03337e-02	4.20250e+02
4571	4.23214e+02	4.57100e+03	-7.07952e-02	4.20917e+02
4579	4.23879e+02	4.57900e+03	-7.12245e-02	4.21583e+02
4587	4.24550e+02	4.58700e+03	-7.14558e-02	4.22250e+02
4595	4.25191e+02	4.59500e+03	-7.14979e-02	4.22917e+02
4603	4.25845e+02	4.60300e+03	-7.16340e-02	4.23583e+02
4611	4.26502e+02	4.61100e+03	-7.18749e-02	4.24250e+02
4619	4.27162e+02	4.61900e+03	-7.19699e-02	4.24917e+02
4627	4.27824e+02	4.62700e+03	-7.20618e-02	4.25583e+02
4635	4.28485e+02	4.63500e+03	-7.21992e-02	4.26250e+02
4643	4.29144e+02	4.64300e+03	-7.23787e-02	4.26917e+02
4651	4.29790e+02	4.65100e+03	-7.27619e-02	4.27583e+02
4659	4.30452e+02	4.65900e+03	-7.26307e-02	4.28250e+02
4667	4.31112e+02	4.66700e+03	-7.17685e-02	4.28917e+02
4675	4.31767e+02	4.67500e+03	-7.21610e-02	4.29583e+02
4683	4.32426e+02	4.68300e+03	-7.24826e-02	4.30250e+02
4691	4.33089e+02	4.69100e+03	-7.24616e-02	4.30917e+02
4699	4.33732e+02	4.69900e+03	-7.27336e-02	4.31583e+02
4707	4.34362e+02	4.70700e+03	-7.26181e-02	4.32250e+02
4715	4.34987e+02	4.71500e+03	-7.27170e-02	4.32917e+02
4723	4.35643e+02	4.72300e+03	-7.33946e-02	4.33583e+02
4731	4.36286e+02	4.73100e+03	-7.30484e-02	4.34250e+02
4739	4.36918e+02	4.73900e+03	-7.27039e-02	4.34917e+02
4747	4.37553e+02	4.74700e+03	-7.30650e-02	4.35583e+02
4755	4.38092e+02	4.75500e+03	-7.32757e-02	4.36250e+02
4763	4.38541e+02	4.76300e+03	-7.31934e-02	4.36917e+02
4771	4.39152e+02	4.77100e+03	-7.31309e-02	4.37583e+02
4779	4.39778e+02	4.77900e+03	-7.31173e-02	4.38250e+02
4787	4.40405e+02	4.78700e+03	-7.33517e-02	4.38917e+02
4795	4.41047e+02	4.79500e+03	-7.34285e-02	4.39583e+02
4803	4.41702e+02	4.80300e+03	-7.35032e-02	4.40250e+02
4811	4.42338e+02	4.81100e+03	-7.34666e-02	4.40917e+02
4819	4.42979e+02	4.81900e+03	-7.39754e-02	4.41583e+02
4827	4.43628e+02	4.82700e+03	-7.40987e-02	4.42250e+02
4835	4.44267e+02	4.83500e+03	-7.37862e-02	4.42917e+02
4843	4.44922e+02	4.84300e+03	-7.34245e-02	4.43583e+02
4851	4.45566e+02	4.85100e+03	-7.32938e-02	4.44250e+02
4859	4.46223e+02	4.85900e+03	-7.35586e-02	4.44917e+02
4867	4.46867e+02	4.86700e+03	-7.36344e-02	4.45583e+02
4875	4.47521e+02	4.87500e+03	-7.37084e-02	4.46250e+02
4883	4.48172e+02	4.88300e+03	-7.37278e-02	4.46917e+02
4891	4.48837e+02	4.89100e+03	-7.38269e-02	4.47583e+02
4899	4.49475e+02	4.89900e+03	-7.37724e-02	4.48250e+02
4907	4.50132e+02	4.90700e+03	-7.38664e-02	4.48917e+02
4915	4.50772e+02	4.91500e+03	-7.38837e-02	4.49583e+02
4923	4.51429e+02	4.92300e+03	-7.39891e-02	4.50250e+02
4931	4.52096e+02	4.93100e+03	-7.39213e-02	4.50917e+02
4939	4.52736e+02	4.93900e+03	-7.39037e-02	4.51583e+02
4947	4.53388e+02	4.94700e+03	-7.40258e-02	4.52250e+02
4955	4.54047e+02	4.95500e+03	-7.41805e-02	4.52917e+02
4963	4.54703e+02	4.96300e+03	-7.42573e-02	4.53583e+02
4971	4.55363e+02	4.97100e+03	-7.41865e-02	4.54250e+02
4979	4.56015e+02	4.97900e+03	-7.41611e-02	4.54917e+02
4987	4.56667e+02	4.98700e+03	-7.42883e-02	4.55583e+02
4995	4.57332e+02	4.99500e+03	-7.42365e-02	4.56250e+02
5003	4.57991e+02	5.00300e+03	-7.42295e-02	4.56917e+02
5011	4.58640e+02	5.01100e+03	-7.42783e-02	4.57583e+02
5019	4.59297e+02	5.01900e+03	-7.42763e-02	4.58250e+02
5027	4.59950e+02	5.02700e+03	-7.43223e-02	4.58917e+02
5035	4.60610e+02	5.03500e+03	-7.43531e-02	4.59583e+02
5043	4.61263e+02	5.04300e+03	-7.42965e-02	4.60250e+02
5051	4.61931e+02	5.05100e+03	-7.43131e-02	4.60917e+02
5059	4.62579e+02	5.05900e+03	-7.44278e-02	4.61583e+02
5067	4.63244e+02	5.06700e+03	-7.44190e-02	4.62250e+02
5075	4.63884e+02	5.07500e+03	-7.44418e-02	4.62917e+02
5083	4.64552e+02	5.08300e+03	-7.44659e-02	4.63583e+02
5091	4.65201e+02	5.09100e+03	-7.44594e-02	4.64250e+02
5099	4.65864e+02	5.09900e+03	-7.44202e-02	4.64917e+02
5107	4.66519e+02	5.10700e+03	-7.43877e-02	4.65583e+02
5115	4.67163e+02	5.11500e+03	-7.44222e-02	4.66250e+02
5123	4.67815e+02	5.12300e+03	-7.44316e-02	4.66917e+02
5131	4.68472e+02	5.13100e+03	-7.44060e-02	4.67583e+02
5139	4.69130e+02	5.13900e+03	-7.43577e-02	4.68250e+02
5147	4.69789e+02	5.14700e+03	-7.44874e-02	4.68917e+02
5155	4.70447e+02	5.15500e+03	-7.45432e-02	4.69583e+02
5163	4.71091e+02	5.16300e+03	-7.46048e-02	4.70250e+02
5171	4.71753e+02	5.17100e+03	-7.46262e-02	4.70917e+02
5179	4.72406e+02	5.17900e+03	-7.46224e-02	4.71583e+02
5187	4.73071e+02	5.18700e+03	-7.46633e-02	4.72250e+02
5195	4.73728e+02	5.19500e+03	-7.47097e-02	4.72917e+02
5203	4.74388e+02	5.20300e+03	-7.45875e-02	4.73583e+02
5211	4.75038e+02	5.21100e+03	-7.47054e-02	4.74250e+02
5219	4.75705e+02	5.21900e+03	-7.47553e-02	4.74917e+02
5227	4.76353e+02	5.22700e+03	-7.47437e-02	4.75583e+02
5235	4.77006e+02	5.23500e+03	-7.48030e-02	4.76250e+02
5243	4.77667e+02	5.24300e+03	-7.47162e-02	4.76917e+02
5251	4.78312e+02	5.25100e+03	-7.46893e-02	4.77583e+02
5259	4.78971e+02	5.25900e+03	-7.47955e-02	4.78250e+02
5267	4.79610e+02	5.26700e+03	-7.48597e-02	4.78917e+02
5275	4.80276e+02	5.27500e+03	-7.47468e-02	4.79583e+02
5283	4.80909e+02	5.28300e+03	-7.47889e-02	4.80250e+02
5291	4.81574e+02	5.29100e+03	-7.48214e-02	4.80917e+02
5299	4.82223e+02	5.29900e+03	-7.47749e-02	4.81583e+02
5307	4.82867e+02	5.30700e+03	-7.48213e-02	4.82250e+02
5315	4.83521e+02	5.31500e+03	-7.46972e-02	4.82917e+02
5323	4.84167e+02	5.32300e+03	-7.46092e-02	4.83583e+02
5331	4.84808e+02	5.33100e+03	-7.46299e-02	4.84250e+02
5339	4.85463e+02	5.33900e+03	-7.47167e-02	4.84917e+02
5347	4.86105e+02	5.34700e+03	-7.48026e-02	4.85583e+02
5355	4.86762e+02	5.35500e+03	-7.49182e-02	4.86250e+02
5363	4.87413e+02	5.36300e+03	-7.49381e-02	4.86917e+02
5371	4.88067e+02	5.37100e+03	-7.49932e-02	4.87583e+02
5379	4.88740e+02	5.37900e+03	-7.49379e-02	4.88250e+02
5387	4.89388e+02	5.38700e+03	-7.48720e-02	4.88917e+02
5395	4.90029e+02	5.39500e+03	-7.48556e-02	4.89583e+02
5403	4.90695e+02	5.40300e+03	-7.50674e-02	4.90250e+02
5411	4.91350e+02	5.41100e+03	-7.49722e-02	4.90917e+02
5419	4.92013e+02	5.41900e+03	-7.48785e-02	4.91583e+02
5427	4.92676e+02	5.42700e+03	-7.49203e-02	4.92250e+02
5435	4.93330e+02	5.43500e+03	-7.49923e-02	4.92917e+02
5443	4.93996e+02	5.44300e+03	-7.49600e-02	4.93583e+02
5451	4.94652e+02	5.45100e+03	-7.50647e-02	4.94250e+02
5459	4.95307e+02	5.45900e+03	-7.51362e-02	4.94917e+02
5467	4.95971e+02	5.46700e+03	-7.51462e-02	4.95583e+02
5475	4.96628e+02	5.47500e+03	-7.51303e-02	4.96250e+02
5483	4.97293e+02	5.48300e+03	-7.50935e-02	4.96917e+02
5491	4.97943e+02	5.49100e+03	-7.50854e-02	4.97583e+02
5499	4.98589e+02	5.49900e+03	-7.51128e-02	4.98250e+02
5507	4.99247e+02	5.50700e+03	-7.51064e-02	4.98917e+02
5515	4.99902e+02	5.51500e+03	-7.51145e-02	4.99583e+02
5523	5.00556e+02	5.52300e+03	-7.52937e-02	5.00250e+02
5531	5.01205e+02	5.53100e+03	-7.52578e-02	5.00917e+02
5539	5.01871e+02	5.53900e+03	-7.51956e-02	5.01583e+02
5547	5.02531e+02	5.54700e+03	-7.52840e-02	5.02250e+02
5555	5.03181e+02	5.55500e+03	-7.53247e-02	5.02917e+02
5563	5.03846e+02	5.56300e+03	-7.51766e-02	5.03583e+02
5571	5.04512e+02	5.57100e+03	-7.51882e-02	5.04250e+02
5579	5.05168e+02	5.57900e+03	-7.52842e-02	5.04917e+02
5587	5.05821e+02	5.58700e+03	-7.52356e-02	5.05583e+02
5595	5.06492e+02	5.59500e+03	-7.53359e-02	5.06250e+02
5603	5.07150e+02	5.60300e+03	-7.54453e-02	5.06917e+02
5611	5.07803e+02	5.61100e+03	-7.55112e-02	5.07583e+02
5619	5.08472e+02	5.61900e+03	-7.53811e-02	5.08250e+02
5627	5.09120e+02	5.62700e+03	-7.53466e-02	5.08917e+02
5635	5.09797e+02	5.63500e+03	-7.52016e-02	5.09583e+02
5643	5.10445e+02	5.64300e+03	-7.52281e-02	5.10250e+02
5651	5.11100e+02	5.65100e+03	-7.53419e-02	5.10917e+02
5659	5.11763e+02	5.65900e+03	-7.53928e-02	5.11583e+02
5667	5.12436e+02	5.66700e+03	-7.54190e-02	5.12250e+02
5675	5.13096e+02	5.67500e+03	-7.54401e-02	5.12917e+02
5683	5.13749e+02	5.68300e+03	-7.53429e-02	5.13583e+02
5691	5.14411e+02	5.69100e+03	-7.53492e-02	5.14250e+02
5699	5.15078e+02	5.69900e+03	-7.54310e-02	5.14917e+02
5707	5.15729e+02	5.70700e+03	-7.54347e-02	5.15583e+02
5715	5.16379e+02	5.71500e+03	-7.55090e-02	5.16250e+02
5723	5.17034e+02	5.72300e+03	-7.55128e-02	5.16917e+02
5731	5.17682e+02	5.73100e+03	-7.54015e-02	5.17583e+02
5739	5.18337e+02	5.73900e+03	-7.54105e-02	5.18250e+02
5747	5.18987e+02	5.74700e+03	-7.55310e-02	5.18917e+02
5755	5.19629e+02	5.75500e+03	-7.55028e-02	5.19583e+02
5763	5.20294e+02	5.76300e+03	-7.55325e-02	5.20250e+02
5771	5.20969e+02	5.77100e+03	-7.55331e-02	5.20917e+02
5779	5.21626e+02	5.77900e+03	-7.54376e-02	5.21583e+02
5787	5.22299e+02	5.78700e+03	-7.54828e-02	5.22250e+02
5795	5.22954e+02	5.79500e+03	-7.55892e-02	5.22917e+02
5803	5.23626e+02	5.80300e+03	-7.56629e-02	5.23583e+02
5811	5.24301e+02	5.81100e+03	-7.57010e-02	5.24250e+02
5819	5.24957e+02	5.81900e+03	-7.57027e-02	5.24917e+02
5827	5.25638e+02	5.82700e+03	-7.56713e-02	5.25583e+02
5835	5.26294e+02	5.83500e+03	-7.57493e-02	5.26250e+02
5843	5.26948e+02	5.84300e+03	-7.57980e-02	5.26917e+02
5851	5.27603e+02	5.85100e+03	-7.57663e-02	5.27583e+02
5859	5.28252e+02	5.85900e+03	-7.58386e-02	5.28250e+02
5867	5.28909e+02	5.86700e+03	-7.58241e-02	5.28917e+02
5875	5.29565e+02	5.87500e+03	-7.56943e-02	5.29583e+02
5883	5.30211e+02	5.88300e+03	-7.56653e-02	5.30250e+02
5891	5.30859e+02	5.89100e+03	-7.55944e-02	5.30917e+02
5899	5.31504e+02	5.89900e+03	-7.56545e-02	5.31583e+02
5907	5.32158e+02	5.90700e+03	-7.57016e-02	5.32250e+02
5915	5.32809e+02	5.91500e+03	-7.57229e-02	5.32917e+02
5923	5.33458e+02	5.92300e+03	-7.58102e-02	5.33583e+02
5931	5.34104e+02	5.93100e+03	-7.56891e-02	5.34250e+02
5939	5.34756e+02	5.93900e+03	-7.56515e-02	5.34917e+02
5947	5.35418e+02	5.94700e+03	-7.57458e-02	5.35583e+02
5955	5.36053e+02	5.95500e+03	-7.59294e-02	5.36250e+02
5963	5.36708e+02	5.96300e+03	-7.58687e-02	5.36917e+02
5971	5.37359e+02	5.97100e+03	-7.58548e-02	5.37583e+02
5979	5.38013e+02	5.97900e+03	-7.58981e-02	5.38250e+02
5987	5.38664e+02	5.98700e+03	-7.59673e-02	5.38917e+02
5995	5.39320e+02	5.99500e+03	-7.58657e-02	5.39583e+02
6003	5.39974e+02	6.00300e+03	-7.59036e-02	5.40250e+02
6011	5.40638e+02	6.01100e+03	-7.59730e-02	5.40917e+02
6019	5.41287e+02	6.01900e+03	-7.59420e-02	5.41583e+02
6027	5.41937e+02	6.02700e+03	-7.60032e-02	5.42250e+02
6035	5.42586e+02	6.03500e+03	-7.60294e-02	5.42917e+02
6043	5.43240e+02	6.04300e+03	-7.59705e-02	5.43583e+02
6051	5.43888e+02	6.05100e+03	-7.60443e-02	5.44250e+02
6059	5.44549e+02	6.05900e+03	-7.61869e-02	5.44917e+02
6067	5.45213e+02	6.06700e+03	-7.60513e-02	5.45583e+02
6075	5.45851e+02	6.07500e+03	-7.59920e-02	5.46250e+02
6083	5.46515e+02	6.08300e+03	-7.60478e-02	5.46917e+02
6091	5.47166e+02	6.09100e+03	-7.60876e-02	5.47583e+02
6099	5.47823e+02	6.09900e+03	-7.62051e-02	5.48250e+02
6107	5.48483e+02	6.10700e+03	-7.62042e-02	5.48917e+02
6115	5.49134e+02	6.11500e+03	-7.61812e-02	5.49583e+02
6123	5.49794e+02	6.12300e+03	-7.61395e-02	5.50250e+02
6131	5.50445e+02	6.13100e+03	-7.61595e-02	5.50917e+02
6139	5.51106e+02	6.13900e+03	-7.62105e-02	5.51583e+02
6147	5.51761e+02	6.14700e+03	-7.63411e-02	5.52250e+02
6155	5.52420e+02	6.15500e+03	-7.63064e-02	5.52917e+02
6163	5.53084e+02	6.16300e+03	-7.62613e-02	5.53583e+02
6171	5.53748e+02	6.17100e+03	-7.62761e-02	5.54250e+02
6179	5.54394e+02	6.17900e+03	-7.62776e-02	5.54917e+02
6187	5.55057e+02	6.18700e+03	-7.63471e-02	5.55583e+02
6195	5.55715e+02	6.19500e+03	-7.63645e-02	5.56250e+02
6203	5.56379e+02	6.20300e+03	-7.64841e-02	5.56917e+02
6211	5.57029e+02	6.21100e+03	-7.65192e-02	5.57583e+02
6219	5.57677e+02	6.21900e+03	-7.63945e-02	5.58250e+02
6227	5.58354e+02	6.22700e+03	-7.64736e-02	5.58917e+02
6235	5.59027e+02	6.23500e+03	-7.64912e-02	5.59583e+02
6243	5.59678e+02	6.24300e+03	-7.64968e-02	5.60250e+02
6251	5.60331e+02	6.25100e+03	-7.65660e-02	5.60917e+02
6259	5.61003e+02	6.25900e+03	-7.66299e-02	5.61583e+02
6267	5.61661e+02	6.26700e+03	-7.65284e-02	5.62250e+02
6275	5.62321e+02	6.27500e+03	-7.65494e-02	5.62917e+02
6283	5.62982e+02	6.28300e+03	-7.66059e-02	5.63583e+02
6291	5.63642e+02	6.29100e+03	-7.66035e-02	5.64250e+02
6299	5.64298e+02	6.29900e+03	-7.65908e-02	5.64917e+02
6307	5.64962e+02	6.30700e+03	-7.66971e-02	5.65583e+02
6315	5.65630e+02	6.31500e+03	-7.67519e-02	5.66250e+02
6323	5.66292e+02	6.32300e+03	-7.67002e-02	5.66917e+02
6331	5.66962e+02	6.33100e+03	-7.67958e-02	5.67583e+02
6339	5.67608e+02	6.33900e+03	-7.68164e-02	5.68250e+02
6347	5.68263e+02	6.34700e+03	-7.67757e-02	5.68917e+02
6355	5.68925e+02	6.35500e+03	-7.67994e-02	5.69583e+02
6363	5.69588e+02	6.36300e+03	-7.68123e-02	5.70250e+02
6371	5.70244e+02	6.37100e+03	-7.67194e-02	5.70917e+02
6379	5.70912e+02	6.37900e+03	-7.67147e-02	5.71583e+02
6387	5.71570e+02	6.38700e+03	-7.67290e-02	5.72250e+02
6395	5.72236e+02	6.39500e+03	-7.67225e-02	5.72917e+02
6403	5.72894e+02	6.40300e+03	-7.67273e-02	5.73583e+02
6411	5.73552e+02	6.41100e+03	-7.67857e-02	5.74250e+02
6419	5.74214e+02	6.41900e+03	-7.67340e-02	5.74917e+02
6427	5.74884e+02	6.42700e+03	-7.67673e-02	5.75583e+02
6435	5.75556e+02	6.43500e+03	-7.68585e-02	5.76250e+02
6443	5.76207e+02	6.44300e+03	-7.69108e-02	5.76917e+02
6451	5.76888e+02	6.45100e+03	-7.68244e-02	5.77583e+02
6459	5.77559e+02	6.45900e+03	-7.69230e-02	5.78250e+02
6467	5.78237e+02	6.46700e+03	-7.69315e-02	5.78917e+02
6475	5.78902e+02	6.47500e+03	-7.70471e-02	5.79583e+02
6483	5.79567e+02	6.48300e+03	-7.69026e-02	5.80250e+02
6491	5.80245e+02	6.49100e+03	-7.69254e-02	5.80917e+02
6499	5.80920e+02	6.49900e+03	-7.68693e-02	5.81583e+02
6507	5.81591e+02	6.50700e+03	-7.68548e-02	5.82250e+02
6515	5.82284e+02	6.51500e+03	-7.68685e-02	5.82917e+02
6523	5.82954e+02	6.52300e+03	-7.69435e-02	5.83583e+02
6531	5.83608e+02	6.53100e+03	-7.69459e-02	5.84250e+02
6539	5.84238e+02	6.53900e+03	-7.69271e-02	5.84917e+02
6547	5.84903e+02	6.54700e+03	-7.69113e-02	5.85583e+02
6555	5.85582e+02	6.55500e+03	-7.68523e-02	5.86250e+02
6563	5.86256e+02	6.56300e+03	-7.67906e-02	5.86917e+02
6571	5.86915e+02	6.57100e+03	-7.68895e-02	5.87583e+02
6579	5.87590e+02	6.57900e+03	-7.70015e-02	5.88250e+02
6587	5.88262e+02	6.58700e+03	-7.70818e-02	5.88917e+02
6595	5.88938e+02	6.59500e+03	-7.70928e-02	5.89583e+02
6603	5.89623e+02	6.60300e+03	-7.70746e-02	5.90250e+02
6611	5.90302e+02	6.61100e+03	-7.70716e-02	5.90917e+02
6619	5.90958e+02	6.61900e+03	-7.72014e-02	5.91583e+02
6627	5.91608e+02	6.62700e+03	-7.70926e-02	5.92250e+02
6635	5.92276e+02	6.63500e+03	-7.71765e-02	5.92917e+02
6643	5.92919e+02	6.64300e+03	-7.72564e-02	5.93583e+02
6651	5.93555e+02	6.65100e+03	-7.72031e-02	5.94250e+02
6659	5.94210e+02	6.65900e+03	-7.71985e-02	5.94917e+02
6667	5.94873e+02	6.66700e+03	-7.72081e-02	5.95583e+02
6675	5.95526e+02	6.67500e+03	-7.72399e-02	5.96250e+02
6683	5.96173e+02	6.68300e+03	-7.72619e-02	5.96917e+02
6691	5.96849e+02	6.69100e+03	-7.73172e-02	5.97583e+02
6699	5.97501e+02	6.69900e+03	-7.72461e-02	5.98250e+02
6707	5.98172e+02	6.70700e+03	-7.71552e-02	5.98917e+02
6715	5.98851e+02	6.71500e+03	-7.71837e-02	5.99583e+02
6723	5.99517e+02	6.72300e+03	-7.72576e-02	6.00250e+02
6731	6.00190e+02	6.73100e+03	-7.73246e-02	6.00917e+02
6739	6.00855e+02	6.73900e+03	-7.73861e-02	6.01583e+02
6747	6.01512e+02	6.74700e+03	-7.73776e-02	6.02250e+02
6755	6.02165e+02	6.75500e+03	-7.74848e-02	6.02917e+02
6763	6.02841e+02	6.76300e+03	-7.74677e-02	6.03583e+02
6771	6.03529e+02	6.77100e+03	-7.74773e-02	6.04250e+02
6779	6.04191e+02	6.77900e+03	-7.74680e-02	6.04917e+02
6787	6.04855e+02	6.78700e+03	-7.73858e-02	6.05583e+02
6795	6.05530e+02	6.79500e+03	-7.74242e-02	6.06250e+02
6803	6.06220e+02	6.80300e+03	-7.75197e-02	6.06917e+02
6811	6.06867e+02	6.81100e+03	-7.75340e-02	6.07583e+02
6819	6.07538e+02	6.81900e+03	-7.74631e-02	6.08250e+02
6827	6.08201e+02	6.82700e+03	-7.74574e-02	6.08917e+02
6835	6.08865e+02	6.83500e+03	-7.75343e-02	6.09583e+02
6843	6.09521e+02	6.84300e+03	-7.75071e-02	6.10250e+02
6851	6.10179e+02	6.85100e+03	-7.75707e-02	6.10917e+02
6859	6.10826e+02	6.85900e+03	-7.75076e-02	6.11583e+02
6867	6.11482e+02	6.86700e+03	-7.75012e-02	6.12250e+02
6875	6.12146e+02	6.87500e+03	-7.75385e-02	6.12917e+02
6883	6.12799e+02	6.88300e+03	-7.75606e-02	6.13583e+02
6891	6.13462e+02	6.89100e+03	-7.75619e-02	6.14250e+02
6899	6.14133e+02	6.89900e+03	-7.75843e-02	6.14917e+02
6907	6.14796e+02	6.90700e+03	-7.75230e-02	6.15583e+02
6915	6.15459e+02	6.91500e+03	-7.76778e-02	6.16250e+02
6923	6.16130e+02	6.92300e+03	-7.76971e-02	6.16917e+02
6931	6.16808e+02	6.93100e+03	-7.77218e-02	6.17583e+02
6939	6.17488e+02	6.93900e+03	-7.76268e-02	6.18250e+02
6947	6.18165e+02	6.94700e+03	-7.77352e-02	6.18917e+02
6955	6.18857e+02	6.95500e+03	-7.77757e-02	6.19583e+02
6963	6.19548e+02	6.96300e+03	-7.77885e-02	6.20250e+02
6971	6.20220e+02	6.97100e+03	-7.78119e-02	6.20917e+02
6979	6.20903e+02	6.97900e+03	-7.77419e-02	6.21583e+02
6987	6.21579e+02	6.98700e+03	-7.77074e-02	6.22250e+02
6995	6.22274e+02	6.99500e+03	-7.77098e-02	6.22917e+02
7003	6.22947e+02	7.00300e+03	-7.77871e-02	6.23583e+02
7011	6.23623e+02	7.01100e+03	-7.78571e-02	6.24250e+02
7019	6.24286e+02	7.01900e+03	-7.79055e-02	6.24917e+02
7027	6.24966e+02	7.02700e+03	-7.78884e-02	6.25583e+02
7035	6.25643e+02	7.03500e+03	-7.80194e-02	6.26250e+02
7043	6.26324e+02	7.04300e+03	-7.79951e-02	6.26917e+02
7051	6.26995e+02	7.05100e+03	-7.80218e-02	6.27583e+02
7059	6.27687e+02	7.05900e+03	-7.80101e-02	6.28250e+02
7067	6.28363e+02	7.06700e+03	-7.79913e-02	6.28917e+02
7075	6.29042e+02	7.07500e+03	-7.79902e-02	6.29583e+02
7083	6.29727e+02	7.08300e+03	-7.78879e-02	6.30250e+02
7091	6.30420e+02	7.09100e+03	-7.78627e-02	6.30917e+02
7099	6.31120e+02	7.09900e+03	-7.80834e-02	6.31583e+02
7107	6.31799e+02	7.10700e+03	-7.82129e-02	6.32250e+02
7115	6.32481e+02	7.11500e+03	-7.81404e-02	6.32917e+02
7123	6.33165e+02	7.12300e+03	-7.81116e-02	6.33583e+02
7131	6.33821e+02	7.13100e+03	-7.82091e-02	6.34250e+02
7139	6.34487e+02	7.13900e+03	-7.81442e-02	6.34917e+02
7147	6.35161e+02	7.14700e+03	-7.81900e-02	6.35583e+02
7155	6.35840e+02	7.15500e+03	-7.83045e-02	6.36250e+02
7163	6.36513e+02	7.16300e+03	-7.84598e-02	6.36917e+02
7171	6.37182e+02	7.17100e+03	-7.83496e-02	6.37583e+02
7179	6.37854e+02	7.17900e+03	-7.82345e-02	6.38250e+02
7187	6.38537e+02	7.18700e+03	-7.82589e-02	6.38917e+02
7195	6.39225e+02	7.19500e+03	-7.83351e-02	6.39583e+02
7203	6.39900e+02	7.20300e+03	-7.83922e-02	6.40250e+02
7211	6.40579e+02	7.21100e+03	-7.84440e-02	6.40917e+02
7219	6.41234e+02	7.21900e+03	-7.84738e-02	6.41583e+02
7227	6.41907e+02	7.22700e+03	-7.84923e-02	6.42250e+02
7235	6.42568e+02	7.23500e+03	-7.84668e-02	6.42917e+02
7243	6.43213e+02	7.24300e+03	-7.84975e-02	6.43583e+02
7251	6.43878e+02	7.25100e+03	-7.83888e-02	6.44250e+02
7259	6.44529e+02	7.25900e+03	-7.84495e-02	6.44917e+02
7267	6.45185e+02	7.26700e+03	-7.85209e-02	6.45583e+02
7275	6.45846e+02	7.27500e+03	-7.84705e-02	6.46250e+02
7283	6.46508e+02	7.28300e+03	-7.84738e-02	6.46917e+02
7291	6.47175e+02	7.29100e+03	-7.85100e-02	6.47583e+02
7299	6.47826e+02	7.29900e+03	-7.84859e-02	6.48250e+02
7307	6.48492e+02	7.30700e+03	-7.85948e-02	6.48917e+02
7315	6.49165e+02	7.31500e+03	-7.85494e-02	6.49583e+02
7323	6.49839e+02	7.32300e+03	-7.85066e-02	6.50250e+02
7331	6.50499e+02	7.33100e+03	-7.83951e-02	6.50917e+02
7339	6.51173e+02	7.33900e+03	-7.84431e-02	6.51583e+02
7347	6.51852e+02	7.34700e+03	-7.85304e-02	6.52250e+02
7355	6.52516e+02	7.35500e+03	-7.85698e-02	6.52917e+02
7363	6.53181e+02	7.36300e+03	-7.86242e-02	6.53583e+02
7371	6.53838e+02	7.37100e+03	-7.86863e-02	6.54250e+02
7379	6.54507e+02	7.37900e+03	-7.87225e-02	6.54917e+02
7387	6.55174e+02	7.38700e+03	-7.88148e-02	6.55583e+02
7395	6.55836e+02	7.39500e+03	-7.87862e-02	6.56250e+02
7403	6.56506e+02	7.40300e+03	-7.87518e-02	6.56917e+02
7411	6.57147e+02	7.41100e+03	-7.88600e-02	6.57583e+02
7419	6.57800e+02	7.41900e+03	-7.87756e-02	6.58250e+02
7427	6.58440e+02	7.42700e+03	-7.88432e-02	6.58917e+02
7435	6.59084e+02	7.43500e+03	-7.88017e-02	6.59583e+02
7443	6.59730e+02	7.44300e+03	-7.87955e-02	6.60250e+02
7451	6.60398e+02	7.45100e+03	-7.88106e-02	6.60917e+02
7459	6.61061e+02	7.45900e+03	-7.87455e-02	6.61583e+02
7467	6.61705e+02	7.46700e+03	-7.87221e-02	6.62250e+02
7475	6.62368e+02	7.47500e+03	-7.87619e-02	6.62917e+02
7483	6.63032e+02	7.48300e+03	-7.87472e-02	6.63583e+02
7491	6.63679e+02	7.49100e+03	-7.87948e-02	6.64250e+02
7499	6.64348e+02	7.49900e+03	-7.87399e-02	6.64917e+02
7507	6.65007e+02	7.50700e+03	-7.87150e-02	6.65583e+02
7515	6.65661e+02	7.51500e+03	-7.88177e-02	6.66250e+02
7523	6.66322e+02	7.52300e+03	-7.88047e-02	6.66917e+02
7531	6.66986e+02	7.53100e+03	-7.87390e-02	6.67583e+02
7539	6.67642e+02	7.53900e+03	-7.87068e-02	6.68250e+02
7547	6.68291e+02	7.54700e+03	-7.86101e-02	6.68917e+02
7555	6.68944e+02	7.55500e+03	-7.87347e-02	6.69583e+02
7563	6.69602e+02	7.56300e+03	-7.88244e-02	6.70250e+02
7571	6.70267e+02	7.57100e+03	-7.88017e-02	6.70917e+02
7579	6.70914e+02	7.57900e+03	-7.88066e-02	6.71583e+02
7587	6.71577e+02	7.58700e+03	-7.88081e-02	6.72250e+02
7595	6.72229e+02	7.59500e+03	-7.88366e-02	6.72917e+02
7603	6.72870e+02	7.60300e+03	-7.88256e-02	6.73583e+02
7611	6.73527e+02	7.61100e+03	-7.88257e-02	6.74250e+02
7619	6.74179e+02	7.61900e+03	-7.88724e-02	6.74917e+02
7627	6.74849e+02	7.62700e+03	-7.88628e-02	6.75583e+02
7635	6.75510e+02	7.63500e+03	-7.89341e-02	6.76250e+02
7643	6.76168e+02	7.64300e+03	-7.90216e-02	6.76917e+02
7651	6.76825e+02	7.65100e+03	-7.89580e-02	6.77583e+02
7659	6.77502e+02	7.65900e+03	-7.89252e-02	6.78250e+02
7667	6.78161e+02	7.66700e+03	-7.88771e-02	6.78917e+02
7675	6.78825e+02	7.67500e+03	-7.88316e-02	6.79583e+02
7683	6.79486e+02	7.68300e+03	-7.88277e-02	6.80250e+02
7691	6.80146e+02	7.69100e+03	-7.88743e-02	6.80917e+02
7699	6.80808e+02	7.69900e+03	-7.89302e-02	6.81583e+02
7707	6.81479e+02	7.70700e+03	-7.89056e-02	6.82250e+02
7715	6.82132e+02	7.71500e+03	-7.89274e-02	6.82917e+02
7723	6.82817e+02	7.72300e+03	-7.89638e-02	6.83583e+02
7731	6.83473e+02	7.73100e+03	-7.90370e-02	6.84250e+02
7739	6.84141e+02	7.73900e+03	-7.91455e-02	6.84917e+02
7747	6.84800e+02	7.74700e+03	-7.90801e-02	6.85583e+02
7755	6.85460e+02	7.75500e+03	-7.88921e-02	6.86250e+02
7763	6.86125e+02	7.76300e+03	-7.88898e-02	6.86917e+02
7771	6.86793e+02	7.77100e+03	-7.89842e-02	6.87583e+02
7779	6.87467e+02	7.77900e+03	-7.90958e-02	6.88250e+02
7787	6.88130e+02	7.78700e+03	-7.90455e-02	6.88917e+02
7795	6.88790e+02	7.79500e+03	-7.90158e-02	6.89583e+02
7803	6.89455e+02	7.80300e+03	-7.89714e-02	6.90250e+02
7811	6.90119e+02	7.81100e+03	-7.89747e-02	6.90917e+02
7819	6.90777e+02	7.81900e+03	-7.90453e-02	6.91583e+02
7827	6.91445e+02	7.82700e+03	-7.88997e-02	6.92250e+02
7835	6.92115e+02	7.83500e+03	-7.88322e-02	6.92917e+02
7843	6.92776e+02	7.84300e+03	-7.89218e-02	6.93583e+02
7851	6.93443e+02	7.85100e+03	-7.91000e-02	6.94250e+02
7859	6.94103e+02	7.85900e+03	-7.92770e-02	6.94917e+02
7867	6.94770e+02	7.86700e+03	-7.94196e-02	6.95583e+02
7875	6.95432e+02	7.87500e+03	-7.93490e-02	6.96250e+02
7883	6.96090e+02	7.88300e+03	-7.92073e-02	6.96917e+02
7891	6.96750e+02	7.89100e+03	-7.92540e-02	6.97583e+02
7899	6.97258e+02	7.89900e+03	-7.90631e-02	6.98250e+02
7907	6.97695e+02	7.90700e+03	-7.91074e-02	6.98917e+02
7915	6.98032e+02	7.91500e+03	-7.93693e-02	6.99583e+02
7920	6.98206e+02	7.92000e+03	-7.93723e-02	7.00000e+02