File: Experiments/TUBS/tga_nonisotherm/tga_dynamic_n2_dyn5_piece_1mg_r2.txt
index	ts	t	weight	tr
[#]	[°C]	[s]	[mg]	[°C]
1083	1.30225e+02	1.08300e+03	9.47736e-01	1.30250e+02
1091	1.30925e+02	1.09100e+03	9.47699e-01	1.30917e+02
1099	1.31576e+02	1.09900e+03	9.47706e-01	1.31583e+02
1107	1.32238e+02	1.10700e+03	9.47621e-01	1.32250e+02
1115	1.32921e+02	1.11500e+03	9.47604e-01	1.32917e+02
1123	1.33577e+02	1.12300e+03	9.47651e-01	1.33583e+02
1131	1.34246e+02	1.13100e+03	9.47637e-01	1.34250e+02
1139	1.34901e+02	1.13900e+03	9.47655e-01	1.34917e+02
1147	1.35577e+02	1.14700e+03	9.47677e-01	1.35583e+02
1155	1.36242e+02	1.15500e+03	9.47631e-01	1.36250e+02
1163	1.36918e+02	1.16300e+03	9.47645e-01	1.36917e+02
1171	1.37585e+02	1.17100e+03	9.47568e-01	1.37583e+02
1179	1.38252e+02	1.17900e+03	9.47565e-01	1.38250e+02
1187	1.38906e+02	1.18700e+03	9.47652e-01	1.38917e+02
1195	1.39595e+02	1.19500e+03	9.47692e-01	1.39583e+02
1203	1.40253e+02	1.20300e+03	9.47755e-01	1.40250e+02
1211	1.40920e+02	1.21100e+03	9.47701e-01	1.40917e+02
1219	1.41589e+02	1.21900e+03	9.47702e-01	1.41583e+02
1227	1.42249e+02	1.22700e+03	9.47542e-01	1.42250e+02
1235	1.42935e+02	1.23500e+03	9.47557e-01	1.42917e+02
1243	1.43582e+02	1.24300e+03	9.47683e-01	1.43583e+02
1251	1.44259e+02	1.25100e+03	9.47626e-01	1.44250e+02
1259	1.44937e+02	1.25900e+03	9.47692e-01	1.44917e+02
1267	1.45600e+02	1.26700e+03	9.47600e-01	1.45583e+02
1275	1.46256e+02	1.27500e+03	9.47458e-01	1.46250e+02
1283	1.46944e+02	1.28300e+03	9.47476e-01	1.46917e+02
1291	1.47602e+02	1.29100e+03	9.47370e-01	1.47583e+02
1299	1.48282e+02	1.29900e+03	9.47383e-01	1.48250e+02
1307	1.48951e+02	1.30700e+03	9.47434e-01	1.48917e+02
1315	1.49607e+02	1.31500e+03	9.47312e-01	1.49583e+02
1323	1.50281e+02	1.32300e+03	9.47364e-01	1.50250e+02
1331	1.50940e+02	1.33100e+03	9.47316e-01	1.50917e+02
1339	1.51612e+02	1.33900e+03	9.47354e-01	1.51583e+02
1347	1.52300e+02	1.34700e+03	9.47446e-01	1.52250e+02
1355	1.52960e+02	1.35500e+03	9.47372e-01	1.52917e+02
1363	1.53608e+02	1.36300e+03	9.47410e-01	1.53583e+02
1371	1.54302e+02	1.37100e+03	9.47378e-01	1.54250e+02
1379	1.54956e+02	1.37900e+03	9.47419e-01	1.54917e+02
1387	1.55625e+02	1.38700e+03	9.47278e-01	1.55583e+02
1395	1.56294e+02	1.39500e+03	9.47260e-01	1.56250e+02
1403	1.56972e+02	1.40300e+03	9.47317e-01	1.56917e+02
1411	1.57630e+02	1.41100e+03	9.47374e-01	1.57583e+02
1419	1.58303e+02	1.41900e+03	9.47324e-01	1.58250e+02
1427	1.58969e+02	1.42700e+03	9.47286e-01	1.58917e+02
1435	1.59636e+02	1.43500e+03	9.47263e-01	1.59583e+02
1443	1.60307e+02	1.44300e+03	9.47282e-01	1.60250e+02
1451	1.60976e+02	1.45100e+03	9.47165e-01	1.60917e+02
1459	1.61647e+02	1.45900e+03	9.46977e-01	1.61583e+02
1467	1.62312e+02	1.46700e+03	9.46923e-01	1.62250e+02
1475	1.62977e+02	1.47500e+03	9.46831e-01	1.62917e+02
1483	1.63645e+02	1.48300e+03	9.46815e-01	1.63583e+02
1491	1.64304e+02	1.49100e+03	9.46630e-01	1.64250e+02
1499	1.64988e+02	1.49900e+03	9.46516e-01	1.64917e+02
1507	1.65651e+02	1.50700e+03	9.46401e-01	1.65583e+02
1515	1.66329e+02	1.51500e+03	9.46320e-01	1.66250e+02
1523	1.66986e+02	1.52300e+03	9.46300e-01	1.66917e+02
1531	1.67660e+02	1.53100e+03	9.46182e-01	1.67583e+02
1539	1.68323e+02	1.53900e+03	9.46014e-01	1.68250e+02
1547	1.68986e+02	1.54700e+03	9.45792e-01	1.68917e+02
1555	1.69650e+02	1.55500e+03	9.45623e-01	1.69583e+02
1563	1.70331e+02	1.56300e+03	9.45417e-01	1.70250e+02
1571	1.71003e+02	1.57100e+03	9.45291e-01	1.70917e+02
1579	1.71650e+02	1.57900e+03	9.45134e-01	1.71583e+02
1587	1.72335e+02	1.58700e+03	9.44934e-01	1.72250e+02
1595	1.73008e+02	1.59500e+03	9.44589e-01	1.72917e+02
1603	1.73671e+02	1.60300e+03	9.44285e-01	1.73583e+02
1611	1.74334e+02	1.61100e+03	9.44009e-01	1.74250e+02
1619	1.75006e+02	1.61900e+03	9.43762e-01	1.74917e+02
1627	1.75664e+02	1.62700e+03	9.43496e-01	1.75583e+02
1635	1.76348e+02	1.63500e+03	9.43268e-01	1.76250e+02
1643	1.77009e+02	1.64300e+03	9.42903e-01	1.76917e+02
1651	1.77681e+02	1.65100e+03	9.42719e-01	1.77583e+02
1659	1.78347e+02	1.65900e+03	9.42485e-01	1.78250e+02
1667	1.79021e+02	1.66700e+03	9.42123e-01	1.78917e+02
1675	1.79682e+02	1.67500e+03	9.41848e-01	1.79583e+02
1683	1.80346e+02	1.68300e+03	9.41560e-01	1.80250e+02
1691	1.81021e+02	1.69100e+03	9.41175e-01	1.80917e+02
1699	1.81691e+02	1.69900e+03	9.40848e-01	1.81583e+02
1707	1.82359e+02	1.70700e+03	9.40480e-01	1.82250e+02
1715	1.83036e+02	1.71500e+03	9.40224e-01	1.82917e+02
1723	1.83706e+02	1.72300e+03	9.39924e-01	1.83583e+02
1731	1.84364e+02	1.73100e+03	9.39585e-01	1.84250e+02
1739	1.85031e+02	1.73900e+03	9.39209e-01	1.84917e+02
1747	1.85694e+02	1.74700e+03	9.38736e-01	1.85583e+02
1755	1.86361e+02	1.75500e+03	9.38391e-01	1.86250e+02
1763	1.87038e+02	1.76300e+03	9.38109e-01	1.86917e+02
1771	1.87693e+02	1.77100e+03	9.37665e-01	1.87583e+02
1779	1.88365e+02	1.77900e+03	9.37305e-01	1.88250e+02
1787	1.89040e+02	1.78700e+03	9.36964e-01	1.88917e+02
1795	1.89706e+02	1.79500e+03	9.36576e-01	1.89583e+02
1803	1.90381e+02	1.80300e+03	9.36418e-01	1.90250e+02
1811	1.91050e+02	1.81100e+03	9.35904e-01	1.90917e+02
1819	1.91714e+02	1.81900e+03	9.35505e-01	1.91583e+02
1827	1.92374e+02	1.82700e+03	9.35164e-01	1.92250e+02
1835	1.93053e+02	1.83500e+03	9.34828e-01	1.92917e+02
1843	1.93716e+02	1.84300e+03	9.34464e-01	1.93583e+02
1851	1.94392e+02	1.85100e+03	9.34093e-01	1.94250e+02
1859	1.95046e+02	1.85900e+03	9.33695e-01	1.94917e+02
1867	1.95734e+02	1.86700e+03	9.33350e-01	1.95583e+02
1875	1.96387e+02	1.87500e+03	9.32903e-01	1.96250e+02
1883	1.97059e+02	1.88300e+03	9.32645e-01	1.96917e+02
1891	1.97727e+02	1.89100e+03	9.32290e-01	1.97583e+02
1899	1.98396e+02	1.89900e+03	9.31795e-01	1.98250e+02
1907	1.99065e+02	1.90700e+03	9.31411e-01	1.98917e+02
1915	1.99730e+02	1.91500e+03	9.31000e-01	1.99583e+02
1923	2.00392e+02	1.92300e+03	9.30744e-01	2.00250e+02
1931	2.01058e+02	1.93100e+03	9.30360e-01	2.00917e+02
1939	2.01739e+02	1.93900e+03	9.29917e-01	2.01583e+02
1947	2.02398e+02	1.94700e+03	9.29586e-01	2.02250e+02
1955	2.03085e+02	1.95500e+03	9.29262e-01	2.02917e+02
1963	2.03745e+02	1.96300e+03	9.28878e-01	2.03583e+02
1971	2.04412e+02	1.97100e+03	9.28589e-01	2.04250e+02
1979	2.05086e+02	1.97900e+03	9.28192e-01	2.04917e+02
1987	2.05746e+02	1.98700e+03	9.27767e-01	2.05583e+02
1995	2.06421e+02	1.99500e+03	9.27413e-01	2.06250e+02
2003	2.07080e+02	2.00300e+03	9.27015e-01	2.06917e+02
2011	2.07747e+02	2.01100e+03	9.26719e-01	2.07583e+02
2019	2.08408e+02	2.01900e+03	9.26409e-01	2.08250e+02
2027	2.09072e+02	2.02700e+03	9.26059e-01	2.08917e+02
2035	2.09743e+02	2.03500e+03	9.25679e-01	2.09583e+02
2043	2.10413e+02	2.04300e+03	9.25409e-01	2.10250e+02
2051	2.11079e+02	2.05100e+03	9.25033e-01	2.10917e+02
2059	2.11739e+02	2.05900e+03	9.24601e-01	2.11583e+02
2067	2.12420e+02	2.06700e+03	9.24167e-01	2.12250e+02
2075	2.13092e+02	2.07500e+03	9.23766e-01	2.12917e+02
2083	2.13756e+02	2.08300e+03	9.23590e-01	2.13583e+02
2091	2.14422e+02	2.09100e+03	9.23171e-01	2.14250e+02
2099	2.15099e+02	2.09900e+03	9.22798e-01	2.14917e+02
2107	2.15749e+02	2.10700e+03	9.22418e-01	2.15583e+02
2115	2.16418e+02	2.11500e+03	9.22114e-01	2.16250e+02
2123	2.17099e+02	2.12300e+03	9.21841e-01	2.16917e+02
2131	2.17754e+02	2.13100e+03	9.21429e-01	2.17583e+02
2139	2.18413e+02	2.13900e+03	9.21012e-01	2.18250e+02
2147	2.19100e+02	2.14700e+03	9.20640e-01	2.18917e+02
2155	2.19763e+02	2.15500e+03	9.20398e-01	2.19583e+02
2163	2.20434e+02	2.16300e+03	9.19997e-01	2.20250e+02
2171	2.21092e+02	2.17100e+03	9.19613e-01	2.20917e+02
2179	2.21761e+02	2.17900e+03	9.19303e-01	2.21583e+02
2187	2.22426e+02	2.18700e+03	9.18884e-01	2.22250e+02
2195	2.23101e+02	2.19500e+03	9.18646e-01	2.22917e+02
2203	2.23765e+02	2.20300e+03	9.18389e-01	2.23583e+02
2211	2.24427e+02	2.21100e+03	9.17943e-01	2.24250e+02
2219	2.25102e+02	2.21900e+03	9.17564e-01	2.24917e+02
2227	2.25762e+02	2.22700e+03	9.17251e-01	2.25583e+02
2235	2.26427e+02	2.23500e+03	9.16981e-01	2.26250e+02
2243	2.27098e+02	2.24300e+03	9.16552e-01	2.26917e+02
2251	2.27773e+02	2.25100e+03	9.16389e-01	2.27583e+02
2259	2.28434e+02	2.25900e+03	9.16022e-01	2.28250e+02
2267	2.29107e+02	2.26700e+03	9.15830e-01	2.28917e+02
2275	2.29766e+02	2.27500e+03	9.15452e-01	2.29583e+02
2283	2.30428e+02	2.28300e+03	9.15283e-01	2.30250e+02
2291	2.31094e+02	2.29100e+03	9.14864e-01	2.30917e+02
2299	2.31755e+02	2.29900e+03	9.14583e-01	2.31583e+02
2307	2.32432e+02	2.30700e+03	9.14273e-01	2.32250e+02
2315	2.33089e+02	2.31500e+03	9.14066e-01	2.32917e+02
2323	2.33763e+02	2.32300e+03	9.13849e-01	2.33583e+02
2331	2.34438e+02	2.33100e+03	9.13505e-01	2.34250e+02
2339	2.35104e+02	2.33900e+03	9.13182e-01	2.34917e+02
2347	2.35761e+02	2.34700e+03	9.12771e-01	2.35583e+02
2355	2.36450e+02	2.35500e+03	9.12426e-01	2.36250e+02
2363	2.37102e+02	2.36300e+03	9.12318e-01	2.36917e+02
2371	2.37767e+02	2.37100e+03	9.12125e-01	2.37583e+02
2379	2.38437e+02	2.37900e+03	9.11826e-01	2.38250e+02
2387	2.39099e+02	2.38700e+03	9.11587e-01	2.38917e+02
2395	2.39776e+02	2.39500e+03	9.11281e-01	2.39583e+02
2403	2.40431e+02	2.40300e+03	9.11064e-01	2.40250e+02
2411	2.41100e+02	2.41100e+03	9.10735e-01	2.40917e+02
2419	2.41775e+02	2.41900e+03	9.10524e-01	2.41583e+02
2427	2.42439e+02	2.42700e+03	9.10351e-01	2.42250e+02
2435	2.43108e+02	2.43500e+03	9.09907e-01	2.42917e+02
2443	2.43778e+02	2.44300e+03	9.09684e-01	2.43583e+02
2451	2.44446e+02	2.45100e+03	9.09447e-01	2.44250e+02
2459	2.45117e+02	2.45900e+03	9.09248e-01	2.44917e+02
2467	2.45770e+02	2.46700e+03	9.09034e-01	2.45583e+02
2475	2.46454e+02	2.47500e+03	9.08695e-01	2.46250e+02
2483	2.47106e+02	2.48300e+03	9.08494e-01	2.46917e+02
2491	2.47773e+02	2.49100e+03	9.08284e-01	2.47583e+02
2499	2.48439e+02	2.49900e+03	9.08138e-01	2.48250e+02
2507	2.49102e+02	2.50700e+03	9.07933e-01	2.48917e+02
2515	2.49770e+02	2.51500e+03	9.07635e-01	2.49583e+02
2523	2.50436e+02	2.52300e+03	9.07420e-01	2.50250e+02
2531	2.51104e+02	2.53100e+03	9.07137e-01	2.50917e+02
2539	2.51779e+02	2.53900e+03	9.06962e-01	2.51583e+02
2547	2.52437e+02	2.54700e+03	9.06771e-01	2.52250e+02
2555	2.53115e+02	2.55500e+03	9.06531e-01	2.52917e+02
2563	2.53777e+02	2.56300e+03	9.06306e-01	2.53583e+02
2571	2.54442e+02	2.57100e+03	9.05887e-01	2.54250e+02
2579	2.55113e+02	2.57900e+03	9.05681e-01	2.54917e+02
2587	2.55768e+02	2.58700e+03	9.05464e-01	2.55583e+02
2595	2.56436e+02	2.59500e+03	9.05293e-01	2.56250e+02
2603	2.57104e+02	2.60300e+03	9.05117e-01	2.56917e+02
2611	2.57771e+02	2.61100e+03	9.04827e-01	2.57583e+02
2619	2.58447e+02	2.61900e+03	9.04587e-01	2.58250e+02
2627	2.59106e+02	2.62700e+03	9.04259e-01	2.58917e+02
2635	2.59766e+02	2.63500e+03	9.03992e-01	2.59583e+02
2643	2.60436e+02	2.64300e+03	9.03879e-01	2.60250e+02
2651	2.61118e+02	2.65100e+03	9.03689e-01	2.60917e+02
2659	2.61788e+02	2.65900e+03	9.03350e-01	2.61583e+02
2667	2.62445e+02	2.66700e+03	9.03038e-01	2.62250e+02
2675	2.63097e+02	2.67500e+03	9.02830e-01	2.62917e+02
2683	2.63763e+02	2.68300e+03	9.02614e-01	2.63583e+02
2691	2.64428e+02	2.69100e+03	9.02319e-01	2.64250e+02
2699	2.65098e+02	2.69900e+03	9.01976e-01	2.64917e+02
2707	2.65772e+02	2.70700e+03	9.01668e-01	2.65583e+02
2715	2.66432e+02	2.71500e+03	9.01481e-01	2.66250e+02
2723	2.67112e+02	2.72300e+03	9.01024e-01	2.66917e+02
2731	2.67768e+02	2.73100e+03	9.00545e-01	2.67583e+02
2739	2.68436e+02	2.73900e+03	9.00217e-01	2.68250e+02
2747	2.69101e+02	2.74700e+03	8.99988e-01	2.68917e+02
2755	2.69772e+02	2.75500e+03	8.99567e-01	2.69583e+02
2763	2.70434e+02	2.76300e+03	8.99170e-01	2.70250e+02
2771	2.71111e+02	2.77100e+03	8.98742e-01	2.70917e+02
2779	2.71761e+02	2.77900e+03	8.98431e-01	2.71583e+02
2787	2.72445e+02	2.78700e+03	8.98155e-01	2.72250e+02
2795	2.73099e+02	2.79500e+03	8.97826e-01	2.72917e+02
2803	2.73765e+02	2.80300e+03	8.97445e-01	2.73583e+02
2811	2.74438e+02	2.81100e+03	8.96923e-01	2.74250e+02
2819	2.75099e+02	2.81900e+03	8.96449e-01	2.74917e+02
2827	2.75761e+02	2.82700e+03	8.95900e-01	2.75583e+02
2835	2.76426e+02	2.83500e+03	8.95442e-01	2.76250e+02
2843	2.77094e+02	2.84300e+03	8.94908e-01	2.76917e+02
2851	2.77754e+02	2.85100e+03	8.94389e-01	2.77583e+02
2859	2.78435e+02	2.85900e+03	8.93788e-01	2.78250e+02
2867	2.79093e+02	2.86700e+03	8.93144e-01	2.78917e+02
2875	2.79764e+02	2.87500e+03	8.92539e-01	2.79583e+02
2883	2.80423e+02	2.88300e+03	8.91834e-01	2.80250e+02
2891	2.81091e+02	2.89100e+03	8.91191e-01	2.80917e+02
2899	2.81755e+02	2.89900e+03	8.90668e-01	2.81583e+02
2907	2.82422e+02	2.90700e+03	8.90086e-01	2.82250e+02
2915	2.83083e+02	2.91500e+03	8.89428e-01	2.82917e+02
2923	2.83747e+02	2.92300e+03	8.88724e-01	2.83583e+02
2931	2.84413e+02	2.93100e+03	8.87881e-01	2.84250e+02
2939	2.85075e+02	2.93900e+03	8.87123e-01	2.84917e+02
2947	2.85751e+02	2.94700e+03	8.86361e-01	2.85583e+02
2955	2.86415e+02	2.95500e+03	8.85552e-01	2.86250e+02
2963	2.87089e+02	2.96300e+03	8.84779e-01	2.86917e+02
2971	2.87745e+02	2.97100e+03	8.83871e-01	2.87583e+02
2979	2.88413e+02	2.97900e+03	8.83013e-01	2.88250e+02
2987	2.89077e+02	2.98700e+03	8.82218e-01	2.88917e+02
2995	2.89745e+02	2.99500e+03	8.81379e-01	2.89583e+02
3003	2.90414e+02	3.00300e+03	8.80412e-01	2.90250e+02
3011	2.91088e+02	3.01100e+03	8.79501e-01	2.90917e+02
3019	2.91746e+02	3.01900e+03	8.78534e-01	2.91583e+02
3027	2.92398e+02	3.02700e+03	8.77638e-01	2.92250e+02
3035	2.93073e+02	3.03500e+03	8.76682e-01	2.92917e+02
3043	2.93733e+02	3.04300e+03	8.75765e-01	2.93583e+02
3051	2.94394e+02	3.05100e+03	8.74864e-01	2.94250e+02
3059	2.95065e+02	3.05900e+03	8.73882e-01	2.94917e+02
3067	2.95739e+02	3.06700e+03	8.73005e-01	2.95583e+02
3075	2.96397e+02	3.07500e+03	8.72103e-01	2.96250e+02
3083	2.97066e+02	3.08300e+03	8.71154e-01	2.96917e+02
3091	2.97726e+02	3.09100e+03	8.70187e-01	2.97583e+02
3099	2.98390e+02	3.09900e+03	8.69287e-01	2.98250e+02
3107	2.99055e+02	3.10700e+03	8.68304e-01	2.98917e+02
3115	2.99720e+02	3.11500e+03	8.67299e-01	2.99583e+02
3123	3.00382e+02	3.12300e+03	8.66382e-01	3.00250e+02
3131	3.01043e+02	3.13100e+03	8.65424e-01	3.00917e+02
3139	3.01727e+02	3.13900e+03	8.64539e-01	3.01583e+02
3147	3.02387e+02	3.14700e+03	8.63578e-01	3.02250e+02
3155	3.03039e+02	3.15500e+03	8.62517e-01	3.02917e+02
3163	3.03715e+02	3.16300e+03	8.61510e-01	3.03583e+02
3171	3.04389e+02	3.17100e+03	8.60598e-01	3.04250e+02
3179	3.05051e+02	3.17900e+03	8.59591e-01	3.04917e+02
3187	3.05720e+02	3.18700e+03	8.58397e-01	3.05583e+02
3195	3.06367e+02	3.19500e+03	8.57355e-01	3.06250e+02
3203	3.07040e+02	3.20300e+03	8.56327e-01	3.06917e+02
3211	3.07707e+02	3.21100e+03	8.55136e-01	3.07583e+02
3219	3.08366e+02	3.21900e+03	8.53959e-01	3.08250e+02
3227	3.09035e+02	3.22700e+03	8.52673e-01	3.08917e+02
3235	3.09704e+02	3.23500e+03	8.51533e-01	3.09583e+02
3243	3.10372e+02	3.24300e+03	8.50231e-01	3.10250e+02
3251	3.11034e+02	3.25100e+03	8.48953e-01	3.10917e+02
3259	3.11700e+02	3.25900e+03	8.47653e-01	3.11583e+02
3267	3.12358e+02	3.26700e+03	8.46327e-01	3.12250e+02
3275	3.13022e+02	3.27500e+03	8.44788e-01	3.12917e+02
3283	3.13685e+02	3.28300e+03	8.43182e-01	3.13583e+02
3291	3.14347e+02	3.29100e+03	8.41711e-01	3.14250e+02
3299	3.15016e+02	3.29900e+03	8.40210e-01	3.14917e+02
3307	3.15674e+02	3.30700e+03	8.38462e-01	3.15583e+02
3315	3.16343e+02	3.31500e+03	8.36631e-01	3.16250e+02
3323	3.17009e+02	3.32300e+03	8.34794e-01	3.16917e+02
3331	3.17679e+02	3.33100e+03	8.32778e-01	3.17583e+02
3339	3.18349e+02	3.33900e+03	8.30761e-01	3.18250e+02
3347	3.19009e+02	3.34700e+03	8.28655e-01	3.18917e+02
3355	3.19672e+02	3.35500e+03	8.26625e-01	3.19583e+02
3363	3.20338e+02	3.36300e+03	8.24417e-01	3.20250e+02
3371	3.21003e+02	3.37100e+03	8.21963e-01	3.20917e+02
3379	3.21658e+02	3.37900e+03	8.19536e-01	3.21583e+02
3387	3.22332e+02	3.38700e+03	8.16999e-01	3.22250e+02
3395	3.22989e+02	3.39500e+03	8.14216e-01	3.22917e+02
3403	3.23658e+02	3.40300e+03	8.11394e-01	3.23583e+02
3411	3.24321e+02	3.41100e+03	8.08468e-01	3.24250e+02
3419	3.24984e+02	3.41900e+03	8.05446e-01	3.24917e+02
3427	3.25644e+02	3.42700e+03	8.02173e-01	3.25583e+02
3435	3.26309e+02	3.43500e+03	7.98728e-01	3.26250e+02
3443	3.26978e+02	3.44300e+03	7.95271e-01	3.26917e+02
3451	3.27639e+02	3.45100e+03	7.91688e-01	3.27583e+02
3459	3.28294e+02	3.45900e+03	7.87906e-01	3.28250e+02
3467	3.28969e+02	3.46700e+03	7.83903e-01	3.28917e+02
3475	3.29626e+02	3.47500e+03	7.79745e-01	3.29583e+02
3483	3.30295e+02	3.48300e+03	7.75360e-01	3.30250e+02
3491	3.30949e+02	3.49100e+03	7.70747e-01	3.30917e+02
3499	3.31621e+02	3.49900e+03	7.66091e-01	3.31583e+02
3507	3.32296e+02	3.50700e+03	7.61313e-01	3.32250e+02
3515	3.32947e+02	3.51500e+03	7.56313e-01	3.32917e+02
3523	3.33614e+02	3.52300e+03	7.50972e-01	3.33583e+02
3531	3.34288e+02	3.53100e+03	7.45411e-01	3.34250e+02
3539	3.34955e+02	3.53900e+03	7.39655e-01	3.34917e+02
3547	3.35628e+02	3.54700e+03	7.33748e-01	3.35583e+02
3555	3.36283e+02	3.55500e+03	7.27620e-01	3.36250e+02
3563	3.36939e+02	3.56300e+03	7.21075e-01	3.36917e+02
3571	3.37606e+02	3.57100e+03	7.14369e-01	3.37583e+02
3579	3.38272e+02	3.57900e+03	7.07428e-01	3.38250e+02
3587	3.38937e+02	3.58700e+03	7.00281e-01	3.38917e+02
3595	3.39599e+02	3.59500e+03	6.92788e-01	3.39583e+02
3603	3.40267e+02	3.60300e+03	6.85108e-01	3.40250e+02
3611	3.40928e+02	3.61100e+03	6.77213e-01	3.40917e+02
3619	3.41590e+02	3.61900e+03	6.69023e-01	3.41583e+02
3627	3.42265e+02	3.62700e+03	6.60635e-01	3.42250e+02
3635	3.42924e+02	3.63500e+03	6.52007e-01	3.42917e+02
3643	3.43586e+02	3.64300e+03	6.42980e-01	3.43583e+02
3651	3.44256e+02	3.65100e+03	6.33765e-01	3.44250e+02
3659	3.44919e+02	3.65900e+03	6.24289e-01	3.44917e+02
3667	3.45578e+02	3.66700e+03	6.14418e-01	3.45583e+02
3675	3.46248e+02	3.67500e+03	6.04354e-01	3.46250e+02
3683	3.46904e+02	3.68300e+03	5.94346e-01	3.46917e+02
3691	3.47581e+02	3.69100e+03	5.83805e-01	3.47583e+02
3699	3.48243e+02	3.69900e+03	5.72936e-01	3.48250e+02
3707	3.48911e+02	3.70700e+03	5.61846e-01	3.48917e+02
3715	3.49580e+02	3.71500e+03	5.50531e-01	3.49583e+02
3723	3.50229e+02	3.72300e+03	5.39151e-01	3.50250e+02
3731	3.50900e+02	3.73100e+03	5.27674e-01	3.50917e+02
3739	3.51564e+02	3.73900e+03	5.15915e-01	3.51583e+02
3747	3.52232e+02	3.74700e+03	5.04048e-01	3.52250e+02
3755	3.52886e+02	3.75500e+03	4.91896e-01	3.52917e+02
3763	3.53558e+02	3.76300e+03	4.79506e-01	3.53583e+02
3771	3.54225e+02	3.77100e+03	4.67100e-01	3.54250e+02
3779	3.54885e+02	3.77900e+03	4.54607e-01	3.54917e+02
3787	3.55550e+02	3.78700e+03	4.42190e-01	3.55583e+02
3795	3.56207e+02	3.79500e+03	4.29612e-01	3.56250e+02
3803	3.56884e+02	3.80300e+03	4.16957e-01	3.56917e+02
3811	3.57549e+02	3.81100e+03	4.04227e-01	3.57583e+02
3819	3.58219e+02	3.81900e+03	3.91593e-01	3.58250e+02
3827	3.58870e+02	3.82700e+03	3.79151e-01	3.58917e+02
3835	3.59536e+02	3.83500e+03	3.66063e-01	3.59583e+02
3843	3.60196e+02	3.84300e+03	3.52943e-01	3.60250e+02
3851	3.60874e+02	3.85100e+03	3.39728e-01	3.60917e+02
3859	3.61539e+02	3.85900e+03	3.26636e-01	3.61583e+02
3867	3.62202e+02	3.86700e+03	3.13657e-01	3.62250e+02
3875	3.62867e+02	3.87500e+03	3.00856e-01	3.62917e+02
3883	3.63543e+02	3.88300e+03	2.88264e-01	3.63583e+02
3891	3.64192e+02	3.89100e+03	2.75860e-01	3.64250e+02
3899	3.64861e+02	3.89900e+03	2.63632e-01	3.64917e+02
3907	3.65533e+02	3.90700e+03	2.51386e-01	3.65583e+02
3915	3.66208e+02	3.91500e+03	2.39377e-01	3.66250e+02
3923	3.66869e+02	3.92300e+03	2.27872e-01	3.66917e+02
3931	3.67533e+02	3.93100e+03	2.16599e-01	3.67583e+02
3939	3.68199e+02	3.93900e+03	2.05487e-01	3.68250e+02
3947	3.68863e+02	3.94700e+03	1.94839e-01	3.68917e+02
3955	3.69531e+02	3.95500e+03	1.84345e-01	3.69583e+02
3963	3.70188e+02	3.96300e+03	1.74238e-01	3.70250e+02
3971	3.70868e+02	3.97100e+03	1.64562e-01	3.70917e+02
3979	3.71524e+02	3.97900e+03	1.55108e-01	3.71583e+02
3987	3.72186e+02	3.98700e+03	1.45950e-01	3.72250e+02
3995	3.72857e+02	3.99500e+03	1.37213e-01	3.72917e+02
4003	3.73516e+02	4.00300e+03	1.28930e-01	3.73583e+02
4011	3.74189e+02	4.01100e+03	1.20925e-01	3.74250e+02
4019	3.74849e+02	4.01900e+03	1.13126e-01	3.74917e+02
4027	3.75519e+02	4.02700e+03	1.05776e-01	3.75583e+02
4035	3.76191e+02	4.03500e+03	9.88949e-02	3.76250e+02
4043	3.76852e+02	4.04300e+03	9.21566e-02	3.76917e+02
4051	3.77523e+02	4.05100e+03	8.58646e-02	3.77583e+02
4059	3.78180e+02	4.05900e+03	7.98038e-02	3.78250e+02
4067	3.78850e+02	4.06700e+03	7.40433e-02	3.78917e+02
4075	3.79519e+02	4.07500e+03	6.87133e-02	3.79583e+02
4083	3.80174e+02	4.08300e+03	6.37251e-02	3.80250e+02
4091	3.80842e+02	4.09100e+03	5.88618e-02	3.80917e+02
4099	3.81511e+02	4.09900e+03	5.43442e-02	3.81583e+02
4107	3.82170e+02	4.10700e+03	5.01863e-02	3.82250e+02
4115	3.82847e+02	4.11500e+03	4.61447e-02	3.82917e+02
4123	3.83520e+02	4.12300e+03	4.23815e-02	3.83583e+02
4131	3.84178e+02	4.13100e+03	3.88511e-02	3.84250e+02
4139	3.84838e+02	4.13900e+03	3.54949e-02	3.84917e+02
4147	3.85511e+02	4.14700e+03	3.24810e-02	3.85583e+02
4155	3.86170e+02	4.15500e+03	2.96346e-02	3.86250e+02
4163	3.86832e+02	4.16300e+03	2.70027e-02	3.86917e+02
4171	3.87495e+02	4.17100e+03	2.46420e-02	3.87583e+02
4179	3.88157e+02	4.17900e+03	2.23485e-02	3.88250e+02
4187	3.88830e+02	4.18700e+03	2.01912e-02	3.88917e+02
4195	3.89501e+02	4.19500e+03	1.81171e-02	3.89583e+02
4203	3.90154e+02	4.20300e+03	1.62309e-02	3.90250e+02
4211	3.90824e+02	4.21100e+03	1.45093e-02	3.90917e+02
4219	3.91493e+02	4.21900e+03	1.27509e-02	3.91583e+02
4227	3.92146e+02	4.22700e+03	1.10599e-02	3.92250e+02
4235	3.92815e+02	4.23500e+03	9.86010e-03	3.92917e+02
4243	3.93481e+02	4.24300e+03	8.60455e-03	3.93583e+02
4251	3.94146e+02	4.25100e+03	7.38260e-03	3.94250e+02
4259	3.94811e+02	4.25900e+03	6.14554e-03	3.94917e+02
4267	3.95478e+02	4.26700e+03	5.11028e-03	3.95583e+02
4275	3.96135e+02	4.27500e+03	4.10373e-03	3.96250e+02
4283	3.96802e+02	4.28300e+03	3.22537e-03	3.96917e+02
4291	3.97481e+02	4.29100e+03	2.27728e-03	3.97583e+02
4299	3.98131e+02	4.29900e+03	1.51400e-03	3.98250e+02
4307	3.98794e+02	4.30700e+03	7.08079e-04	3.98917e+02
4315	3.99462e+02	4.31500e+03	-5.37282e-05	3.99583e+02
4323	4.00126e+02	4.32300e+03	-7.61285e-04	4.00250e+02
4331	4.00784e+02	4.33100e+03	-1.46660e-03	4.00917e+02
4339	4.01458e+02	4.33900e+03	-2.18413e-03	4.01583e+02
4347	4.02117e+02	4.34700e+03	-2.63567e-03	4.02250e+02
4355	4.02783e+02	4.35500e+03	-3.06691e-03	4.02917e+02
4363	4.03443e+02	4.36300e+03	-3.43257e-03	4.03583e+02
4371	4.04101e+02	4.37100e+03	-3.95229e-03	4.04250e+02
4379	4.04766e+02	4.37900e+03	-4.60970e-03	4.04917e+02
4387	4.05430e+02	4.38700e+03	-5.07289e-03	4.05583e+02
4395	4.06095e+02	4.39500e+03	-5.41836e-03	4.06250e+02
4403	4.06758e+02	4.40300e+03	-5.87469e-03	4.06917e+02
4411	4.07419e+02	4.41100e+03	-6.25355e-03	4.07583e+02
4419	4.08089e+02	4.41900e+03	-6.65317e-03	4.08250e+02
4427	4.08745e+02	4.42700e+03	-7.07684e-03	4.08917e+02
4435	4.09409e+02	4.43500e+03	-7.37832e-03	4.09583e+02
4443	4.10077e+02	4.44300e+03	-7.75077e-03	4.10250e+02
4451	4.10739e+02	4.45100e+03	-8.10852e-03	4.10917e+02
4459	4.11409e+02	4.45900e+03	-8.47694e-03	4.11583e+02
4467	4.12070e+02	4.46700e+03	-8.78211e-03	4.12250e+02
4475	4.12732e+02	4.47500e+03	-8.85244e-03	4.12917e+02
4483	4.13392e+02	4.48300e+03	-9.10736e-03	4.13583e+02
4491	4.14050e+02	4.49100e+03	-9.39885e-03	4.14250e+02
4499	4.14712e+02	4.49900e+03	-9.66955e-03	4.14917e+02
4507	4.15382e+02	4.50700e+03	-9.86273e-03	4.15583e+02
4515	4.16042e+02	4.51500e+03	-1.00413e-02	4.16250e+02
4523	4.16712e+02	4.52300e+03	-1.03092e-02	4.16917e+02
4531	4.17371e+02	4.53100e+03	-1.05106e-02	4.17583e+02
4539	4.18034e+02	4.53900e+03	-1.07789e-02	4.18250e+02
4547	4.18690e+02	4.54700e+03	-1.10088e-02	4.18917e+02
4555	4.19361e+02	4.55500e+03	-1.11686e-02	4.19583e+02
4563	4.20022e+02	4.56300e+03	-1.12837e-02	4.20250e+02
4571	4.20692e+02	4.57100e+03	-1.14448e-02	4.20917e+02
4579	4.21343e+02	4.57900e+03	-1.14526e-02	4.21583e+02
4587	4.22008e+02	4.58700e+03	-1.14716e-02	4.22250e+02
4595	4.22680e+02	4.59500e+03	-1.14875e-02	4.22917e+02
4603	4.23330e+02	4.60300e+03	-1.15332e-02	4.23583e+02
4611	4.23996e+02	4.61100e+03	-1.16594e-02	4.24250e+02
4619	4.24666e+02	4.61900e+03	-1.17234e-02	4.24917e+02
4627	4.25331e+02	4.62700e+03	-1.15698e-02	4.25583e+02
4635	4.25987e+02	4.63500e+03	-1.15584e-02	4.26250e+02
4643	4.26648e+02	4.64300e+03	-1.17851e-02	4.26917e+02
4651	4.27316e+02	4.65100e+03	-1.22237e-02	4.27583e+02
4659	4.27978e+02	4.65900e+03	-1.21021e-02	4.28250e+02
4667	4.28643e+02	4.66700e+03	-1.13256e-02	4.28917e+02
4675	4.29305e+02	4.67500e+03	-1.15343e-02	4.29583e+02
4683	4.29961e+02	4.68300e+03	-1.16989e-02	4.30250e+02
4691	4.30625e+02	4.69100e+03	-1.15363e-02	4.30917e+02
4699	4.31288e+02	4.69900e+03	-1.18790e-02	4.31583e+02
4707	4.31952e+02	4.70700e+03	-1.17097e-02	4.32250e+02
4715	4.32617e+02	4.71500e+03	-1.17702e-02	4.32917e+02
4723	4.33282e+02	4.72300e+03	-1.24866e-02	4.33583e+02
4731	4.33933e+02	4.73100e+03	-1.20429e-02	4.34250e+02
4739	4.34596e+02	4.73900e+03	-1.15347e-02	4.34917e+02
4747	4.35266e+02	4.74700e+03	-1.19724e-02	4.35583e+02
4755	4.35926e+02	4.75500e+03	-1.21253e-02	4.36250e+02
4763	4.36590e+02	4.76300e+03	-1.20187e-02	4.36917e+02
4771	4.37250e+02	4.77100e+03	-1.19557e-02	4.37583e+02
4779	4.37920e+02	4.77900e+03	-1.19365e-02	4.38250e+02
4787	4.38576e+02	4.78700e+03	-1.20529e-02	4.38917e+02
4795	4.39238e+02	4.79500e+03	-1.21444e-02	4.39583e+02
4803	4.39900e+02	4.80300e+03	-1.21358e-02	4.40250e+02
4811	4.40567e+02	4.81100e+03	-1.21316e-02	4.40917e+02
4819	4.41235e+02	4.81900e+03	-1.26943e-02	4.41583e+02
4827	4.41895e+02	4.82700e+03	-1.28234e-02	4.42250e+02
4835	4.42550e+02	4.83500e+03	-1.25391e-02	4.42917e+02
4843	4.43219e+02	4.84300e+03	-1.21900e-02	4.43583e+02
4851	4.43879e+02	4.85100e+03	-1.18995e-02	4.44250e+02
4859	4.44543e+02	4.85900e+03	-1.21751e-02	4.44917e+02
4867	4.45202e+02	4.86700e+03	-1.22112e-02	4.45583e+02
4875	4.45866e+02	4.87500e+03	-1.22068e-02	4.46250e+02
4883	4.46531e+02	4.88300e+03	-1.22152e-02	4.46917e+02
4891	4.47204e+02	4.89100e+03	-1.22401e-02	4.47583e+02
4899	4.47856e+02	4.89900e+03	-1.22778e-02	4.48250e+02
4907	4.48512e+02	4.90700e+03	-1.23342e-02	4.48917e+02
4915	4.49186e+02	4.91500e+03	-1.23185e-02	4.49583e+02
4923	4.49854e+02	4.92300e+03	-1.22816e-02	4.50250e+02
4931	4.50505e+02	4.93100e+03	-1.23611e-02	4.50917e+02
4939	4.51171e+02	4.93900e+03	-1.23141e-02	4.51583e+02
4947	4.51836e+02	4.94700e+03	-1.23120e-02	4.52250e+02
4955	4.52488e+02	4.95500e+03	-1.23294e-02	4.52917e+02
4963	4.53163e+02	4.96300e+03	-1.23292e-02	4.53583e+02
4971	4.53819e+02	4.97100e+03	-1.22680e-02	4.54250e+02
4979	4.54488e+02	4.97900e+03	-1.23087e-02	4.54917e+02
4987	4.55145e+02	4.98700e+03	-1.23777e-02	4.55583e+02
4995	4.55788e+02	4.99500e+03	-1.24381e-02	4.56250e+02
5003	4.56460e+02	5.00300e+03	-1.24959e-02	4.56917e+02
5011	4.57133e+02	5.01100e+03	-1.24490e-02	4.57583e+02
5019	4.57785e+02	5.01900e+03	-1.24622e-02	4.58250e+02
5027	4.58449e+02	5.02700e+03	-1.24952e-02	4.58917e+02
5035	4.59102e+02	5.03500e+03	-1.24679e-02	4.59583e+02
5043	4.59757e+02	5.04300e+03	-1.24789e-02	4.60250e+02
5051	4.60428e+02	5.05100e+03	-1.24107e-02	4.60917e+02
5059	4.61083e+02	5.05900e+03	-1.22990e-02	4.61583e+02
5067	4.61748e+02	5.06700e+03	-1.22643e-02	4.62250e+02
5075	4.62420e+02	5.07500e+03	-1.23036e-02	4.62917e+02
5083	4.63076e+02	5.08300e+03	-1.23494e-02	4.63583e+02
5091	4.63736e+02	5.09100e+03	-1.23206e-02	4.64250e+02
5099	4.64396e+02	5.09900e+03	-1.22403e-02	4.64917e+02
5107	4.65061e+02	5.10700e+03	-1.22098e-02	4.65583e+02
5115	4.65710e+02	5.11500e+03	-1.23090e-02	4.66250e+02
5123	4.66379e+02	5.12300e+03	-1.23390e-02	4.66917e+02
5131	4.67049e+02	5.13100e+03	-1.22478e-02	4.67583e+02
5139	4.67703e+02	5.13900e+03	-1.21938e-02	4.68250e+02
5147	4.68372e+02	5.14700e+03	-1.23550e-02	4.68917e+02
5155	4.69031e+02	5.15500e+03	-1.24326e-02	4.69583e+02
5163	4.69689e+02	5.16300e+03	-1.24256e-02	4.70250e+02
5171	4.70351e+02	5.17100e+03	-1.23446e-02	4.70917e+02
5179	4.71016e+02	5.17900e+03	-1.22747e-02	4.71583e+02
5187	4.71671e+02	5.18700e+03	-1.23764e-02	4.72250e+02
5195	4.72331e+02	5.19500e+03	-1.23170e-02	4.72917e+02
5203	4.72997e+02	5.20300e+03	-1.21744e-02	4.73583e+02
5211	4.73660e+02	5.21100e+03	-1.21741e-02	4.74250e+02
5219	4.74319e+02	5.21900e+03	-1.21754e-02	4.74917e+02
5227	4.74986e+02	5.22700e+03	-1.21231e-02	4.75583e+02
5235	4.75643e+02	5.23500e+03	-1.22090e-02	4.76250e+02
5243	4.76303e+02	5.24300e+03	-1.21439e-02	4.76917e+02
5251	4.76973e+02	5.25100e+03	-1.22662e-02	4.77583e+02
5259	4.77636e+02	5.25900e+03	-1.23431e-02	4.78250e+02
5267	4.78291e+02	5.26700e+03	-1.23752e-02	4.78917e+02
5275	4.78954e+02	5.27500e+03	-1.23723e-02	4.79583e+02
5283	4.79620e+02	5.28300e+03	-1.23886e-02	4.80250e+02
5291	4.80275e+02	5.29100e+03	-1.24367e-02	4.80917e+02
5299	4.80941e+02	5.29900e+03	-1.24743e-02	4.81583e+02
5307	4.81595e+02	5.30700e+03	-1.23908e-02	4.82250e+02
5315	4.82260e+02	5.31500e+03	-1.22772e-02	4.82917e+02
5323	4.82919e+02	5.32300e+03	-1.21421e-02	4.83583e+02
5331	4.83589e+02	5.33100e+03	-1.23191e-02	4.84250e+02
5339	4.84241e+02	5.33900e+03	-1.23863e-02	4.84917e+02
5347	4.84907e+02	5.34700e+03	-1.23258e-02	4.85583e+02
5355	4.85577e+02	5.35500e+03	-1.23580e-02	4.86250e+02
5363	4.86220e+02	5.36300e+03	-1.24500e-02	4.86917e+02
5371	4.86891e+02	5.37100e+03	-1.24629e-02	4.87583e+02
5379	4.87552e+02	5.37900e+03	-1.24419e-02	4.88250e+02
5387	4.88221e+02	5.38700e+03	-1.24526e-02	4.88917e+02
5395	4.88871e+02	5.39500e+03	-1.25025e-02	4.89583e+02
5403	4.89534e+02	5.40300e+03	-1.26471e-02	4.90250e+02
5411	4.90206e+02	5.41100e+03	-1.24526e-02	4.90917e+02
5419	4.90874e+02	5.41900e+03	-1.24535e-02	4.91583e+02
5427	4.91524e+02	5.42700e+03	-1.23738e-02	4.92250e+02
5435	4.92184e+02	5.43500e+03	-1.24028e-02	4.92917e+02
5443	4.92851e+02	5.44300e+03	-1.24465e-02	4.93583e+02
5451	4.93516e+02	5.45100e+03	-1.24524e-02	4.94250e+02
5459	4.94169e+02	5.45900e+03	-1.24911e-02	4.94917e+02
5467	4.94835e+02	5.46700e+03	-1.24794e-02	4.95583e+02
5475	4.95501e+02	5.47500e+03	-1.24501e-02	4.96250e+02
5483	4.96148e+02	5.48300e+03	-1.24605e-02	4.96917e+02
5491	4.96819e+02	5.49100e+03	-1.26036e-02	4.97583e+02
5499	4.97486e+02	5.49900e+03	-1.25831e-02	4.98250e+02
5507	4.98146e+02	5.50700e+03	-1.25436e-02	4.98917e+02
5515	4.98811e+02	5.51500e+03	-1.25955e-02	4.99583e+02
5523	4.99471e+02	5.52300e+03	-1.26398e-02	5.00250e+02
5531	5.00142e+02	5.53100e+03	-1.26573e-02	5.00917e+02
5539	5.00819e+02	5.53900e+03	-1.26721e-02	5.01583e+02
5547	5.01471e+02	5.54700e+03	-1.26460e-02	5.02250e+02
5555	5.02144e+02	5.55500e+03	-1.26271e-02	5.02917e+02
5563	5.02799e+02	5.56300e+03	-1.25424e-02	5.03583e+02
5571	5.03469e+02	5.57100e+03	-1.25808e-02	5.04250e+02
5579	5.04132e+02	5.57900e+03	-1.26341e-02	5.04917e+02
5587	5.04789e+02	5.58700e+03	-1.25967e-02	5.05583e+02
5595	5.05448e+02	5.59500e+03	-1.25888e-02	5.06250e+02
5603	5.06116e+02	5.60300e+03	-1.26186e-02	5.06917e+02
5611	5.06777e+02	5.61100e+03	-1.26647e-02	5.07583e+02
5619	5.07445e+02	5.61900e+03	-1.26071e-02	5.08250e+02
5627	5.08109e+02	5.62700e+03	-1.24499e-02	5.08917e+02
5635	5.08771e+02	5.63500e+03	-1.24496e-02	5.09583e+02
5643	5.09438e+02	5.64300e+03	-1.25518e-02	5.10250e+02
5651	5.10107e+02	5.65100e+03	-1.26094e-02	5.10917e+02
5659	5.10776e+02	5.65900e+03	-1.25014e-02	5.11583e+02
5667	5.11438e+02	5.66700e+03	-1.25087e-02	5.12250e+02
5675	5.12090e+02	5.67500e+03	-1.25312e-02	5.12917e+02
5683	5.12764e+02	5.68300e+03	-1.24891e-02	5.13583e+02
5691	5.13421e+02	5.69100e+03	-1.24767e-02	5.14250e+02
5699	5.14088e+02	5.69900e+03	-1.25051e-02	5.14917e+02
5707	5.14760e+02	5.70700e+03	-1.25098e-02	5.15583e+02
5715	5.15416e+02	5.71500e+03	-1.24046e-02	5.16250e+02
5723	5.16079e+02	5.72300e+03	-1.23969e-02	5.16917e+02
5731	5.16741e+02	5.73100e+03	-1.24322e-02	5.17583e+02
5739	5.17409e+02	5.73900e+03	-1.24276e-02	5.18250e+02
5747	5.18077e+02	5.74700e+03	-1.24952e-02	5.18917e+02
5755	5.18744e+02	5.75500e+03	-1.24982e-02	5.19583e+02
5763	5.19406e+02	5.76300e+03	-1.25144e-02	5.20250e+02
5771	5.20065e+02	5.77100e+03	-1.25542e-02	5.20917e+02
5779	5.20723e+02	5.77900e+03	-1.25692e-02	5.21583e+02
5787	5.21393e+02	5.78700e+03	-1.24591e-02	5.22250e+02
5795	5.22063e+02	5.79500e+03	-1.26433e-02	5.22917e+02
5803	5.22726e+02	5.80300e+03	-1.25304e-02	5.23583e+02
5811	5.23404e+02	5.81100e+03	-1.26327e-02	5.24250e+02
5819	5.24059e+02	5.81900e+03	-1.25879e-02	5.24917e+02
5827	5.24724e+02	5.82700e+03	-1.25961e-02	5.25583e+02
5835	5.25377e+02	5.83500e+03	-1.26657e-02	5.26250e+02
5843	5.26057e+02	5.84300e+03	-1.26474e-02	5.26917e+02
5851	5.26711e+02	5.85100e+03	-1.26965e-02	5.27583e+02
5859	5.27384e+02	5.85900e+03	-1.26913e-02	5.28250e+02
5867	5.28033e+02	5.86700e+03	-1.27218e-02	5.28917e+02
5875	5.28703e+02	5.87500e+03	-1.26690e-02	5.29583e+02
5883	5.29374e+02	5.88300e+03	-1.26272e-02	5.30250e+02
5891	5.30028e+02	5.89100e+03	-1.24564e-02	5.30917e+02
5899	5.30698e+02	5.89900e+03	-1.24859e-02	5.31583e+02
5907	5.31366e+02	5.90700e+03	-1.25127e-02	5.32250e+02
5915	5.32026e+02	5.91500e+03	-1.26317e-02	5.32917e+02
5923	5.32693e+02	5.92300e+03	-1.27067e-02	5.33583e+02
5931	5.33359e+02	5.93100e+03	-1.27947e-02	5.34250e+02
5939	5.34031e+02	5.93900e+03	-1.27842e-02	5.34917e+02
5947	5.34683e+02	5.94700e+03	-1.26624e-02	5.35583e+02
5955	5.35356e+02	5.95500e+03	-1.26767e-02	5.36250e+02
5963	5.36024e+02	5.96300e+03	-1.26213e-02	5.36917e+02
5971	5.36698e+02	5.97100e+03	-1.26170e-02	5.37583e+02
5979	5.37354e+02	5.97900e+03	-1.26058e-02	5.38250e+02
5987	5.38011e+02	5.98700e+03	-1.26622e-02	5.38917e+02
5995	5.38682e+02	5.99500e+03	-1.26901e-02	5.39583e+02
6003	5.39351e+02	6.00300e+03	-1.26515e-02	5.40250e+02
6011	5.40012e+02	6.01100e+03	-1.26372e-02	5.40917e+02
6019	5.40677e+02	6.01900e+03	-1.26441e-02	5.41583e+02
6027	5.41340e+02	6.02700e+03	-1.27009e-02	5.42250e+02
6035	5.42010e+02	6.03500e+03	-1.28282e-02	5.42917e+02
6043	5.42673e+02	6.04300e+03	-1.28194e-02	5.43583e+02
6051	5.43329e+02	6.05100e+03	-1.28539e-02	5.44250e+02
6059	5.43999e+02	6.05900e+03	-1.27572e-02	5.44917e+02
6067	5.44662e+02	6.06700e+03	-1.26786e-02	5.45583e+02
6075	5.45332e+02	6.07500e+03	-1.26057e-02	5.46250e+02
6083	5.45986e+02	6.08300e+03	-1.25036e-02	5.46917e+02
6091	5.46663e+02	6.09100e+03	-1.26964e-02	5.47583e+02
6099	5.47329e+02	6.09900e+03	-1.27774e-02	5.48250e+02
6107	5.48006e+02	6.10700e+03	-1.27714e-02	5.48917e+02
6115	5.48652e+02	6.11500e+03	-1.27866e-02	5.49583e+02
6123	5.49322e+02	6.12300e+03	-1.27589e-02	5.50250e+02
6131	5.49982e+02	6.13100e+03	-1.26937e-02	5.50917e+02
6139	5.50656e+02	6.13900e+03	-1.27328e-02	5.51583e+02
6147	5.51320e+02	6.14700e+03	-1.27642e-02	5.52250e+02
6155	5.51990e+02	6.15500e+03	-1.27152e-02	5.52917e+02
6163	5.52649e+02	6.16300e+03	-1.27641e-02	5.53583e+02
6171	5.53318e+02	6.17100e+03	-1.28343e-02	5.54250e+02
6179	5.53991e+02	6.17900e+03	-1.26922e-02	5.54917e+02
6187	5.54661e+02	6.18700e+03	-1.26019e-02	5.55583e+02
6195	5.55325e+02	6.19500e+03	-1.27284e-02	5.56250e+02
6203	5.55984e+02	6.20300e+03	-1.27877e-02	5.56917e+02
6211	5.56659e+02	6.21100e+03	-1.26944e-02	5.57583e+02
6219	5.57327e+02	6.21900e+03	-1.25975e-02	5.58250e+02
6227	5.57987e+02	6.22700e+03	-1.27044e-02	5.58917e+02
6235	5.58654e+02	6.23500e+03	-1.27418e-02	5.59583e+02
6243	5.59313e+02	6.24300e+03	-1.28285e-02	5.60250e+02
6251	5.59983e+02	6.25100e+03	-1.28224e-02	5.60917e+02
6259	5.60653e+02	6.25900e+03	-1.28525e-02	5.61583e+02
6267	5.61313e+02	6.26700e+03	-1.27406e-02	5.62250e+02
6275	5.61982e+02	6.27500e+03	-1.26889e-02	5.62917e+02
6283	5.62648e+02	6.28300e+03	-1.28031e-02	5.63583e+02
6291	5.63315e+02	6.29100e+03	-1.29094e-02	5.64250e+02
6299	5.63983e+02	6.29900e+03	-1.28519e-02	5.64917e+02
6307	5.64645e+02	6.30700e+03	-1.29750e-02	5.65583e+02
6315	5.65299e+02	6.31500e+03	-1.29568e-02	5.66250e+02
6323	5.65973e+02	6.32300e+03	-1.28906e-02	5.66917e+02
6331	5.66639e+02	6.33100e+03	-1.29199e-02	5.67583e+02
6339	5.67310e+02	6.33900e+03	-1.29293e-02	5.68250e+02
6347	5.67970e+02	6.34700e+03	-1.28882e-02	5.68917e+02
6355	5.68645e+02	6.35500e+03	-1.28403e-02	5.69583e+02
6363	5.69296e+02	6.36300e+03	-1.28727e-02	5.70250e+02
6371	5.69968e+02	6.37100e+03	-1.27922e-02	5.70917e+02
6379	5.70634e+02	6.37900e+03	-1.27351e-02	5.71583e+02
6387	5.71295e+02	6.38700e+03	-1.26612e-02	5.72250e+02
6395	5.71956e+02	6.39500e+03	-1.26461e-02	5.72917e+02
6403	5.72625e+02	6.40300e+03	-1.27190e-02	5.73583e+02
6411	5.73298e+02	6.41100e+03	-1.26365e-02	5.74250e+02
6419	5.73974e+02	6.41900e+03	-1.25242e-02	5.74917e+02
6427	5.74638e+02	6.42700e+03	-1.26606e-02	5.75583e+02
6435	5.75314e+02	6.43500e+03	-1.28214e-02	5.76250e+02
6443	5.75971e+02	6.44300e+03	-1.27970e-02	5.76917e+02
6451	5.76634e+02	6.45100e+03	-1.27464e-02	5.77583e+02
6459	5.77308e+02	6.45900e+03	-1.27961e-02	5.78250e+02
6467	5.77971e+02	6.46700e+03	-1.27978e-02	5.78917e+02
6475	5.78640e+02	6.47500e+03	-1.28429e-02	5.79583e+02
6483	5.79303e+02	6.48300e+03	-1.28143e-02	5.80250e+02
6491	5.79959e+02	6.49100e+03	-1.28097e-02	5.80917e+02
6499	5.80637e+02	6.49900e+03	-1.28635e-02	5.81583e+02
6507	5.81298e+02	6.50700e+03	-1.28272e-02	5.82250e+02
6515	5.81962e+02	6.51500e+03	-1.28112e-02	5.82917e+02
6523	5.82632e+02	6.52300e+03	-1.27148e-02	5.83583e+02
6531	5.83300e+02	6.53100e+03	-1.26559e-02	5.84250e+02
6539	5.83965e+02	6.53900e+03	-1.27258e-02	5.84917e+02
6547	5.84643e+02	6.54700e+03	-1.27717e-02	5.85583e+02
6555	5.85303e+02	6.55500e+03	-1.28916e-02	5.86250e+02
6563	5.85969e+02	6.56300e+03	-1.29262e-02	5.86917e+02
6571	5.86620e+02	6.57100e+03	-1.29473e-02	5.87583e+02
6579	5.87291e+02	6.57900e+03	-1.30303e-02	5.88250e+02
6587	5.87963e+02	6.58700e+03	-1.29231e-02	5.88917e+02
6595	5.88629e+02	6.59500e+03	-1.28922e-02	5.89583e+02
6603	5.89296e+02	6.60300e+03	-1.29575e-02	5.90250e+02
6611	5.89972e+02	6.61100e+03	-1.30165e-02	5.90917e+02
6619	5.90625e+02	6.61900e+03	-1.30200e-02	5.91583e+02
6627	5.91295e+02	6.62700e+03	-1.30321e-02	5.92250e+02
6635	5.91968e+02	6.63500e+03	-1.30307e-02	5.92917e+02
6643	5.92637e+02	6.64300e+03	-1.30518e-02	5.93583e+02
6651	5.93308e+02	6.65100e+03	-1.29618e-02	5.94250e+02
6659	5.93956e+02	6.65900e+03	-1.28930e-02	5.94917e+02
6667	5.94632e+02	6.66700e+03	-1.29954e-02	5.95583e+02
6675	5.95306e+02	6.67500e+03	-1.31233e-02	5.96250e+02
6683	5.95963e+02	6.68300e+03	-1.31521e-02	5.96917e+02
6691	5.96624e+02	6.69100e+03	-1.30962e-02	5.97583e+02
6699	5.97311e+02	6.69900e+03	-1.30340e-02	5.98250e+02
6707	5.97979e+02	6.70700e+03	-1.29694e-02	5.98917e+02
6715	5.98646e+02	6.71500e+03	-1.29624e-02	5.99583e+02
6723	5.99315e+02	6.72300e+03	-1.29626e-02	6.00250e+02
6731	5.99974e+02	6.73100e+03	-1.29501e-02	6.00917e+02
6739	6.00640e+02	6.73900e+03	-1.30156e-02	6.01583e+02
6747	6.01311e+02	6.74700e+03	-1.31154e-02	6.02250e+02
6755	6.01968e+02	6.75500e+03	-1.30721e-02	6.02917e+02
6763	6.02646e+02	6.76300e+03	-1.30738e-02	6.03583e+02
6771	6.03304e+02	6.77100e+03	-1.32181e-02	6.04250e+02
6779	6.03979e+02	6.77900e+03	-1.32812e-02	6.04917e+02
6787	6.04638e+02	6.78700e+03	-1.32095e-02	6.05583e+02
6795	6.05304e+02	6.79500e+03	-1.31953e-02	6.06250e+02
6803	6.05973e+02	6.80300e+03	-1.32438e-02	6.06917e+02
6811	6.06651e+02	6.81100e+03	-1.32723e-02	6.07583e+02
6819	6.07305e+02	6.81900e+03	-1.31931e-02	6.08250e+02
6827	6.07972e+02	6.82700e+03	-1.31886e-02	6.08917e+02
6835	6.08641e+02	6.83500e+03	-1.32471e-02	6.09583e+02
6843	6.09325e+02	6.84300e+03	-1.32467e-02	6.10250e+02
6851	6.10005e+02	6.85100e+03	-1.32091e-02	6.10917e+02
6859	6.10663e+02	6.85900e+03	-1.31921e-02	6.11583e+02
6867	6.11331e+02	6.86700e+03	-1.31456e-02	6.12250e+02
6875	6.12014e+02	6.87500e+03	-1.31265e-02	6.12917e+02
6883	6.12678e+02	6.88300e+03	-1.32056e-02	6.13583e+02
6891	6.13349e+02	6.89100e+03	-1.31903e-02	6.14250e+02
6899	6.14019e+02	6.89900e+03	-1.31943e-02	6.14917e+02
6907	6.14682e+02	6.90700e+03	-1.31680e-02	6.15583e+02
6915	6.15347e+02	6.91500e+03	-1.33151e-02	6.16250e+02
6923	6.16024e+02	6.92300e+03	-1.33746e-02	6.16917e+02
6931	6.16688e+02	6.93100e+03	-1.33167e-02	6.17583e+02
6939	6.17352e+02	6.93900e+03	-1.31612e-02	6.18250e+02
6947	6.18020e+02	6.94700e+03	-1.32790e-02	6.18917e+02
6955	6.18691e+02	6.95500e+03	-1.32712e-02	6.19583e+02
6963	6.19360e+02	6.96300e+03	-1.32284e-02	6.20250e+02
6971	6.20021e+02	6.97100e+03	-1.32010e-02	6.20917e+02
6979	6.20676e+02	6.97900e+03	-1.32898e-02	6.21583e+02
6987	6.21346e+02	6.98700e+03	-1.32731e-02	6.22250e+02
6995	6.22019e+02	6.99500e+03	-1.32148e-02	6.22917e+02
7003	6.22673e+02	7.00300e+03	-1.32494e-02	6.23583e+02
7011	6.23353e+02	7.01100e+03	-1.33790e-02	6.24250e+02
7019	6.24020e+02	7.01900e+03	-1.34351e-02	6.24917e+02
7027	6.24688e+02	7.02700e+03	-1.33583e-02	6.25583e+02
7035	6.25353e+02	7.03500e+03	-1.32568e-02	6.26250e+02
7043	6.26014e+02	7.04300e+03	-1.32730e-02	6.26917e+02
7051	6.26695e+02	7.05100e+03	-1.33983e-02	6.27583e+02
7059	6.27360e+02	7.05900e+03	-1.34225e-02	6.28250e+02
7067	6.28029e+02	7.06700e+03	-1.33461e-02	6.28917e+02
7075	6.28690e+02	7.07500e+03	-1.33010e-02	6.29583e+02
7083	6.29356e+02	7.08300e+03	-1.32232e-02	6.30250e+02
7091	6.30031e+02	7.09100e+03	-1.33150e-02	6.30917e+02
7099	6.30694e+02	7.09900e+03	-1.33992e-02	6.31583e+02
7107	6.31369e+02	7.10700e+03	-1.32548e-02	6.32250e+02
7115	6.32035e+02	7.11500e+03	-1.32176e-02	6.32917e+02
7123	6.32701e+02	7.12300e+03	-1.32780e-02	6.33583e+02
7131	6.33382e+02	7.13100e+03	-1.32844e-02	6.34250e+02
7139	6.34049e+02	7.13900e+03	-1.32855e-02	6.34917e+02
7147	6.34715e+02	7.14700e+03	-1.32875e-02	6.35583e+02
7155	6.35395e+02	7.15500e+03	-1.35269e-02	6.36250e+02
7163	6.36060e+02	7.16300e+03	-1.36296e-02	6.36917e+02
7171	6.36721e+02	7.17100e+03	-1.33635e-02	6.37583e+02
7179	6.37383e+02	7.17900e+03	-1.33601e-02	6.38250e+02
7187	6.38053e+02	7.18700e+03	-1.33249e-02	6.38917e+02
7195	6.38724e+02	7.19500e+03	-1.34529e-02	6.39583e+02
7203	6.39388e+02	7.20300e+03	-1.35270e-02	6.40250e+02
7211	6.40071e+02	7.21100e+03	-1.34722e-02	6.40917e+02
7219	6.40745e+02	7.21900e+03	-1.34905e-02	6.41583e+02
7227	6.41405e+02	7.22700e+03	-1.34234e-02	6.42250e+02
7235	6.42084e+02	7.23500e+03	-1.34787e-02	6.42917e+02
7243	6.42745e+02	7.24300e+03	-1.34240e-02	6.43583e+02
7251	6.43420e+02	7.25100e+03	-1.34760e-02	6.44250e+02
7259	6.44087e+02	7.25900e+03	-1.34304e-02	6.44917e+02
7267	6.44751e+02	7.26700e+03	-1.34852e-02	6.45583e+02
7275	6.45418e+02	7.27500e+03	-1.33838e-02	6.46250e+02
7283	6.46091e+02	7.28300e+03	-1.33675e-02	6.46917e+02
7291	6.46759e+02	7.29100e+03	-1.34878e-02	6.47583e+02
7299	6.47426e+02	7.29900e+03	-1.35224e-02	6.48250e+02
7307	6.48085e+02	7.30700e+03	-1.34339e-02	6.48917e+02
7315	6.48765e+02	7.31500e+03	-1.34305e-02	6.49583e+02
7323	6.49430e+02	7.32300e+03	-1.33627e-02	6.50250e+02
7331	6.50099e+02	7.33100e+03	-1.33460e-02	6.50917e+02
7339	6.50767e+02	7.33900e+03	-1.33529e-02	6.51583e+02
7347	6.51444e+02	7.34700e+03	-1.33503e-02	6.52250e+02
7355	6.52107e+02	7.35500e+03	-1.32498e-02	6.52917e+02
7363	6.52781e+02	7.36300e+03	-1.33788e-02	6.53583e+02
7371	6.53438e+02	7.37100e+03	-1.34129e-02	6.54250e+02
7379	6.54113e+02	7.37900e+03	-1.33712e-02	6.54917e+02
7387	6.54773e+02	7.38700e+03	-1.34527e-02	6.55583e+02
7395	6.55446e+02	7.39500e+03	-1.34800e-02	6.56250e+02
7403	6.56116e+02	7.40300e+03	-1.34208e-02	6.56917e+02
7411	6.56779e+02	7.41100e+03	-1.33709e-02	6.57583e+02
7419	6.57462e+02	7.41900e+03	-1.33584e-02	6.58250e+02
7427	6.58123e+02	7.42700e+03	-1.34475e-02	6.58917e+02
7435	6.58787e+02	7.43500e+03	-1.34344e-02	6.59583e+02
7443	6.59462e+02	7.44300e+03	-1.34232e-02	6.60250e+02
7451	6.60124e+02	7.45100e+03	-1.34762e-02	6.60917e+02
7459	6.60796e+02	7.45900e+03	-1.34805e-02	6.61583e+02
7467	6.61459e+02	7.46700e+03	-1.34148e-02	6.62250e+02
7475	6.62134e+02	7.47500e+03	-1.34065e-02	6.62917e+02
7483	6.62801e+02	7.48300e+03	-1.35820e-02	6.63583e+02
7491	6.63466e+02	7.49100e+03	-1.35740e-02	6.64250e+02
7499	6.64132e+02	7.49900e+03	-1.33992e-02	6.64917e+02
7507	6.64804e+02	7.50700e+03	-1.33845e-02	6.65583e+02
7515	6.65475e+02	7.51500e+03	-1.33517e-02	6.66250e+02
7523	6.66141e+02	7.52300e+03	-1.33153e-02	6.66917e+02
7531	6.66814e+02	7.53100e+03	-1.32963e-02	6.67583e+02
7539	6.67486e+02	7.53900e+03	-1.33680e-02	6.68250e+02
7547	6.68156e+02	7.54700e+03	-1.31833e-02	6.68917e+02
7555	6.68821e+02	7.55500e+03	-1.31396e-02	6.69583e+02
7563	6.69493e+02	7.56300e+03	-1.31840e-02	6.70250e+02
7571	6.70163e+02	7.57100e+03	-1.32155e-02	6.70917e+02
7579	6.70832e+02	7.57900e+03	-1.31971e-02	6.71583e+02
7587	6.71497e+02	7.58700e+03	-1.31819e-02	6.72250e+02
7595	6.72157e+02	7.59500e+03	-1.30952e-02	6.72917e+02
7603	6.72818e+02	7.60300e+03	-1.31786e-02	6.73583e+02
7611	6.73482e+02	7.61100e+03	-1.32811e-02	6.74250e+02
7619	6.74153e+02	7.61900e+03	-1.32083e-02	6.74917e+02
7627	6.74813e+02	7.62700e+03	-1.31900e-02	6.75583e+02
7635	6.75482e+02	7.63500e+03	-1.33387e-02	6.76250e+02
7643	6.76159e+02	7.64300e+03	-1.33333e-02	6.76917e+02
7651	6.76810e+02	7.65100e+03	-1.33187e-02	6.77583e+02
7659	6.77497e+02	7.65900e+03	-1.32724e-02	6.78250e+02
7667	6.78159e+02	7.66700e+03	-1.32042e-02	6.78917e+02
7675	6.78826e+02	7.67500e+03	-1.31420e-02	6.79583e+02
7683	6.79490e+02	7.68300e+03	-1.31359e-02	6.80250e+02
7691	6.80157e+02	7.69100e+03	-1.32134e-02	6.80917e+02
7699	6.80830e+02	7.69900e+03	-1.32118e-02	6.81583e+02
7707	6.81500e+02	7.70700e+03	-1.32445e-02	6.82250e+02
7715	6.82165e+02	7.71500e+03	-1.32829e-02	6.82917e+02
7723	6.82836e+02	7.72300e+03	-1.33651e-02	6.83583e+02
7731	6.83506e+02	7.73100e+03	-1.32769e-02	6.84250e+02
7739	6.84170e+02	7.73900e+03	-1.31891e-02	6.84917e+02
7747	6.84842e+02	7.74700e+03	-1.31416e-02	6.85583e+02
7755	6.85510e+02	7.75500e+03	-1.31006e-02	6.86250e+02
7763	6.86183e+02	7.76300e+03	-1.29980e-02	6.86917e+02
7771	6.86850e+02	7.77100e+03	-1.29688e-02	6.87583e+02
7779	6.87530e+02	7.77900e+03	-1.29995e-02	6.88250e+02
7787	6.88197e+02	7.78700e+03	-1.29605e-02	6.88917e+02
7795	6.88863e+02	7.79500e+03	-1.30125e-02	6.89583e+02
7803	6.89538e+02	7.80300e+03	-1.30149e-02	6.90250e+02
7811	6.90209e+02	7.81100e+03	-1.30983e-02	6.90917e+02
7819	6.90879e+02	7.81900e+03	-1.29839e-02	6.91583e+02
7827	6.91548e+02	7.82700e+03	-1.29202e-02	6.92250e+02
7835	6.92220e+02	7.83500e+03	-1.29527e-02	6.92917e+02
7843	6.92885e+02	7.84300e+03	-1.29192e-02	6.93583e+02
7851	6.93553e+02	7.85100e+03	-1.28551e-02	6.94250e+02
7859	6.94219e+02	7.85900e+03	-1.29925e-02	6.94917e+02
7867	6.94891e+02	7.86700e+03	-1.31482e-02	6.95583e+02
7875	6.95570e+02	7.87500e+03	-1.31847e-02	6.96250e+02
7883	6.96233e+02	7.88300e+03	-1.30895e-02	6.96917e+02
7891	6.96905e+02	7.89100e+03	-1.30121e-02	6.97583e+02
7899	6.97412e+02	7.89900e+03	-1.28862e-02	6.98250e+02
7907	6.97852e+02	7.90700e+03	-1.29207e-02	6.98917e+02
7915	6.98195e+02	7.91500e+03	-1.30670e-02	6.99583e+02
7920	6.98387e+02	7.92000e+03	-1.30987e-02	7.00000e+02