File: Experiments/TUBS/tga_nonisotherm/tga_dynamic_n2low30_dyn30_piece_3mg_r1.txt
Index	Ts	t	Weight	Tr
[#]	[°C]	[s]	[mg]	[°C]
680	1.30063e+02	6.80000e+02	2.98502	130.0
682	1.31080e+02	6.82000e+02	2.98492	131.0
684	1.32143e+02	6.84000e+02	2.9848	132.0
686	1.33139e+02	6.86000e+02	2.9847	133.0
688	1.34158e+02	6.88000e+02	2.98463	134.0
690	1.35165e+02	6.90000e+02	2.98459	135.0
692	1.36209e+02	6.92000e+02	2.98457	136.0
694	1.37222e+02	6.94000e+02	2.98454	137.0
696	1.38256e+02	6.96000e+02	2.98451	138.0
698	1.39263e+02	6.98000e+02	2.98448	139.0
700	1.40270e+02	7.00000e+02	2.98446	140.0
702	1.41273e+02	7.02000e+02	2.98444	141.0
704	1.42284e+02	7.04000e+02	2.98443	142.0
706	1.43291e+02	7.06000e+02	2.98442	143.0
708	1.44305e+02	7.08000e+02	2.98439	144.0
710	1.45320e+02	7.10000e+02	2.98435	145.0
712	1.46334e+02	7.12000e+02	2.98428	146.0
714	1.47357e+02	7.14000e+02	2.9842	147.0
716	1.48360e+02	7.16000e+02	2.98412	148.0
718	1.49382e+02	7.18000e+02	2.98405	149.0
720	1.50378e+02	7.20000e+02	2.98399	150.0
722	1.51414e+02	7.22000e+02	2.98394	151.0
724	1.52419e+02	7.24000e+02	2.98388	152.0
726	1.53441e+02	7.26000e+02	2.98381	153.0
728	1.54455e+02	7.28000e+02	2.98373	154.0
730	1.55464e+02	7.30000e+02	2.98364	155.0
732	1.56486e+02	7.32000e+02	2.98355	156.0
734	1.57506e+02	7.34000e+02	2.98346	157.0
736	1.58524e+02	7.36000e+02	2.98338	158.0
738	1.59546e+02	7.38000e+02	2.98332	159.0
740	1.60572e+02	7.40000e+02	2.98329	160.0
742	1.61570e+02	7.42000e+02	2.98324	161.0
744	1.62589e+02	7.44000e+02	2.98319	162.0
746	1.63614e+02	7.46000e+02	2.98311	163.0
748	1.64634e+02	7.48000e+02	2.98299	164.0
750	1.65639e+02	7.50000e+02	2.98288	165.0
752	1.66669e+02	7.52000e+02	2.98276	166.0
754	1.67689e+02	7.54000e+02	2.98264	167.0
756	1.68708e+02	7.56000e+02	2.98254	168.0
758	1.69726e+02	7.58000e+02	2.98242	169.0
760	1.70745e+02	7.60000e+02	2.98231	170.0
762	1.71768e+02	7.62000e+02	2.9822	171.0
764	1.72784e+02	7.64000e+02	2.98211	172.0
766	1.73811e+02	7.66000e+02	2.98202	173.0
768	1.74832e+02	7.68000e+02	2.98194	174.0
770	1.75848e+02	7.70000e+02	2.98185	175.0
772	1.76864e+02	7.72000e+02	2.98175	176.0
774	1.77888e+02	7.74000e+02	2.98164	177.0
776	1.78900e+02	7.76000e+02	2.98152	178.0
778	1.79928e+02	7.78000e+02	2.98142	179.0
780	1.80954e+02	7.80000e+02	2.98131	180.0
782	1.81981e+02	7.82000e+02	2.9812	181.0
784	1.83009e+02	7.84000e+02	2.98108	182.0
786	1.84041e+02	7.86000e+02	2.98096	183.0
788	1.85039e+02	7.88000e+02	2.98084	184.0
790	1.86070e+02	7.90000e+02	2.98069	185.0
792	1.87094e+02	7.92000e+02	2.9805	186.0
794	1.88113e+02	7.94000e+02	2.98029	187.0
796	1.89126e+02	7.96000e+02	2.98005	188.0
798	1.90154e+02	7.98000e+02	2.97982	189.0
800	1.91177e+02	8.00000e+02	2.97959	190.0
802	1.92196e+02	8.02000e+02	2.97934	191.0
804	1.93226e+02	8.04000e+02	2.97904	192.0
806	1.94245e+02	8.06000e+02	2.97872	193.0
808	1.95264e+02	8.08000e+02	2.97835	194.0
810	1.96287e+02	8.10000e+02	2.97795	195.0
812	1.97285e+02	8.12000e+02	2.97752	196.0
814	1.98295e+02	8.14000e+02	2.97709	197.0
816	1.99297e+02	8.16000e+02	2.97666	198.0
818	2.00314e+02	8.18000e+02	2.97622	199.0
820	2.01312e+02	8.20000e+02	2.97576	200.0
822	2.02321e+02	8.22000e+02	2.97526	201.0
824	2.03335e+02	8.24000e+02	2.97471	202.0
826	2.04350e+02	8.26000e+02	2.97414	203.0
828	2.05356e+02	8.28000e+02	2.97355	204.0
830	2.06369e+02	8.30000e+02	2.97295	205.0
832	2.07369e+02	8.32000e+02	2.97236	206.0
834	2.08378e+02	8.34000e+02	2.97174	207.0
836	2.09405e+02	8.36000e+02	2.9711	208.0
838	2.10432e+02	8.38000e+02	2.97045	209.0
840	2.11465e+02	8.40000e+02	2.96979	210.0
842	2.12478e+02	8.42000e+02	2.96912	211.0
844	2.13559e+02	8.44000e+02	2.96844	212.0
846	2.14597e+02	8.46000e+02	2.96775	213.0
848	2.15662e+02	8.48000e+02	2.96701	214.0
850	2.16869e+02	8.50000e+02	2.96624	215.0
852	2.18019e+02	8.52000e+02	2.96545	216.0
854	2.19105e+02	8.54000e+02	2.96469	217.0
856	2.20181e+02	8.56000e+02	2.96396	218.0
858	2.21257e+02	8.58000e+02	2.96326	219.0
860	2.22320e+02	8.60000e+02	2.96259	220.0
862	2.23362e+02	8.62000e+02	2.96189	221.0
864	2.24408e+02	8.64000e+02	2.96117	222.0
866	2.25444e+02	8.66000e+02	2.96044	223.0
868	2.26519e+02	8.68000e+02	2.95971	224.0
870	2.27532e+02	8.70000e+02	2.95898	225.0
872	2.28536e+02	8.72000e+02	2.95824	226.0
874	2.29525e+02	8.74000e+02	2.95749	227.0
876	2.30535e+02	8.76000e+02	2.95673	228.0
878	2.31556e+02	8.78000e+02	2.95597	229.0
880	2.32580e+02	8.80000e+02	2.95521	230.0
882	2.33609e+02	8.82000e+02	2.95444	231.0
884	2.34646e+02	8.84000e+02	2.95363	232.0
886	2.35666e+02	8.86000e+02	2.95281	233.0
888	2.36689e+02	8.88000e+02	2.95197	234.0
890	2.37700e+02	8.90000e+02	2.95115	235.0
892	2.38717e+02	8.92000e+02	2.95034	236.0
894	2.39751e+02	8.94000e+02	2.94954	237.0
896	2.40776e+02	8.96000e+02	2.94875	238.0
898	2.41800e+02	8.98000e+02	2.94794	239.0
900	2.42827e+02	9.00000e+02	2.94711	240.0
902	2.43860e+02	9.02000e+02	2.94625	241.0
904	2.44914e+02	9.04000e+02	2.94535	242.0
906	2.45924e+02	9.06000e+02	2.94445	243.0
908	2.46970e+02	9.08000e+02	2.94356	244.0
910	2.48018e+02	9.10000e+02	2.94266	245.0
912	2.49081e+02	9.12000e+02	2.94176	246.0
914	2.50131e+02	9.14000e+02	2.94088	247.0
916	2.51156e+02	9.16000e+02	2.93999	248.0
918	2.52188e+02	9.18000e+02	2.93909	249.0
920	2.53225e+02	9.20000e+02	2.93816	250.0
922	2.54241e+02	9.22000e+02	2.93722	251.0
924	2.55271e+02	9.24000e+02	2.93627	252.0
926	2.56308e+02	9.26000e+02	2.93532	253.0
928	2.57346e+02	9.28000e+02	2.93439	254.0
930	2.58376e+02	9.30000e+02	2.93346	255.0
932	2.59422e+02	9.32000e+02	2.93252	256.0
934	2.60451e+02	9.34000e+02	2.93154	257.0
936	2.61495e+02	9.36000e+02	2.93053	258.0
938	2.62521e+02	9.38000e+02	2.92951	259.0
940	2.63565e+02	9.40000e+02	2.92849	260.0
942	2.64604e+02	9.42000e+02	2.92747	261.0
944	2.65635e+02	9.44000e+02	2.92645	262.0
946	2.66671e+02	9.46000e+02	2.92543	263.0
948	2.67709e+02	9.48000e+02	2.92439	264.0
950	2.68741e+02	9.50000e+02	2.92335	265.0
952	2.69762e+02	9.52000e+02	2.9223	266.0
954	2.70777e+02	9.54000e+02	2.92125	267.0
956	2.71818e+02	9.56000e+02	2.92019	268.0
958	2.72852e+02	9.58000e+02	2.91914	269.0
960	2.73882e+02	9.60000e+02	2.91807	270.0
962	2.74915e+02	9.62000e+02	2.91697	271.0
964	2.76002e+02	9.64000e+02	2.91584	272.0
966	2.76999e+02	9.66000e+02	2.9147	273.0
968	2.77960e+02	9.68000e+02	2.91354	274.0
970	2.78945e+02	9.70000e+02	2.91239	275.0
972	2.79964e+02	9.72000e+02	2.91123	276.0
974	2.81048e+02	9.74000e+02	2.91005	277.0
976	2.82120e+02	9.76000e+02	2.90884	278.0
978	2.83225e+02	9.78000e+02	2.90762	279.0
980	2.84312e+02	9.80000e+02	2.90638	280.0
982	2.85360e+02	9.82000e+02	2.90515	281.0
984	2.86376e+02	9.84000e+02	2.90392	282.0
986	2.87364e+02	9.86000e+02	2.90269	283.0
988	2.88358e+02	9.88000e+02	2.90142	284.0
990	2.89380e+02	9.90000e+02	2.90014	285.0
992	2.90455e+02	9.92000e+02	2.89881	286.0
994	2.91480e+02	9.94000e+02	2.89744	287.0
996	2.92463e+02	9.96000e+02	2.89603	288.0
998	2.93458e+02	9.98000e+02	2.89458	289.0
1000	2.94482e+02	1.00000e+03	2.89307	290.0
1002	2.95486e+02	1.00200e+03	2.89152	291.0
1004	2.96545e+02	1.00400e+03	2.88987	292.0
1006	2.97581e+02	1.00600e+03	2.88818	293.0
1008	2.98608e+02	1.00800e+03	2.88645	294.0
1010	2.99605e+02	1.01000e+03	2.88473	295.0
1012	3.00627e+02	1.01200e+03	2.88303	296.0
1014	3.01578e+02	1.01400e+03	2.88127	297.0
1016	3.02537e+02	1.01600e+03	2.87942	298.0
1018	3.03485e+02	1.01800e+03	2.87746	299.0
1020	3.04504e+02	1.02000e+03	2.87534	300.0
1022	3.05513e+02	1.02200e+03	2.87311	301.0
1024	3.06544e+02	1.02400e+03	2.87076	302.0
1026	3.07572e+02	1.02600e+03	2.86835	303.0
1028	3.08604e+02	1.02800e+03	2.86586	304.0
1030	3.09668e+02	1.03000e+03	2.86334	305.0
1032	3.10657e+02	1.03200e+03	2.86074	306.0
1034	3.11619e+02	1.03400e+03	2.85811	307.0
1036	3.12613e+02	1.03600e+03	2.8554	308.0
1038	3.13597e+02	1.03800e+03	2.85266	309.0
1040	3.14579e+02	1.04000e+03	2.84985	310.0
1042	3.15587e+02	1.04200e+03	2.84698	311.0
1044	3.16639e+02	1.04400e+03	2.84401	312.0
1046	3.17650e+02	1.04600e+03	2.84098	313.0
1048	3.18675e+02	1.04800e+03	2.83785	314.0
1050	3.19681e+02	1.05000e+03	2.83469	315.0
1052	3.20660e+02	1.05200e+03	2.83147	316.0
1054	3.21624e+02	1.05400e+03	2.82822	317.0
1056	3.22577e+02	1.05600e+03	2.82491	318.0
1058	3.23507e+02	1.05800e+03	2.82157	319.0
1060	3.24439e+02	1.06000e+03	2.81815	320.0
1062	3.25367e+02	1.06200e+03	2.81469	321.0
1064	3.26287e+02	1.06400e+03	2.81117	322.0
1066	3.27199e+02	1.06600e+03	2.8076	323.0
1068	3.28102e+02	1.06800e+03	2.80395	324.0
1070	3.28975e+02	1.07000e+03	2.80025	325.0
1072	3.29834e+02	1.07200e+03	2.79641	326.0
1074	3.30662e+02	1.07400e+03	2.79245	327.0
1076	3.31437e+02	1.07600e+03	2.78827	328.0
1078	3.32093e+02	1.07800e+03	2.78397	329.0
1080	3.32730e+02	1.08000e+03	2.77948	330.0
1082	3.33574e+02	1.08200e+03	2.7749	331.0
1084	3.34510e+02	1.08400e+03	2.77017	332.0
1086	3.35491e+02	1.08600e+03	2.76534	333.0
1088	3.36465e+02	1.08800e+03	2.76033	334.0
1090	3.37448e+02	1.09000e+03	2.75522	335.0
1092	3.38445e+02	1.09200e+03	2.74994	336.0
1094	3.39426e+02	1.09400e+03	2.74457	337.0
1096	3.40426e+02	1.09600e+03	2.73906	338.0
1098	3.41408e+02	1.09800e+03	2.73343	339.0
1100	3.42407e+02	1.10000e+03	2.72756	340.0
1102	3.43385e+02	1.10200e+03	2.72146	341.0
1104	3.44379e+02	1.10400e+03	2.71497	342.0
1106	3.45372e+02	1.10600e+03	2.70818	343.0
1108	3.46368e+02	1.10800e+03	2.70088	344.0
1110	3.47354e+02	1.11000e+03	2.69322	345.0
1112	3.48352e+02	1.11200e+03	2.68492	346.0
1114	3.49341e+02	1.11400e+03	2.67618	347.0
1116	3.50329e+02	1.11600e+03	2.66672	348.0
1118	3.51321e+02	1.11800e+03	2.65681	349.0
1120	3.52310e+02	1.12000e+03	2.64613	350.0
1122	3.53329e+02	1.12200e+03	2.63494	351.0
1124	3.54405e+02	1.12400e+03	2.62282	352.0
1126	3.55791e+02	1.12600e+03	2.60993	353.0
1128	3.56754e+02	1.12800e+03	2.59567	354.0
1130	3.57758e+02	1.13000e+03	2.58042	355.0
1132	3.58874e+02	1.13200e+03	2.56352	356.0
1134	3.59866e+02	1.13400e+03	2.54567	357.0
1136	3.60981e+02	1.13600e+03	2.52622	358.0
1138	3.61984e+02	1.13800e+03	2.50574	359.0
1140	3.62914e+02	1.14000e+03	2.48336	360.0
1142	3.63857e+02	1.14200e+03	2.45957	361.0
1144	3.64835e+02	1.14400e+03	2.43345	362.0
1146	3.65894e+02	1.14600e+03	2.406	363.0
1148	3.67175e+02	1.14800e+03	2.37638	364.0
1150	3.68122e+02	1.15000e+03	2.3456	365.0
1152	3.69081e+02	1.15200e+03	2.31284	366.0
1154	3.70074e+02	1.15400e+03	2.27901	367.0
1156	3.71076e+02	1.15600e+03	2.24334	368.0
1158	3.72050e+02	1.15800e+03	2.20658	369.0
1160	3.73053e+02	1.16000e+03	2.16792	370.0
1162	3.74047e+02	1.16200e+03	2.12808	371.0
1164	3.75056e+02	1.16400e+03	2.08633	372.0
1166	3.76092e+02	1.16600e+03	2.04357	373.0
1168	3.77109e+02	1.16800e+03	1.99915	374.0
1170	3.78097e+02	1.17000e+03	1.95379	375.0
1172	3.79073e+02	1.17200e+03	1.90693	376.0
1174	3.80006e+02	1.17400e+03	1.85934	377.0
1176	3.80952e+02	1.17600e+03	1.81053	378.0
1178	3.81890e+02	1.17800e+03	1.7611	379.0
1180	3.82848e+02	1.18000e+03	1.71071	380.0
1182	3.83885e+02	1.18200e+03	1.65997	381.0
1184	3.84832e+02	1.18400e+03	1.60865	382.0
1186	3.85901e+02	1.18600e+03	1.55699	383.0
1188	3.86911e+02	1.18800e+03	1.50473	384.0
1190	3.87897e+02	1.19000e+03	1.45215	385.0
1192	3.88859e+02	1.19200e+03	1.39913	386.0
1194	3.89908e+02	1.19400e+03	1.34611	387.0
1196	3.90911e+02	1.19600e+03	1.29314	388.0
1198	3.91970e+02	1.19800e+03	1.24039	389.0
1200	3.92975e+02	1.20000e+03	1.18798	390.0
1202	3.93879e+02	1.20200e+03	1.13566	391.0
1204	3.94803e+02	1.20400e+03	1.08343	392.0
1206	3.95818e+02	1.20600e+03	1.03121	393.0
1208	3.96771e+02	1.20800e+03	0.979159	394.0
1210	3.97735e+02	1.21000e+03	0.927488	395.0
1212	3.98716e+02	1.21200e+03	0.876287	396.0
1214	3.99712e+02	1.21400e+03	0.825022	397.0
1216	4.00719e+02	1.21600e+03	0.77362	398.0
1218	4.01730e+02	1.21800e+03	0.722152	399.0
1220	4.02727e+02	1.22000e+03	0.670849	400.0
1222	4.03746e+02	1.22200e+03	0.620287	401.0
1224	4.04772e+02	1.22400e+03	0.571285	402.0
1226	4.05810e+02	1.22600e+03	0.523824	403.0
1228	4.06847e+02	1.22800e+03	0.479079	404.0
1230	4.07947e+02	1.23000e+03	0.43616	405.0
1232	4.09038e+02	1.23200e+03	0.39638	406.0
1234	4.10035e+02	1.23400e+03	0.358509	407.0
1236	4.11052e+02	1.23600e+03	0.323876	408.0
1238	4.12091e+02	1.23800e+03	0.291133	409.0
1240	4.13178e+02	1.24000e+03	0.26152	410.0
1242	4.14163e+02	1.24200e+03	0.23364	411.0
1244	4.15119e+02	1.24400e+03	0.208629	412.0
1246	4.16070e+02	1.24600e+03	0.185179	413.0
1248	4.17071e+02	1.24800e+03	0.164312	414.0
1250	4.18068e+02	1.25000e+03	0.144848	415.0
1252	4.19085e+02	1.25200e+03	0.127695	416.0
1254	4.20083e+02	1.25400e+03	0.111772	417.0
1256	4.21073e+02	1.25600e+03	0.0978695	418.0
1258	4.22052e+02	1.25800e+03	0.0850057	419.0
1260	4.23083e+02	1.26000e+03	0.0738493	420.0
1262	4.24034e+02	1.26200e+03	0.063565	421.0
1264	4.25024e+02	1.26400e+03	0.0547042	422.0
1266	4.25991e+02	1.26600e+03	0.0465485	423.0
1268	4.26983e+02	1.26800e+03	0.0395483	424.0
1270	4.27981e+02	1.27000e+03	0.0331239	425.0
1272	4.28965e+02	1.27200e+03	0.0276365	426.0
1274	4.29952e+02	1.27400e+03	0.0226103	427.0
1276	4.30946e+02	1.27600e+03	0.0183334	428.0
1278	4.31982e+02	1.27800e+03	0.014416	429.0
1280	4.32989e+02	1.28000e+03	0.0110769	430.0
1282	4.33952e+02	1.28200e+03	0.00800337	431.0
1284	4.34948e+02	1.28400e+03	0.00535387	432.0
1286	4.35956e+02	1.28600e+03	0.00289674	433.0
1288	4.36943e+02	1.28800e+03	0.00076231	434.0
1290	4.37935e+02	1.29000e+03	-0.00120307	435.0
1292	4.38911e+02	1.29200e+03	-0.00289558	436.0
1294	4.39883e+02	1.29400e+03	-0.00445812	437.0
1296	4.40859e+02	1.29600e+03	-0.00582049	438.0
1298	4.41845e+02	1.29800e+03	-0.00710397	439.0
1300	4.42852e+02	1.30000e+03	-0.00826381	440.0
1302	4.43854e+02	1.30200e+03	-0.00936789	441.0
1304	4.44835e+02	1.30400e+03	-0.0103736	442.0
1306	4.45801e+02	1.30600e+03	-0.0113174	443.0
1308	4.46765e+02	1.30800e+03	-0.0121622	444.0
1310	4.47751e+02	1.31000e+03	-0.0129627	445.0
1312	4.48720e+02	1.31200e+03	-0.0136933	446.0
1314	4.49693e+02	1.31400e+03	-0.0143903	447.0
1316	4.50683e+02	1.31600e+03	-0.0150263	448.0
1318	4.51682e+02	1.31800e+03	-0.0156181	449.0
1320	4.52678e+02	1.32000e+03	-0.0161241	450.0
1322	4.53679e+02	1.32200e+03	-0.0165686	451.0
1324	4.54651e+02	1.32400e+03	-0.0169204	452.0
1326	4.55633e+02	1.32600e+03	-0.0172367	453.0
1328	4.56620e+02	1.32800e+03	-0.0175113	454.0
1330	4.57597e+02	1.33000e+03	-0.0177838	455.0
1332	4.58577e+02	1.33200e+03	-0.0180304	456.0
1334	4.59558e+02	1.33400e+03	-0.0182235	457.0
1336	4.60513e+02	1.33600e+03	-0.0183242	458.0
1338	4.61504e+02	1.33800e+03	-0.0183698	459.0
1340	4.62495e+02	1.34000e+03	-0.0183554	460.0
1342	4.63511e+02	1.34200e+03	-0.0183579	461.0
1344	4.64523e+02	1.34400e+03	-0.0183834	462.0
1346	4.65526e+02	1.34600e+03	-0.0184182	463.0
1348	4.66524e+02	1.34800e+03	-0.0184641	464.0
1350	4.67487e+02	1.35000e+03	-0.018509	465.0
1352	4.68494e+02	1.35200e+03	-0.0185522	466.0
1354	4.69471e+02	1.35400e+03	-0.0186023	467.0
1356	4.70507e+02	1.35600e+03	-0.0186634	468.0
1358	4.71528e+02	1.35800e+03	-0.0187345	469.0
1360	4.72484e+02	1.36000e+03	-0.0188158	470.0
1362	4.73454e+02	1.36200e+03	-0.0188918	471.0
1364	4.74430e+02	1.36400e+03	-0.0189542	472.0
1366	4.75412e+02	1.36600e+03	-0.019002	473.0
1368	4.76389e+02	1.36800e+03	-0.0190322	474.0
1370	4.77378e+02	1.37000e+03	-0.0190634	475.0
1372	4.78340e+02	1.37200e+03	-0.0190996	476.0
1374	4.79319e+02	1.37400e+03	-0.0191474	477.0
1376	4.80287e+02	1.37600e+03	-0.0192101	478.0
1378	4.81291e+02	1.37800e+03	-0.0192678	479.0
1380	4.82275e+02	1.38000e+03	-0.0193181	480.0
1382	4.83263e+02	1.38200e+03	-0.0193587	481.0
1384	4.84264e+02	1.38400e+03	-0.0193823	482.0
1386	4.85267e+02	1.38600e+03	-0.0193992	483.0
1388	4.86262e+02	1.38800e+03	-0.019409	484.0
1390	4.87261e+02	1.39000e+03	-0.0194263	485.0
1392	4.88213e+02	1.39200e+03	-0.0194553	486.0
1394	4.89153e+02	1.39400e+03	-0.0194898	487.0
1396	4.90125e+02	1.39600e+03	-0.0195328	488.0
1398	4.91046e+02	1.39800e+03	-0.0195762	489.0
1400	4.92010e+02	1.40000e+03	-0.0196132	490.0
1402	4.93001e+02	1.40200e+03	-0.0196351	491.0
1404	4.93958e+02	1.40400e+03	-0.019637	492.0
1406	4.94940e+02	1.40600e+03	-0.0196419	493.0
1408	4.95903e+02	1.40800e+03	-0.019656	494.0
1410	4.96858e+02	1.41000e+03	-0.0196843	495.0
1412	4.97812e+02	1.41200e+03	-0.0197283	496.0
1414	4.98794e+02	1.41400e+03	-0.0197696	497.0
1416	4.99724e+02	1.41600e+03	-0.0198127	498.0
1418	5.00692e+02	1.41800e+03	-0.019872	499.0
1420	5.01653e+02	1.42000e+03	-0.0199559	500.0
1422	5.02613e+02	1.42200e+03	-0.0200449	501.0
1424	5.03562e+02	1.42400e+03	-0.0201358	502.0
1426	5.04515e+02	1.42600e+03	-0.0202152	503.0
1428	5.05464e+02	1.42800e+03	-0.0202766	504.0
1430	5.06418e+02	1.43000e+03	-0.0203257	505.0
1432	5.07397e+02	1.43200e+03	-0.0203543	506.0
1434	5.08347e+02	1.43400e+03	-0.0203729	507.0
1436	5.09307e+02	1.43600e+03	-0.0203761	508.0
1438	5.10284e+02	1.43800e+03	-0.0203764	509.0
1440	5.11248e+02	1.44000e+03	-0.0203729	510.0
1442	5.12223e+02	1.44200e+03	-0.0203724	511.0
1444	5.13192e+02	1.44400e+03	-0.0203811	512.0
1446	5.14169e+02	1.44600e+03	-0.0204021	513.0
1448	5.15142e+02	1.44800e+03	-0.0204427	514.0
1450	5.16127e+02	1.45000e+03	-0.0204921	515.0
1452	5.17118e+02	1.45200e+03	-0.0205524	516.0
1454	5.18113e+02	1.45400e+03	-0.0206124	517.0
1456	5.19105e+02	1.45600e+03	-0.0206641	518.0
1458	5.20085e+02	1.45800e+03	-0.0206979	519.0
1460	5.21040e+02	1.46000e+03	-0.0207071	520.0
1462	5.22000e+02	1.46200e+03	-0.0207161	521.0
1464	5.22986e+02	1.46400e+03	-0.0207288	522.0
1466	5.23968e+02	1.46600e+03	-0.020753	523.0
1468	5.24929e+02	1.46800e+03	-0.0207904	524.0
1470	5.25886e+02	1.47000e+03	-0.0208252	525.0
1472	5.26861e+02	1.47200e+03	-0.0208494	526.0
1474	5.27846e+02	1.47400e+03	-0.0208619	527.0
1476	5.28821e+02	1.47600e+03	-0.0208559	528.0
1478	5.29804e+02	1.47800e+03	-0.0208491	529.0
1480	5.30758e+02	1.48000e+03	-0.0208497	530.0
1482	5.31757e+02	1.48200e+03	-0.0208639	531.0
1484	5.32732e+02	1.48400e+03	-0.0209032	532.0
1486	5.33709e+02	1.48600e+03	-0.0209622	533.0
1488	5.34697e+02	1.48800e+03	-0.0210565	534.0
1490	5.35673e+02	1.49000e+03	-0.0211642	535.0
1492	5.36635e+02	1.49200e+03	-0.0212745	536.0
1494	5.37620e+02	1.49400e+03	-0.0213654	537.0
1496	5.38612e+02	1.49600e+03	-0.021443	538.0
1498	5.39600e+02	1.49800e+03	-0.0215384	539.0
1500	5.40586e+02	1.50000e+03	-0.0216467	540.0
1502	5.41553e+02	1.50200e+03	-0.0217191	541.0
1504	5.42515e+02	1.50400e+03	-0.0217118	542.0
1506	5.43495e+02	1.50600e+03	-0.0216293	543.0
1508	5.44481e+02	1.50800e+03	-0.0214568	544.0
1510	5.45469e+02	1.51000e+03	-0.0213026	545.0
1512	5.46460e+02	1.51200e+03	-0.021202	546.0
1514	5.47437e+02	1.51400e+03	-0.0211667	547.0
1516	5.48433e+02	1.51600e+03	-0.0212158	548.0
1518	5.49424e+02	1.51800e+03	-0.0212702	549.0
1520	5.50431e+02	1.52000e+03	-0.0213318	550.0
1522	5.51412e+02	1.52200e+03	-0.0213943	551.0
1524	5.52413e+02	1.52400e+03	-0.0214633	552.0
1526	5.53382e+02	1.52600e+03	-0.02154	553.0
1528	5.54371e+02	1.52800e+03	-0.0216229	554.0
1530	5.55364e+02	1.53000e+03	-0.0216971	555.0
1532	5.56349e+02	1.53200e+03	-0.0217486	556.0
1534	5.57336e+02	1.53400e+03	-0.0217767	557.0
1536	5.58327e+02	1.53600e+03	-0.0217741	558.0
1538	5.59308e+02	1.53800e+03	-0.0217636	559.0
1540	5.60287e+02	1.54000e+03	-0.0217431	560.0
1542	5.61280e+02	1.54200e+03	-0.0217279	561.0
1544	5.62270e+02	1.54400e+03	-0.021726	562.0
1546	5.63257e+02	1.54600e+03	-0.0217426	563.0
1548	5.64229e+02	1.54800e+03	-0.021792	564.0
1550	5.65214e+02	1.55000e+03	-0.0218552	565.0
1552	5.66195e+02	1.55200e+03	-0.0219306	566.0
1554	5.67188e+02	1.55400e+03	-0.0219981	567.0
1556	5.68185e+02	1.55600e+03	-0.0220537	568.0
1558	5.69173e+02	1.55800e+03	-0.0221041	569.0
1560	5.70168e+02	1.56000e+03	-0.0221487	570.0
1562	5.71163e+02	1.56200e+03	-0.0221922	571.0
1564	5.72154e+02	1.56400e+03	-0.0222363	572.0
1566	5.73143e+02	1.56600e+03	-0.0222763	573.0
1568	5.74131e+02	1.56800e+03	-0.022307	574.0
1570	5.75124e+02	1.57000e+03	-0.0223295	575.0
1572	5.76130e+02	1.57200e+03	-0.0223468	576.0
1574	5.77135e+02	1.57400e+03	-0.0223701	577.0
1576	5.78139e+02	1.57600e+03	-0.0224012	578.0
1578	5.79152e+02	1.57800e+03	-0.0224356	579.0
1580	5.80165e+02	1.58000e+03	-0.022477	580.0
1582	5.81150e+02	1.58200e+03	-0.0225214	581.0
1584	5.82149e+02	1.58400e+03	-0.0225643	582.0
1586	5.83153e+02	1.58600e+03	-0.0225944	583.0
1588	5.84149e+02	1.58800e+03	-0.0226074	584.0
1590	5.85148e+02	1.59000e+03	-0.0226211	585.0
1592	5.86130e+02	1.59200e+03	-0.0226423	586.0
1594	5.87138e+02	1.59400e+03	-0.0226796	587.0
1596	5.88171e+02	1.59600e+03	-0.0227486	588.0
1598	5.89182e+02	1.59800e+03	-0.0228463	589.0
1600	5.90211e+02	1.60000e+03	-0.0229917	590.0
1602	5.91249e+02	1.60200e+03	-0.0231521	591.0
1604	5.92266e+02	1.60400e+03	-0.0233062	592.0
1606	5.93285e+02	1.60600e+03	-0.023401	593.0
1608	5.94336e+02	1.60800e+03	-0.0233952	594.0
1610	5.95370e+02	1.61000e+03	-0.0233377	595.0
1612	5.96434e+02	1.61200e+03	-0.0232267	596.0
1614	5.97571e+02	1.61400e+03	-0.0231413	597.0
1616	5.98851e+02	1.61600e+03	-0.0231009	598.0
1618	6.00068e+02	1.61800e+03	-0.0230881	599.0
1620	6.01127e+02	1.62000e+03	-0.0231147	600.0
1622	6.02127e+02	1.62200e+03	-0.0231519	601.0
1624	6.03184e+02	1.62400e+03	-0.0232035	602.0
1626	6.04167e+02	1.62600e+03	-0.0232546	603.0
1628	6.05141e+02	1.62800e+03	-0.0233011	604.0
1630	6.06145e+02	1.63000e+03	-0.0233436	605.0
1632	6.07196e+02	1.63200e+03	-0.0233821	606.0
1634	6.08202e+02	1.63400e+03	-0.0234213	607.0
1636	6.09203e+02	1.63600e+03	-0.0234559	608.0
1638	6.10254e+02	1.63800e+03	-0.0234852	609.0
1640	6.11252e+02	1.64000e+03	-0.0235088	610.0
1642	6.12274e+02	1.64200e+03	-0.0235303	611.0
1644	6.13306e+02	1.64400e+03	-0.0235471	612.0
1646	6.14306e+02	1.64600e+03	-0.0235649	613.0
1648	6.15365e+02	1.64800e+03	-0.023585	614.0
1650	6.16403e+02	1.65000e+03	-0.0236068	615.0
1652	6.17430e+02	1.65200e+03	-0.0236265	616.0
1654	6.18425e+02	1.65400e+03	-0.023635	617.0
1656	6.19379e+02	1.65600e+03	-0.0236155	618.0
1658	6.20368e+02	1.65800e+03	-0.0235761	619.0
1660	6.21328e+02	1.66000e+03	-0.0235207	620.0
1662	6.22269e+02	1.66200e+03	-0.0234889	621.0
1664	6.23238e+02	1.66400e+03	-0.0234996	622.0
1666	6.24218e+02	1.66600e+03	-0.023537	623.0
1668	6.25177e+02	1.66800e+03	-0.0236014	624.0
1670	6.26171e+02	1.67000e+03	-0.0236461	625.0
1672	6.27162e+02	1.67200e+03	-0.023652	626.0
1674	6.28162e+02	1.67400e+03	-0.023633	627.0
1676	6.29157e+02	1.67600e+03	-0.0235828	628.0
1678	6.30173e+02	1.67800e+03	-0.0235343	629.0
1680	6.31180e+02	1.68000e+03	-0.0234875	630.0
1682	6.32157e+02	1.68200e+03	-0.0234444	631.0
1684	6.33145e+02	1.68400e+03	-0.0234083	632.0
1686	6.34149e+02	1.68600e+03	-0.0233772	633.0
1688	6.35170e+02	1.68800e+03	-0.0233575	634.0
1690	6.36174e+02	1.69000e+03	-0.0233497	635.0
1692	6.37230e+02	1.69200e+03	-0.0233631	636.0
1694	6.38254e+02	1.69400e+03	-0.0233917	637.0
1696	6.39247e+02	1.69600e+03	-0.0234478	638.0
1698	6.40300e+02	1.69800e+03	-0.0235129	639.0
1700	6.41345e+02	1.70000e+03	-0.02358	640.0
1702	6.42383e+02	1.70200e+03	-0.0236305	641.0
1704	6.43408e+02	1.70400e+03	-0.0236553	642.0
1706	6.44425e+02	1.70600e+03	-0.0236692	643.0
1708	6.45425e+02	1.70800e+03	-0.0236659	644.0
1710	6.46436e+02	1.71000e+03	-0.0236576	645.0
1712	6.47414e+02	1.71200e+03	-0.023643	646.0
1714	6.48414e+02	1.71400e+03	-0.0236256	647.0
1716	6.49380e+02	1.71600e+03	-0.0236098	648.0
1718	6.50342e+02	1.71800e+03	-0.0236056	649.0
1720	6.51347e+02	1.72000e+03	-0.0236251	650.0
1722	6.52376e+02	1.72200e+03	-0.0236682	651.0
1724	6.53372e+02	1.72400e+03	-0.0237364	652.0
1726	6.54386e+02	1.72600e+03	-0.0237886	653.0
1728	6.55409e+02	1.72800e+03	-0.0238136	654.0
1730	6.56416e+02	1.73000e+03	-0.023815	655.0
1732	6.57403e+02	1.73200e+03	-0.0237851	656.0
1734	6.58419e+02	1.73400e+03	-0.023751	657.0
1736	6.59424e+02	1.73600e+03	-0.0237129	658.0
1738	6.60395e+02	1.73800e+03	-0.0236835	659.0
1740	6.61375e+02	1.74000e+03	-0.0236696	660.0
1742	6.62358e+02	1.74200e+03	-0.0236647	661.0
1744	6.63321e+02	1.74400e+03	-0.0236686	662.0
1746	6.64286e+02	1.74600e+03	-0.0236644	663.0
1748	6.65259e+02	1.74800e+03	-0.0236495	664.0
1750	6.66261e+02	1.75000e+03	-0.0236342	665.0
1752	6.67247e+02	1.75200e+03	-0.0236189	666.0
1754	6.68239e+02	1.75400e+03	-0.0236083	667.0
1756	6.69260e+02	1.75600e+03	-0.0236106	668.0
1758	6.70258e+02	1.75800e+03	-0.0236204	669.0
1760	6.71263e+02	1.76000e+03	-0.0236337	670.0
1762	6.72265e+02	1.76200e+03	-0.023632	671.0
1764	6.73275e+02	1.76400e+03	-0.0236138	672.0
1766	6.74254e+02	1.76600e+03	-0.0235999	673.0
1768	6.75249e+02	1.76800e+03	-0.0235997	674.0
1770	6.76240e+02	1.77000e+03	-0.0236161	675.0
1772	6.77261e+02	1.77200e+03	-0.023652	676.0
1774	6.78254e+02	1.77400e+03	-0.0236802	677.0
1776	6.79271e+02	1.77600e+03	-0.0237009	678.0
1778	6.80286e+02	1.77800e+03	-0.0237254	679.0
1780	6.81313e+02	1.78000e+03	-0.0237607	680.0
1782	6.82384e+02	1.78200e+03	-0.0237977	681.0
1784	6.83420e+02	1.78400e+03	-0.0238352	682.0
1786	6.84464e+02	1.78600e+03	-0.0238633	683.0
1788	6.85502e+02	1.78800e+03	-0.0238758	684.0
1790	6.86551e+02	1.79000e+03	-0.0238853	685.0
1792	6.87630e+02	1.79200e+03	-0.0238915	686.0
1794	6.88710e+02	1.79400e+03	-0.0238949	687.0
1796	6.89178e+02	1.79600e+03	-0.023886	688.0
1798	6.89967e+02	1.79800e+03	-0.0238612	689.0
1800	6.90816e+02	1.80000e+03	-0.0238181	690.0
1802	6.91557e+02	1.80200e+03	-0.0237885	691.0
1804	6.92269e+02	1.80400e+03	-0.0237828	692.0
1806	6.92949e+02	1.80600e+03	-0.0237892	693.0
1808	6.93873e+02	1.80800e+03	-0.0238136	694.0
1810	6.94410e+02	1.81000e+03	-0.023836	695.0
1812	6.94831e+02	1.81200e+03	-0.0238574	696.0
1814	6.95293e+02	1.81400e+03	-0.0238749	697.0
1816	6.95722e+02	1.81600e+03	-0.0238863	698.0
1818	6.96119e+02	1.81800e+03	-0.023898	699.0
1820	6.96508e+02	1.82000e+03	-0.0239167	700.0
1822	6.96895e+02	1.82200e+03	-0.023952	700.0
1824	6.97188e+02	1.82400e+03	-0.024007	700.0
1826	6.97468e+02	1.82600e+03	-0.0240547	700.0
1828	6.97760e+02	1.82800e+03	-0.0240836	700.0
1830	6.97942e+02	1.83000e+03	-0.024108	700.0
1832	6.98111e+02	1.83200e+03	-0.0241311	700.0
1834	6.98302e+02	1.83400e+03	-0.0241604	700.0
1836	6.98493e+02	1.83600e+03	-0.0241892	700.0
1838	6.98680e+02	1.83800e+03	-0.0241906	700.0
1840	6.98836e+02	1.84000e+03	-0.0241628	700.0
1842	6.99015e+02	1.84200e+03	-0.0241269	700.0
1844	6.99175e+02	1.84400e+03	-0.0240842	700.0
1846	6.99275e+02	1.84600e+03	-0.0240389	700.0
1848	6.99355e+02	1.84800e+03	-0.0240027	700.0
1850	6.99454e+02	1.85000e+03	-0.0239734	700.0
1852	6.99577e+02	1.85200e+03	-0.0239607	700.0
1854	6.99673e+02	1.85400e+03	-0.0239597	700.0
1856	6.99735e+02	1.85600e+03	-0.0239637	700.0
1858	6.99842e+02	1.85800e+03	-0.0239611	700.0
1860	6.99958e+02	1.86000e+03	-0.0239629	700.0
1862	7.00039e+02	1.86200e+03	-0.02398	700.0
1864	7.00150e+02	1.86400e+03	-0.0240205	700.0
1866	7.00232e+02	1.86600e+03	-0.0240513	700.0
1868	7.00312e+02	1.86800e+03	-0.0240634	700.0
1870	7.00384e+02	1.87000e+03	-0.0240572	700.0
1872	7.00448e+02	1.87200e+03	-0.0240266	700.0
1874	7.00519e+02	1.87400e+03	-0.0239954	700.0
1876	7.00587e+02	1.87600e+03	-0.0239661	700.0
1878	7.00654e+02	1.87800e+03	-0.0239437	700.0
1880	7.00711e+02	1.88000e+03	-0.0239315	700.0
1882	7.00771e+02	1.88200e+03	-0.0239228	700.0
1884	7.00837e+02	1.88400e+03	-0.0239251	700.0
1886	7.00899e+02	1.88600e+03	-0.0239426	700.0
1888	7.00950e+02	1.88800e+03	-0.0239726	700.0
1890	7.01005e+02	1.89000e+03	-0.0240002	700.0
1892	7.01049e+02	1.89200e+03	-0.0240252	700.0
1894	7.01099e+02	1.89400e+03	-0.02405	700.0
1896	7.01150e+02	1.89600e+03	-0.0240658	700.0
1898	7.01179e+02	1.89800e+03	-0.0240629	700.0
1900	7.01242e+02	1.90000e+03	-0.0240441	700.0
1902	7.01276e+02	1.90200e+03	-0.02403	700.0
1904	7.01316e+02	1.90400e+03	-0.0240248	700.0
1906	7.01346e+02	1.90600e+03	-0.0240286	700.0
1908	7.01377e+02	1.90800e+03	-0.0240506	700.0
1910	7.01416e+02	1.91000e+03	-0.0240954	700.0
1912	7.01445e+02	1.91200e+03	-0.0241599	700.0
1914	7.01467e+02	1.91400e+03	-0.0242158	700.0
1916	7.01481e+02	1.91600e+03	-0.0242552	700.0
1918	7.01513e+02	1.91800e+03	-0.0242679	700.0
1920	7.01529e+02	1.92000e+03	-0.0242447	700.0
1922	7.01557e+02	1.92200e+03	-0.0242155	700.0
1924	7.01579e+02	1.92400e+03	-0.0241793	700.0
1926	7.01588e+02	1.92600e+03	-0.0241475	700.0
1928	7.01603e+02	1.92800e+03	-0.0241213	700.0
1930	7.01624e+02	1.93000e+03	-0.0240949	700.0
1932	7.01639e+02	1.93200e+03	-0.0240702	700.0
1934	7.01660e+02	1.93400e+03	-0.0240497	700.0
1936	7.01678e+02	1.93600e+03	-0.0240348	700.0
1938	7.01693e+02	1.93800e+03	-0.0240114	700.0
1940	7.01711e+02	1.94000e+03	-0.0239902	700.0
1942	7.01723e+02	1.94200e+03	-0.0239839	700.0
1944	7.01745e+02	1.94400e+03	-0.0239998	700.0
1946	7.01758e+02	1.94600e+03	-0.0240256	700.0
1948	7.01778e+02	1.94800e+03	-0.0240642	700.0
1950	7.01792e+02	1.95000e+03	-0.0241009	700.0
1952	7.01802e+02	1.95200e+03	-0.024132	700.0
1954	7.01812e+02	1.95400e+03	-0.0241552	700.0
1956	7.01829e+02	1.95600e+03	-0.0241773	700.0
1958	7.01830e+02	1.95800e+03	-0.0242056	700.0
1960	7.01845e+02	1.96000e+03	-0.024252	700.0
1962	7.01856e+02	1.96200e+03	-0.0242976	700.0
1964	7.01868e+02	1.96400e+03	-0.0243272	700.0
1966	7.01876e+02	1.96600e+03	-0.0243341	700.0
1968	7.01876e+02	1.96800e+03	-0.0243059	700.0
1970	7.01895e+02	1.97000e+03	-0.0242728	700.0
1972	7.01891e+02	1.97200e+03	-0.0242432	700.0
1974	7.01909e+02	1.97400e+03	-0.0242289	700.0
1976	7.01909e+02	1.97600e+03	-0.0242367	700.0
1978	7.01919e+02	1.97800e+03	-0.0242484	700.0
1980	7.01927e+02	1.98000e+03	-0.0242611	700.0
1982	7.01936e+02	1.98200e+03	-0.0242653	700.0
1984	7.01946e+02	1.98400e+03	-0.0242594	700.0
1986	7.01953e+02	1.98600e+03	-0.0242564	700.0
1988	7.01962e+02	1.98800e+03	-0.0242571	700.0
1990	7.01965e+02	1.99000e+03	-0.0242557	700.0
1992	7.01966e+02	1.99200e+03	-0.0242628	700.0
1994	7.01973e+02	1.99400e+03	-0.024279	700.0
1996	7.01980e+02	1.99600e+03	-0.0243033	700.0
1998	7.01983e+02	1.99800e+03	-0.0243205	700.0
2000	7.01984e+02	2.00000e+03	-0.0243228	700.0
2002	7.01991e+02	2.00200e+03	-0.0243062	700.0
2004	7.01991e+02	2.00400e+03	-0.0242686	700.0
2006	7.02000e+02	2.00600e+03	-0.0242243	700.0
2008	7.01996e+02	2.00800e+03	-0.0241847	700.0
2010	7.02002e+02	2.01000e+03	-0.024162	700.0
2012	7.02010e+02	2.01200e+03	-0.0241643	700.0
2014	7.02007e+02	2.01400e+03	-0.0241744	700.0
2016	7.02011e+02	2.01600e+03	-0.0241982	700.0
2018	7.01998e+02	2.01800e+03	-0.0242285	700.0
2020	7.02018e+02	2.02000e+03	-0.0242651	700.0
2022	7.02026e+02	2.02200e+03	-0.0242836	700.0
2024	7.02015e+02	2.02400e+03	-0.0242813	700.0
2026	7.02026e+02	2.02600e+03	-0.0242707	700.0
2028	7.02032e+02	2.02800e+03	-0.0242511	700.0
2030	7.02032e+02	2.03000e+03	-0.0242383	700.0
2032	7.02030e+02	2.03200e+03	-0.0242393	700.0
2034	7.02025e+02	2.03400e+03	-0.0242519	700.0
2036	7.02030e+02	2.03600e+03	-0.0242815	700.0
2038	7.02049e+02	2.03800e+03	-0.0243146	700.0
2040	7.02048e+02	2.04000e+03	-0.0243507	700.0
2042	7.02040e+02	2.04200e+03	-0.0243836	700.0
2044	7.02044e+02	2.04400e+03	-0.0244043	700.0
2046	7.02044e+02	2.04600e+03	-0.0244052	700.0
2048	7.02048e+02	2.04800e+03	-0.024386	700.0
2050	7.02055e+02	2.05000e+03	-0.024366	700.0
2052	7.02062e+02	2.05200e+03	-0.0243473	700.0
2054	7.02053e+02	2.05400e+03	-0.0243349	700.0
2056	7.02062e+02	2.05600e+03	-0.0243359	700.0
2058	7.02063e+02	2.05800e+03	-0.0243486	700.0
2060	7.02064e+02	2.06000e+03	-0.024376	700.0
2062	7.02063e+02	2.06200e+03	-0.0243931	700.0
2064	7.02070e+02	2.06400e+03	-0.0244016	700.0
2066	7.02066e+02	2.06600e+03	-0.0244072	700.0
2068	7.02068e+02	2.06800e+03	-0.0244087	700.0
2070	7.02071e+02	2.07000e+03	-0.024413	700.0
2072	7.02063e+02	2.07200e+03	-0.0244249	700.0
2074	7.02069e+02	2.07400e+03	-0.0244473	700.0
2076	7.02077e+02	2.07600e+03	-0.0244872	700.0
2078	7.02078e+02	2.07800e+03	-0.0245342	700.0
2080	7.02076e+02	2.08000e+03	-0.0245857	700.0
2082	7.02075e+02	2.08200e+03	-0.0246166	700.0
2084	7.02082e+02	2.08400e+03	-0.0246111	700.0
2086	7.02081e+02	2.08600e+03	-0.024589	700.0
2088	7.02078e+02	2.08800e+03	-0.024542	700.0
2090	7.02075e+02	2.09000e+03	-0.0244961	700.0
2092	7.02074e+02	2.09200e+03	-0.0244582	700.0
2094	7.02082e+02	2.09400e+03	-0.0244353	700.0
2096	7.02081e+02	2.09600e+03	-0.0244366	700.0
2098	7.02085e+02	2.09800e+03	-0.0244476	700.0
2100	7.02091e+02	2.10000e+03	-0.0244693	700.0
2102	7.02081e+02	2.10200e+03	-0.0244871	700.0
2104	7.02086e+02	2.10400e+03	-0.0245007	700.0
2106	7.02091e+02	2.10600e+03	-0.0245109	700.0
2108	7.02092e+02	2.10800e+03	-0.0245142	700.0
2110	7.02089e+02	2.11000e+03	-0.0245266	700.0
2112	7.02089e+02	2.11200e+03	-0.0245531	700.0
2114	7.02094e+02	2.11400e+03	-0.0245915	700.0
2116	7.02096e+02	2.11600e+03	-0.0246444	700.0
2118	7.02093e+02	2.11800e+03	-0.0246918	700.0
2120	7.02095e+02	2.12000e+03	-0.0247254	700.0
2122	7.02103e+02	2.12200e+03	-0.0247428	700.0
2124	7.02103e+02	2.12400e+03	-0.0247354	700.0
2126	7.02094e+02	2.12600e+03	-0.0247204	700.0
2128	7.02100e+02	2.12800e+03	-0.0246984	700.0
2130	7.02096e+02	2.13000e+03	-0.0246797	700.0
2132	7.02093e+02	2.13200e+03	-0.0246577	700.0
2134	7.02092e+02	2.13400e+03	-0.0246382	700.0
2136	7.02095e+02	2.13600e+03	-0.0246246	700.0
2138	7.02092e+02	2.13800e+03	-0.0246223	700.0
2140	7.02089e+02	2.14000e+03	-0.0246306	700.0
2142	7.02087e+02	2.14200e+03	-0.0246285	700.0
2144	7.02090e+02	2.14400e+03	-0.024622	700.0
2146	7.02094e+02	2.14600e+03	-0.024623	700.0
2148	7.02093e+02	2.14800e+03	-0.024636	700.0
2150	7.02100e+02	2.15000e+03	-0.0246531	700.0
2152	7.02095e+02	2.15200e+03	-0.0246738	700.0
2154	7.02096e+02	2.15400e+03	-0.0246903	700.0
2156	7.02089e+02	2.15600e+03	-0.0247004	700.0
2158	7.02108e+02	2.15800e+03	-0.0247077	700.0
2160	7.02092e+02	2.16000e+03	-0.0247116	700.0
2162	7.02094e+02	2.16200e+03	-0.0247176	700.0
2164	7.02103e+02	2.16400e+03	-0.0247282	700.0
2166	7.02099e+02	2.16600e+03	-0.0247337	700.0
2168	7.02108e+02	2.16800e+03	-0.0247301	700.0
2170	7.02102e+02	2.17000e+03	-0.0247272	700.0
2172	7.02105e+02	2.17200e+03	-0.0247155	700.0
2174	7.02100e+02	2.17400e+03	-0.0247031	700.0
2176	7.02102e+02	2.17600e+03	-0.0246948	700.0
2178	7.02099e+02	2.17800e+03	-0.024698	700.0
2180	7.02102e+02	2.18000e+03	-0.0247203	700.0
2182	7.02099e+02	2.18200e+03	-0.0247484	700.0
2184	7.02099e+02	2.18400e+03	-0.0247808	700.0
2186	7.02099e+02	2.18600e+03	-0.0248057	700.0
2188	7.02099e+02	2.18800e+03	-0.0248181	700.0
2190	7.02103e+02	2.19000e+03	-0.0248236	700.0
2192	7.02100e+02	2.19200e+03	-0.0248178	700.0
2194	7.02099e+02	2.19400e+03	-0.0248074	700.0
2196	7.02102e+02	2.19600e+03	-0.0247922	700.0
2198	7.02113e+02	2.19800e+03	-0.0247805	700.0
2200	7.02111e+02	2.20000e+03	-0.0247776	700.0
2202	7.02102e+02	2.20200e+03	-0.0247852	700.0
2204	7.02097e+02	2.20400e+03	-0.0248094	700.0
2206	7.02101e+02	2.20600e+03	-0.0248408	700.0
2208	7.02106e+02	2.20800e+03	-0.0248797	700.0
2210	7.02108e+02	2.21000e+03	-0.0249129	700.0
2212	7.02106e+02	2.21200e+03	-0.0249335	700.0
2214	7.02115e+02	2.21400e+03	-0.0249393	700.0
2216	7.02116e+02	2.21600e+03	-0.0249152	700.0
2218	7.02112e+02	2.21800e+03	-0.024877	700.0
2220	7.02115e+02	2.22000e+03	-0.0248256	700.0
2222	7.02104e+02	2.22200e+03	-0.0247939	700.0
2224	7.02116e+02	2.22400e+03	-0.0247929	700.0
2226	7.02117e+02	2.22600e+03	-0.0248068	700.0
2228	7.02116e+02	2.22800e+03	-0.0248376	700.0
2230	7.02112e+02	2.23000e+03	-0.0248515	700.0
2232	7.02119e+02	2.23200e+03	-0.0248458	700.0
2234	7.02113e+02	2.23400e+03	-0.0248377	700.0
2236	7.02117e+02	2.23600e+03	-0.0248263	700.0
2238	7.02114e+02	2.23800e+03	-0.0248187	700.0
2240	7.02117e+02	2.24000e+03	-0.0248143	700.0
2242	7.02118e+02	2.24200e+03	-0.0248006	700.0
2244	7.02114e+02	2.24400e+03	-0.0247602	700.0
2246	7.02123e+02	2.24600e+03	-0.0247078	700.0
2248	7.02119e+02	2.24800e+03	-0.0246462	700.0
2250	7.02120e+02	2.25000e+03	-0.0246031	700.0
2252	7.02124e+02	2.25200e+03	-0.0245906	700.0
2254	7.02120e+02	2.25400e+03	-0.0245992	700.0
2256	7.02130e+02	2.25600e+03	-0.0246436	700.0
2258	7.02122e+02	2.25800e+03	-0.0247014	700.0
2260	7.02133e+02	2.26000e+03	-0.0247766	700.0
2262	7.02114e+02	2.26200e+03	-0.0248662	700.0
2264	7.02123e+02	2.26400e+03	-0.0249831	700.0
2266	7.02119e+02	2.26600e+03	-0.0250974	700.0
2268	7.02119e+02	2.26800e+03	-0.0251649	700.0
2270	7.02127e+02	2.27000e+03	-0.0251383	700.0
2272	7.02118e+02	2.27200e+03	-0.0249801	700.0
2274	7.02113e+02	2.27400e+03	-0.0248013	700.0
2276	7.02125e+02	2.27600e+03	-0.0246207	700.0
2278	7.02120e+02	2.27800e+03	-0.024498	700.0
2280	7.02124e+02	2.28000e+03	-0.0244651	700.0
2282	7.02122e+02	2.28200e+03	-0.0244696	700.0
2284	7.02124e+02	2.28400e+03	-0.0245247	700.0
2286	7.02129e+02	2.28600e+03	-0.0245864	700.0
2288	7.02136e+02	2.28800e+03	-0.0246575	700.0
2290	7.02126e+02	2.29000e+03	-0.0247295	700.0
2292	7.02123e+02	2.29200e+03	-0.0248008	700.0
2294	7.02127e+02	2.29400e+03	-0.0248664	700.0
2296	7.02134e+02	2.29600e+03	-0.0249196	700.0
2298	7.02128e+02	2.29800e+03	-0.0249605	700.0
2300	7.02131e+02	2.30000e+03	-0.0249832	700.0
2302	7.02127e+02	2.30200e+03	-0.0249995	700.0
2304	7.02132e+02	2.30400e+03	-0.025006	700.0
2306	7.02129e+02	2.30600e+03	-0.025001	700.0
2308	7.02131e+02	2.30800e+03	-0.0249791	700.0
2310	7.02130e+02	2.31000e+03	-0.0249578	700.0
2312	7.02128e+02	2.31200e+03	-0.0249378	700.0
2314	7.02135e+02	2.31400e+03	-0.0249258	700.0
2316	7.02130e+02	2.31600e+03	-0.0249174	700.0
2318	7.02124e+02	2.31800e+03	-0.0249075	700.0
2320	7.02131e+02	2.32000e+03	-0.0249036	700.0
2322	7.02134e+02	2.32200e+03	-0.0249125	700.0
2324	7.02133e+02	2.32400e+03	-0.0249451	700.0
2326	7.02139e+02	2.32600e+03	-0.0249849	700.0
2328	7.02135e+02	2.32800e+03	-0.0250221	700.0
2330	7.02139e+02	2.33000e+03	-0.0250421	700.0
2332	7.02134e+02	2.33200e+03	-0.0250381	700.0
2334	7.02142e+02	2.33400e+03	-0.0250192	700.0
2336	7.02137e+02	2.33600e+03	-0.0249866	700.0
2338	7.02132e+02	2.33800e+03	-0.0249588	700.0
2340	7.02134e+02	2.34000e+03	-0.0249383	700.0
2342	7.02133e+02	2.34200e+03	-0.0249243	700.0
2344	7.02137e+02	2.34400e+03	-0.0249201	700.0
2346	7.02128e+02	2.34600e+03	-0.0249202	700.0
2348	7.02138e+02	2.34800e+03	-0.0249285	700.0
2350	7.02126e+02	2.35000e+03	-0.0249417	700.0
2352	7.02131e+02	2.35200e+03	-0.0249617	700.0
2354	7.02126e+02	2.35400e+03	-0.0249838	700.0
2356	7.02133e+02	2.35600e+03	-0.0250093	700.0
2358	7.02137e+02	2.35800e+03	-0.0250356	700.0
2360	7.02141e+02	2.36000e+03	-0.025061	700.0
2362	7.02138e+02	2.36200e+03	-0.0250825	700.0
2364	7.02132e+02	2.36400e+03	-0.0250997	700.0
2366	7.02143e+02	2.36600e+03	-0.0251155	700.0
2368	7.02144e+02	2.36800e+03	-0.0251167	700.0
2370	7.02142e+02	2.37000e+03	-0.0251037	700.0
2372	7.02135e+02	2.37200e+03	-0.025076	700.0
2374	7.02150e+02	2.37400e+03	-0.0250545	700.0
2376	7.02145e+02	2.37600e+03	-0.0250471	700.0
2378	7.02150e+02	2.37800e+03	-0.0250527	700.0
2380	7.02142e+02	2.38000e+03	-0.0250773	700.0
2382	7.02152e+02	2.38200e+03	-0.0251044	700.0
2384	7.02151e+02	2.38400e+03	-0.025123	700.0
2386	7.02147e+02	2.38600e+03	-0.0251161	700.0
2388	7.02142e+02	2.38800e+03	-0.0250848	700.0
2390	7.02156e+02	2.39000e+03	-0.0250579	700.0
2392	7.02151e+02	2.39200e+03	-0.0250365	700.0
2394	7.02160e+02	2.39400e+03	-0.0250155	700.0
2396	7.02155e+02	2.39600e+03	-0.0249964	700.0
2398	7.02158e+02	2.39800e+03	-0.0249815	700.0
2400	7.02155e+02	2.40000e+03	-0.0249708	700.0
2402	7.02157e+02	2.40200e+03	-0.0249538	700.0
2404	7.02157e+02	2.40400e+03	-0.0249365	700.0
2406	7.02157e+02	2.40600e+03	-0.0249289	700.0
2408	7.02158e+02	2.40800e+03	-0.0249431	700.0
2410	7.02156e+02	2.41000e+03	-0.0249623	700.0
2412	7.02150e+02	2.41200e+03	-0.0249891	700.0
2414	7.02161e+02	2.41400e+03	-0.0250159	700.0
2416	7.02153e+02	2.41600e+03	-0.0250502	700.0
2418	7.02158e+02	2.41800e+03	-0.0250969	700.0
2420	7.02157e+02	2.42000e+03	-0.0251526	700.0
2422	7.02163e+02	2.42200e+03	-0.0251986	700.0
2424	7.02160e+02	2.42400e+03	-0.0252319	700.0
2426	7.02174e+02	2.42600e+03	-0.0252615	700.0
2428	7.02161e+02	2.42800e+03	-0.0252858	700.0
2430	7.02170e+02	2.43000e+03	-0.0253073	700.0
2432	7.02168e+02	2.43200e+03	-0.0253212	700.0
2434	7.02165e+02	2.43400e+03	-0.0253278	700.0
2436	7.02158e+02	2.43600e+03	-0.0253251	700.0
2438	7.02161e+02	2.43800e+03	-0.0253229	700.0
2440	7.02161e+02	2.44000e+03	-0.0253246	700.0
2442	7.02156e+02	2.44200e+03	-0.025335	700.0
2444	7.02166e+02	2.44400e+03	-0.0253563	700.0
2446	7.02172e+02	2.44600e+03	-0.0253752	700.0
2448	7.02163e+02	2.44800e+03	-0.0253845	700.0
2450	7.02160e+02	2.45000e+03	-0.02538	700.0
2452	7.02165e+02	2.45200e+03	-0.0253498	700.0
2454	7.02166e+02	2.45400e+03	-0.025317	700.0
2456	7.02165e+02	2.45600e+03	-0.0252921	700.0
2458	7.02168e+02	2.45800e+03	-0.0252882	700.0
2460	7.02163e+02	2.46000e+03	-0.0253133	700.0
2462	7.02165e+02	2.46200e+03	-0.0253407	700.0
2464	7.02159e+02	2.46400e+03	-0.0253598	700.0
2466	7.02164e+02	2.46600e+03	-0.0253715	700.0
2468	7.02162e+02	2.46800e+03	-0.0253708	700.0
2470	7.02162e+02	2.47000e+03	-0.0253657	700.0
2472	7.02167e+02	2.47200e+03	-0.0253518	700.0
2474	7.02167e+02	2.47400e+03	-0.0253329	700.0
2476	7.02174e+02	2.47600e+03	-0.025312	700.0
2478	7.02167e+02	2.47800e+03	-0.0253003	700.0
2480	7.02167e+02	2.48000e+03	-0.0253008	700.0
2482	7.02163e+02	2.48200e+03	-0.025303	700.0
2484	7.02167e+02	2.48400e+03	-0.0253072	700.0
2486	7.02160e+02	2.48600e+03	-0.0253104	700.0
2488	7.02155e+02	2.48800e+03	-0.0253124	700.0
2490	7.02162e+02	2.49000e+03	-0.0253137	700.0
2492	7.02160e+02	2.49200e+03	-0.0253143	700.0
2494	7.02157e+02	2.49400e+03	-0.0253152	700.0
2496	7.02160e+02	2.49600e+03	-0.0253187	700.0
2498	7.02171e+02	2.49800e+03	-0.0253268	700.0
2500	7.02166e+02	2.50000e+03	-0.0253399	700.0
2502	7.02171e+02	2.50200e+03	-0.0253506	700.0
2504	7.02167e+02	2.50400e+03	-0.0253553	700.0
2506	7.02166e+02	2.50600e+03	-0.0253576	700.0
2508	7.02161e+02	2.50800e+03	-0.0253629	700.0
2510	7.02165e+02	2.51000e+03	-0.0253782	700.0
2512	7.02161e+02	2.51200e+03	-0.0254035	700.0
2514	7.02171e+02	2.51400e+03	-0.0254234	700.0
2516	7.02168e+02	2.51600e+03	-0.0254331	700.0
2518	7.02164e+02	2.51800e+03	-0.0254283	700.0
2520	7.02165e+02	2.52000e+03	-0.0253939	700.0
2522	7.02156e+02	2.52200e+03	-0.0253541	700.0
2524	7.02155e+02	2.52400e+03	-0.0253059	700.0
2526	7.02156e+02	2.52600e+03	-0.0252632	700.0
2528	7.02160e+02	2.52800e+03	-0.0252362	700.0
2530	7.02155e+02	2.53000e+03	-0.0252263	700.0
2532	7.02147e+02	2.53200e+03	-0.0252573	700.0
2534	7.02150e+02	2.53400e+03	-0.0253222	700.0
2536	7.02154e+02	2.53600e+03	-0.0254187	700.0
2538	7.02163e+02	2.53800e+03	-0.0254787	700.0
2540	7.02165e+02	2.54000e+03	-0.0254607	700.0
2542	7.02157e+02	2.54200e+03	-0.0253834	700.0
2544	7.02158e+02	2.54400e+03	-0.0252501	700.0
2546	7.02162e+02	2.54600e+03	-0.0251636	700.0
2548	7.02159e+02	2.54800e+03	-0.0251619	700.0
2550	7.02149e+02	2.55000e+03	-0.0252171	700.0
2552	7.02152e+02	2.55200e+03	-0.0253389	700.0
2554	7.02150e+02	2.55400e+03	-0.0254463	700.0
2556	7.02154e+02	2.55600e+03	-0.0254988	700.0
2558	7.02147e+02	2.55800e+03	-0.0254872	700.0
2560	7.02153e+02	2.56000e+03	-0.0253888	700.0
2562	7.02143e+02	2.56200e+03	-0.0252989	700.0
2564	7.02149e+02	2.56400e+03	-0.0252332	700.0
2566	7.02144e+02	2.56600e+03	-0.0252047	700.0
2568	7.02159e+02	2.56800e+03	-0.0252292	700.0
2570	7.02141e+02	2.57000e+03	-0.0252634	700.0
2572	7.02152e+02	2.57200e+03	-0.0253087	700.0
2574	7.02146e+02	2.57400e+03	-0.0253516	700.0
2576	7.02143e+02	2.57600e+03	-0.0253905	700.0
2578	7.02154e+02	2.57800e+03	-0.0254255	700.0
2580	7.02148e+02	2.58000e+03	-0.0254413	700.0
2582	7.02145e+02	2.58200e+03	-0.0254428	700.0
2584	7.02145e+02	2.58400e+03	-0.0254267	700.0
2586	7.02143e+02	2.58600e+03	-0.025411	700.0
2588	7.02147e+02	2.58800e+03	-0.0253951	700.0
2590	7.02132e+02	2.59000e+03	-0.0253784	700.0
2592	7.02148e+02	2.59200e+03	-0.0253652	700.0
2594	7.02152e+02	2.59400e+03	-0.0253607	700.0
2596	7.02147e+02	2.59600e+03	-0.0253687	700.0
2598	7.02140e+02	2.59800e+03	-0.0253801	700.0
2600	7.02140e+02	2.60000e+03	-0.0253973	700.0
2602	7.02147e+02	2.60200e+03	-0.0254156	700.0
2604	7.02151e+02	2.60400e+03	-0.0254325	700.0
2606	7.02154e+02	2.60600e+03	-0.0254441	700.0
2608	7.02143e+02	2.60800e+03	-0.0254451	700.0
2610	7.02140e+02	2.61000e+03	-0.0254361	700.0
2612	7.02143e+02	2.61200e+03	-0.0254113	700.0
2614	7.02147e+02	2.61400e+03	-0.0253841	700.0
2616	7.02148e+02	2.61600e+03	-0.0253637	700.0
2618	7.02144e+02	2.61800e+03	-0.0253655	700.0
2620	7.02143e+02	2.62000e+03	-0.0254016	700.0
2622	7.02140e+02	2.62200e+03	-0.0254502	700.0
2624	7.02138e+02	2.62400e+03	-0.0255112	700.0
2626	7.02140e+02	2.62600e+03	-0.0255516	700.0
2628	7.02139e+02	2.62800e+03	-0.0255616	700.0
2630	7.02144e+02	2.63000e+03	-0.0255549	700.0
2632	7.02145e+02	2.63200e+03	-0.0255173	700.0
2634	7.02124e+02	2.63400e+03	-0.0254575	700.0
2636	7.02134e+02	2.63600e+03	-0.0253813	700.0
2638	7.02137e+02	2.63800e+03	-0.0253199	700.0
2640	7.02135e+02	2.64000e+03	-0.0252859	700.0
2642	7.02139e+02	2.64200e+03	-0.0252736	700.0
2644	7.02129e+02	2.64400e+03	-0.0252928	700.0
2646	7.02138e+02	2.64600e+03	-0.0253191	700.0
2648	7.02138e+02	2.64800e+03	-0.0253515	700.0
2650	7.02131e+02	2.65000e+03	-0.0253773	700.0
2652	7.02129e+02	2.65200e+03	-0.0253926	700.0
2654	7.02123e+02	2.65400e+03	-0.025401	700.0
2656	7.02132e+02	2.65600e+03	-0.0253975	700.0
2658	7.02121e+02	2.65800e+03	-0.0253877	700.0
2660	7.02132e+02	2.66000e+03	-0.0253699	700.0
2662	7.02136e+02	2.66200e+03	-0.0253531	700.0
2664	7.02129e+02	2.66400e+03	-0.0253389	700.0
2666	7.02140e+02	2.66600e+03	-0.0253282	700.0
2668	7.02132e+02	2.66800e+03	-0.0253226	700.0
2670	7.02126e+02	2.67000e+03	-0.0253179	700.0
2672	7.02130e+02	2.67200e+03	-0.0253054	700.0
2674	7.02124e+02	2.67400e+03	-0.0252865	700.0
2676	7.02131e+02	2.67600e+03	-0.0252665	700.0
2678	7.02127e+02	2.67800e+03	-0.0252557	700.0
2680	7.02125e+02	2.68000e+03	-0.0252557	700.0
2682	7.02130e+02	2.68200e+03	-0.0252543	700.0
2684	7.02127e+02	2.68400e+03	-0.025254	700.0
2686	7.02130e+02	2.68600e+03	-0.025258	700.0
2688	7.02124e+02	2.68800e+03	-0.0252653	700.0
2690	7.02125e+02	2.69000e+03	-0.025271	700.0
2692	7.02124e+02	2.69200e+03	-0.0252774	700.0
2694	7.02118e+02	2.69400e+03	-0.025289	700.0
2696	7.02123e+02	2.69600e+03	-0.0253062	700.0
2698	7.02126e+02	2.69800e+03	-0.0253188	700.0
2700	7.02126e+02	2.70000e+03	-0.0253194	700.0
2702	7.02121e+02	2.70200e+03	-0.0253092	700.0
2704	7.02123e+02	2.70400e+03	-0.0252898	700.0
2706	7.02127e+02	2.70600e+03	-0.0252813	700.0
2708	7.02127e+02	2.70800e+03	-0.0252828	700.0
2710	7.02123e+02	2.71000e+03	-0.02528	700.0
2712	7.02125e+02	2.71200e+03	-0.0252808	700.0
2714	7.02131e+02	2.71400e+03	-0.0252814	700.0
2716	7.02118e+02	2.71600e+03	-0.0252829	700.0
2718	7.02115e+02	2.71800e+03	-0.0252943	700.0
2720	7.02128e+02	2.72000e+03	-0.0253044	700.0