File: Experiments/TUBS/tga_nonisotherm/tga_dynamic_n2_dyn30_piece_1mg_ega.txt
index	ts	t	weight	tr
[#]	[°C]	[s]	[mg]	[°C]
683	1.28913e+02	6.83000e+02	9.43312e-01	1.31500e+02
685	1.29909e+02	6.85000e+02	9.43273e-01	1.32500e+02
687	1.30966e+02	6.87000e+02	9.43228e-01	1.33500e+02
689	1.31989e+02	6.89000e+02	9.43178e-01	1.34500e+02
691	1.32989e+02	6.91000e+02	9.43137e-01	1.35500e+02
693	1.33957e+02	6.93000e+02	9.43109e-01	1.36500e+02
695	1.34939e+02	6.95000e+02	9.43084e-01	1.37500e+02
697	1.35922e+02	6.97000e+02	9.43060e-01	1.38500e+02
699	1.36904e+02	6.99000e+02	9.43024e-01	1.39500e+02
701	1.37876e+02	7.01000e+02	9.42975e-01	1.40500e+02
703	1.38864e+02	7.03000e+02	9.42930e-01	1.41500e+02
705	1.39851e+02	7.05000e+02	9.42890e-01	1.42500e+02
707	1.40853e+02	7.07000e+02	9.42858e-01	1.43500e+02
709	1.41830e+02	7.09000e+02	9.42832e-01	1.44500e+02
711	1.42796e+02	7.11000e+02	9.42633e-01	1.45500e+02
713	1.43759e+02	7.13000e+02	9.41578e-01	1.46500e+02
715	1.44779e+02	7.15000e+02	9.40014e-01	1.47500e+02
717	1.45804e+02	7.17000e+02	9.38162e-01	1.48500e+02
719	1.46807e+02	7.19000e+02	9.37505e-01	1.49500e+02
721	1.47819e+02	7.21000e+02	9.38372e-01	1.50500e+02
723	1.48811e+02	7.23000e+02	9.39363e-01	1.51500e+02
725	1.49798e+02	7.25000e+02	9.41089e-01	1.52500e+02
727	1.50820e+02	7.27000e+02	9.42214e-01	1.53500e+02
729	1.51798e+02	7.29000e+02	9.42814e-01	1.54500e+02
731	1.52802e+02	7.31000e+02	9.43323e-01	1.55500e+02
733	1.53797e+02	7.33000e+02	9.43427e-01	1.56500e+02
735	1.54787e+02	7.35000e+02	9.43571e-01	1.57500e+02
737	1.55786e+02	7.37000e+02	9.43554e-01	1.58500e+02
739	1.56789e+02	7.39000e+02	9.43549e-01	1.59500e+02
741	1.57787e+02	7.41000e+02	9.43479e-01	1.60500e+02
743	1.58781e+02	7.43000e+02	9.43418e-01	1.61500e+02
745	1.59785e+02	7.45000e+02	9.43336e-01	1.62500e+02
747	1.60787e+02	7.47000e+02	9.43256e-01	1.63500e+02
749	1.61784e+02	7.49000e+02	9.43177e-01	1.64500e+02
751	1.62800e+02	7.51000e+02	9.43103e-01	1.65500e+02
753	1.63798e+02	7.53000e+02	9.43032e-01	1.66500e+02
755	1.64810e+02	7.55000e+02	9.42953e-01	1.67500e+02
757	1.65817e+02	7.57000e+02	9.42867e-01	1.68500e+02
759	1.66813e+02	7.59000e+02	9.42783e-01	1.69500e+02
761	1.67826e+02	7.61000e+02	9.42700e-01	1.70500e+02
763	1.68832e+02	7.63000e+02	9.42626e-01	1.71500e+02
765	1.69834e+02	7.65000e+02	9.42557e-01	1.72500e+02
767	1.70856e+02	7.67000e+02	9.42481e-01	1.73500e+02
769	1.71866e+02	7.69000e+02	9.42348e-01	1.74500e+02
771	1.72779e+02	7.71000e+02	9.41845e-01	1.75500e+02
773	1.73820e+02	7.73000e+02	9.40247e-01	1.76500e+02
775	1.74854e+02	7.75000e+02	9.38376e-01	1.77500e+02
777	1.75856e+02	7.77000e+02	9.36507e-01	1.78500e+02
779	1.76882e+02	7.79000e+02	9.36045e-01	1.79500e+02
781	1.77875e+02	7.81000e+02	9.37433e-01	1.80500e+02
783	1.78889e+02	7.83000e+02	9.38642e-01	1.81500e+02
785	1.79901e+02	7.85000e+02	9.40334e-01	1.82500e+02
787	1.80920e+02	7.87000e+02	9.41440e-01	1.83500e+02
789	1.81937e+02	7.89000e+02	9.41916e-01	1.84500e+02
791	1.82938e+02	7.91000e+02	9.42327e-01	1.85500e+02
793	1.83942e+02	7.93000e+02	9.42320e-01	1.86500e+02
795	1.84945e+02	7.95000e+02	9.42361e-01	1.87500e+02
797	1.85966e+02	7.97000e+02	9.42252e-01	1.88500e+02
799	1.86964e+02	7.99000e+02	9.42161e-01	1.89500e+02
801	1.87965e+02	8.01000e+02	9.42019e-01	1.90500e+02
803	1.88976e+02	8.03000e+02	9.41884e-01	1.91500e+02
805	1.89968e+02	8.05000e+02	9.41731e-01	1.92500e+02
807	1.90972e+02	8.07000e+02	9.41585e-01	1.93500e+02
809	1.91990e+02	8.09000e+02	9.41448e-01	1.94500e+02
811	1.92993e+02	8.11000e+02	9.41320e-01	1.95500e+02
813	1.93992e+02	8.13000e+02	9.41207e-01	1.96500e+02
815	1.94999e+02	8.15000e+02	9.41089e-01	1.97500e+02
817	1.96002e+02	8.17000e+02	9.40963e-01	1.98500e+02
819	1.97020e+02	8.19000e+02	9.40821e-01	1.99500e+02
821	1.98056e+02	8.21000e+02	9.40648e-01	2.00500e+02
823	1.99070e+02	8.23000e+02	9.40466e-01	2.01500e+02
825	2.00074e+02	8.25000e+02	9.40253e-01	2.02500e+02
827	2.01101e+02	8.27000e+02	9.40041e-01	2.03500e+02
829	2.02117e+02	8.29000e+02	9.39627e-01	2.04500e+02
831	2.03013e+02	8.31000e+02	9.38531e-01	2.05500e+02
833	2.04096e+02	8.33000e+02	9.36193e-01	2.06500e+02
835	2.05131e+02	8.35000e+02	9.34031e-01	2.07500e+02
837	2.06162e+02	8.37000e+02	9.32338e-01	2.08500e+02
839	2.07169e+02	8.39000e+02	9.32113e-01	2.09500e+02
841	2.08200e+02	8.41000e+02	9.33930e-01	2.10500e+02
843	2.09225e+02	8.43000e+02	9.35200e-01	2.11500e+02
845	2.10244e+02	8.45000e+02	9.36562e-01	2.12500e+02
847	2.11267e+02	8.47000e+02	9.37414e-01	2.13500e+02
849	2.12287e+02	8.49000e+02	9.37564e-01	2.14500e+02
851	2.13317e+02	8.51000e+02	9.37713e-01	2.15500e+02
853	2.14359e+02	8.53000e+02	9.37505e-01	2.16500e+02
855	2.15387e+02	8.55000e+02	9.37355e-01	2.17500e+02
857	2.16441e+02	8.57000e+02	9.37112e-01	2.18500e+02
859	2.17475e+02	8.59000e+02	9.36834e-01	2.19500e+02
861	2.18374e+02	8.61000e+02	9.35907e-01	2.20500e+02
863	2.19460e+02	8.63000e+02	9.34303e-01	2.21500e+02
865	2.20488e+02	8.65000e+02	9.32103e-01	2.22500e+02
867	2.21521e+02	8.67000e+02	9.30836e-01	2.23500e+02
869	2.22547e+02	8.69000e+02	9.30756e-01	2.24500e+02
871	2.23567e+02	8.71000e+02	9.31174e-01	2.25500e+02
873	2.24559e+02	8.73000e+02	9.32670e-01	2.26500e+02
875	2.25608e+02	8.75000e+02	9.33558e-01	2.27500e+02
877	2.26636e+02	8.77000e+02	9.34058e-01	2.28500e+02
879	2.27643e+02	8.79000e+02	9.34381e-01	2.29500e+02
881	2.28660e+02	8.81000e+02	9.34253e-01	2.30500e+02
883	2.29703e+02	8.83000e+02	9.34169e-01	2.31500e+02
885	2.30741e+02	8.85000e+02	9.33917e-01	2.32500e+02
887	2.31884e+02	8.87000e+02	9.33683e-01	2.33500e+02
889	2.33014e+02	8.89000e+02	9.33241e-01	2.34500e+02
891	2.33990e+02	8.91000e+02	9.32288e-01	2.35500e+02
893	2.35038e+02	8.93000e+02	9.30458e-01	2.36500e+02
895	2.36081e+02	8.95000e+02	9.28816e-01	2.37500e+02
897	2.37120e+02	8.97000e+02	9.27536e-01	2.38500e+02
899	2.38151e+02	8.99000e+02	9.27231e-01	2.39500e+02
901	2.39169e+02	9.01000e+02	9.28303e-01	2.40500e+02
903	2.40213e+02	9.03000e+02	9.28981e-01	2.41500e+02
905	2.41252e+02	9.05000e+02	9.29693e-01	2.42500e+02
907	2.42284e+02	9.07000e+02	9.30082e-01	2.43500e+02
909	2.43328e+02	9.09000e+02	9.30014e-01	2.44500e+02
911	2.44352e+02	9.11000e+02	9.29939e-01	2.45500e+02
913	2.45429e+02	9.13000e+02	9.29630e-01	2.46500e+02
915	2.46488e+02	9.15000e+02	9.29363e-01	2.47500e+02
917	2.47480e+02	9.17000e+02	9.29035e-01	2.48500e+02
919	2.48512e+02	9.19000e+02	9.28720e-01	2.49500e+02
921	2.49516e+02	9.21000e+02	9.28388e-01	2.50500e+02
923	2.50552e+02	9.23000e+02	9.28052e-01	2.51500e+02
925	2.51587e+02	9.25000e+02	9.27704e-01	2.52500e+02
927	2.52608e+02	9.27000e+02	9.27353e-01	2.53500e+02
929	2.53646e+02	9.29000e+02	9.26992e-01	2.54500e+02
931	2.54705e+02	9.31000e+02	9.26626e-01	2.55500e+02
933	2.55770e+02	9.33000e+02	9.26255e-01	2.56500e+02
935	2.56862e+02	9.35000e+02	9.25888e-01	2.57500e+02
937	2.57897e+02	9.37000e+02	9.25527e-01	2.58500e+02
939	2.58988e+02	9.39000e+02	9.25159e-01	2.59500e+02
941	2.60019e+02	9.41000e+02	9.24779e-01	2.60500e+02
943	2.61061e+02	9.43000e+02	9.24398e-01	2.61500e+02
945	2.62073e+02	9.45000e+02	9.24007e-01	2.62500e+02
947	2.63097e+02	9.47000e+02	9.23584e-01	2.63500e+02
949	2.64008e+02	9.49000e+02	9.22496e-01	2.64500e+02
951	2.65136e+02	9.51000e+02	9.20535e-01	2.65500e+02
953	2.66184e+02	9.53000e+02	9.17715e-01	2.66500e+02
955	2.67229e+02	9.55000e+02	9.15911e-01	2.67500e+02
957	2.68266e+02	9.57000e+02	9.15435e-01	2.68500e+02
959	2.69291e+02	9.59000e+02	9.15763e-01	2.69500e+02
961	2.70327e+02	9.61000e+02	9.17607e-01	2.70500e+02
963	2.71337e+02	9.63000e+02	9.18694e-01	2.71500e+02
965	2.72339e+02	9.65000e+02	9.19382e-01	2.72500e+02
967	2.73304e+02	9.67000e+02	9.19807e-01	2.73500e+02
969	2.74298e+02	9.69000e+02	9.19630e-01	2.74500e+02
971	2.75297e+02	9.71000e+02	9.19485e-01	2.75500e+02
973	2.76301e+02	9.73000e+02	9.19081e-01	2.76500e+02
975	2.77319e+02	9.75000e+02	9.18723e-01	2.77500e+02
977	2.78381e+02	9.77000e+02	9.18302e-01	2.78500e+02
979	2.79400e+02	9.79000e+02	9.17886e-01	2.79500e+02
981	2.80404e+02	9.81000e+02	9.17441e-01	2.80500e+02
983	2.81409e+02	9.83000e+02	9.16985e-01	2.81500e+02
985	2.82439e+02	9.85000e+02	9.16513e-01	2.82500e+02
987	2.83433e+02	9.87000e+02	9.16057e-01	2.83500e+02
989	2.84443e+02	9.89000e+02	9.15615e-01	2.84500e+02
991	2.85443e+02	9.91000e+02	9.15176e-01	2.85500e+02
993	2.86458e+02	9.93000e+02	9.14747e-01	2.86500e+02
995	2.87460e+02	9.95000e+02	9.14303e-01	2.87500e+02
997	2.88462e+02	9.97000e+02	9.13850e-01	2.88500e+02
999	2.89461e+02	9.99000e+02	9.13388e-01	2.89500e+02
1001	2.90451e+02	1.00100e+03	9.12907e-01	2.90500e+02
1003	2.91469e+02	1.00300e+03	9.12422e-01	2.91500e+02
1005	2.92450e+02	1.00500e+03	9.11906e-01	2.92500e+02
1007	2.93454e+02	1.00700e+03	9.11246e-01	2.93500e+02
1009	2.94351e+02	1.00900e+03	9.09692e-01	2.94500e+02
1011	2.95410e+02	1.01100e+03	9.07442e-01	2.95500e+02
1013	2.96443e+02	1.01300e+03	9.04624e-01	2.96500e+02
1015	2.97457e+02	1.01500e+03	9.02996e-01	2.97500e+02
1017	2.98489e+02	1.01700e+03	9.02856e-01	2.98500e+02
1019	2.99477e+02	1.01900e+03	9.03076e-01	2.99500e+02
1021	3.00488e+02	1.02100e+03	9.04313e-01	3.00500e+02
1023	3.01497e+02	1.02300e+03	9.04876e-01	3.01500e+02
1025	3.02493e+02	1.02500e+03	9.04942e-01	3.02500e+02
1027	3.03518e+02	1.02700e+03	9.04847e-01	3.03500e+02
1029	3.04555e+02	1.02900e+03	9.04251e-01	3.04500e+02
1031	3.05587e+02	1.03100e+03	9.03671e-01	3.05500e+02
1033	3.06605e+02	1.03300e+03	9.02860e-01	3.06500e+02
1035	3.07608e+02	1.03500e+03	9.02078e-01	3.07500e+02
1037	3.08632e+02	1.03700e+03	9.01214e-01	3.08500e+02
1039	3.09658e+02	1.03900e+03	9.00351e-01	3.09500e+02
1041	3.10713e+02	1.04100e+03	8.99440e-01	3.10500e+02
1043	3.11706e+02	1.04300e+03	8.98517e-01	3.11500e+02
1045	3.12705e+02	1.04500e+03	8.97550e-01	3.12500e+02
1047	3.13696e+02	1.04700e+03	8.96580e-01	3.13500e+02
1049	3.14691e+02	1.04900e+03	8.95582e-01	3.14500e+02
1051	3.15705e+02	1.05100e+03	8.94580e-01	3.15500e+02
1053	3.16709e+02	1.05300e+03	8.93556e-01	3.16500e+02
1055	3.17715e+02	1.05500e+03	8.92520e-01	3.17500e+02
1057	3.18725e+02	1.05700e+03	8.91441e-01	3.18500e+02
1059	3.19729e+02	1.05900e+03	8.90349e-01	3.19500e+02
1061	3.20713e+02	1.06100e+03	8.89213e-01	3.20500e+02
1063	3.21722e+02	1.06300e+03	8.88083e-01	3.21500e+02
1065	3.22699e+02	1.06500e+03	8.86895e-01	3.22500e+02
1067	3.23606e+02	1.06700e+03	8.85314e-01	3.23500e+02
1069	3.24585e+02	1.06900e+03	8.82183e-01	3.24500e+02
1071	3.25621e+02	1.07100e+03	8.78314e-01	3.25500e+02
1073	3.26638e+02	1.07300e+03	8.74026e-01	3.26500e+02
1075	3.27661e+02	1.07500e+03	8.70703e-01	3.27500e+02
1077	3.28688e+02	1.07700e+03	8.71854e-01	3.28500e+02
1079	3.29692e+02	1.07900e+03	8.72328e-01	3.29500e+02
1081	3.30696e+02	1.08100e+03	8.73862e-01	3.30500e+02
1083	3.31696e+02	1.08300e+03	8.74412e-01	3.31500e+02
1085	3.32713e+02	1.08500e+03	8.74008e-01	3.32500e+02
1087	3.33720e+02	1.08700e+03	8.73435e-01	3.33500e+02
1089	3.34737e+02	1.08900e+03	8.72117e-01	3.34500e+02
1091	3.35746e+02	1.09100e+03	8.70867e-01	3.35500e+02
1093	3.36768e+02	1.09300e+03	8.69320e-01	3.36500e+02
1095	3.37775e+02	1.09500e+03	8.67788e-01	3.37500e+02
1097	3.38779e+02	1.09700e+03	8.66106e-01	3.38500e+02
1099	3.39784e+02	1.09900e+03	8.64386e-01	3.39500e+02
1101	3.40809e+02	1.10100e+03	8.62499e-01	3.40500e+02
1103	3.41809e+02	1.10300e+03	8.60559e-01	3.41500e+02
1105	3.42817e+02	1.10500e+03	8.58431e-01	3.42500e+02
1107	3.43829e+02	1.10700e+03	8.56265e-01	3.43500e+02
1109	3.44833e+02	1.10900e+03	8.53912e-01	3.44500e+02
1111	3.45833e+02	1.11100e+03	8.51511e-01	3.45500e+02
1113	3.46834e+02	1.11300e+03	8.48906e-01	3.46500e+02
1115	3.47850e+02	1.11500e+03	8.46231e-01	3.47500e+02
1117	3.48847e+02	1.11700e+03	8.43293e-01	3.48500e+02
1119	3.49842e+02	1.11900e+03	8.40255e-01	3.49500e+02
1121	3.50839e+02	1.12100e+03	8.36863e-01	3.50500e+02
1123	3.51848e+02	1.12300e+03	8.33329e-01	3.51500e+02
1125	3.52870e+02	1.12500e+03	8.29153e-01	3.52500e+02
1127	3.53721e+02	1.12700e+03	8.24191e-01	3.53500e+02
1129	3.54809e+02	1.12900e+03	8.17392e-01	3.54500e+02
1131	3.55823e+02	1.13100e+03	8.10416e-01	3.55500e+02
1133	3.56824e+02	1.13300e+03	8.02981e-01	3.56500e+02
1135	3.57826e+02	1.13500e+03	7.96801e-01	3.57500e+02
1137	3.58829e+02	1.13700e+03	7.91905e-01	3.58500e+02
1139	3.59830e+02	1.13900e+03	7.86564e-01	3.59500e+02
1141	3.60838e+02	1.14100e+03	7.81007e-01	3.60500e+02
1143	3.61838e+02	1.14300e+03	7.74841e-01	3.61500e+02
1145	3.62843e+02	1.14500e+03	7.67536e-01	3.62500e+02
1147	3.63837e+02	1.14700e+03	7.59979e-01	3.63500e+02
1149	3.64842e+02	1.14900e+03	7.51340e-01	3.64500e+02
1151	3.65855e+02	1.15100e+03	7.42518e-01	3.65500e+02
1153	3.66843e+02	1.15300e+03	7.32777e-01	3.66500e+02
1155	3.67842e+02	1.15500e+03	7.22904e-01	3.67500e+02
1157	3.68847e+02	1.15700e+03	7.12200e-01	3.68500e+02
1159	3.69860e+02	1.15900e+03	7.01187e-01	3.69500e+02
1161	3.70859e+02	1.16100e+03	6.89006e-01	3.70500e+02
1163	3.71861e+02	1.16300e+03	6.76365e-01	3.71500e+02
1165	3.72862e+02	1.16500e+03	6.62372e-01	3.72500e+02
1167	3.73861e+02	1.16700e+03	6.48251e-01	3.73500e+02
1169	3.74842e+02	1.16900e+03	6.33178e-01	3.74500e+02
1171	3.75856e+02	1.17100e+03	6.18063e-01	3.75500e+02
1173	3.76852e+02	1.17300e+03	6.02352e-01	3.76500e+02
1175	3.77845e+02	1.17500e+03	5.86582e-01	3.77500e+02
1177	3.78842e+02	1.17700e+03	5.70342e-01	3.78500e+02
1179	3.79821e+02	1.17900e+03	5.53989e-01	3.79500e+02
1181	3.80823e+02	1.18100e+03	5.37174e-01	3.80500e+02
1183	3.81827e+02	1.18300e+03	5.20249e-01	3.81500e+02
1185	3.82740e+02	1.18500e+03	5.02504e-01	3.82500e+02
1187	3.83722e+02	1.18700e+03	4.83820e-01	3.83500e+02
1189	3.84746e+02	1.18900e+03	4.63629e-01	3.84500e+02
1191	3.85767e+02	1.19100e+03	4.43978e-01	3.85500e+02
1193	3.86770e+02	1.19300e+03	4.24960e-01	3.86500e+02
1195	3.87770e+02	1.19500e+03	4.07220e-01	3.87500e+02
1197	3.88762e+02	1.19700e+03	3.91347e-01	3.88500e+02
1199	3.89758e+02	1.19900e+03	3.74863e-01	3.89500e+02
1201	3.90827e+02	1.20100e+03	3.58392e-01	3.90500e+02
1203	3.91447e+02	1.20300e+03	3.41598e-01	3.91500e+02
1205	3.92434e+02	1.20500e+03	3.24321e-01	3.92500e+02
1207	3.93418e+02	1.20700e+03	3.07083e-01	3.93500e+02
1209	3.94421e+02	1.20900e+03	2.89697e-01	3.94500e+02
1211	3.95401e+02	1.21100e+03	2.72431e-01	3.95500e+02
1213	3.96379e+02	1.21300e+03	2.55285e-01	3.96500e+02
1215	3.97364e+02	1.21500e+03	2.38214e-01	3.97500e+02
1217	3.98336e+02	1.21700e+03	2.21396e-01	3.98500e+02
1219	3.99309e+02	1.21900e+03	2.04731e-01	3.99500e+02
1221	4.00299e+02	1.22100e+03	1.88517e-01	4.00500e+02
1223	4.01304e+02	1.22300e+03	1.72515e-01	4.01500e+02
1225	4.02288e+02	1.22500e+03	1.57230e-01	4.02500e+02
1227	4.03282e+02	1.22700e+03	1.42248e-01	4.03500e+02
1229	4.04281e+02	1.22900e+03	1.28263e-01	4.04500e+02
1231	4.05263e+02	1.23100e+03	1.14611e-01	4.05500e+02
1233	4.06271e+02	1.23300e+03	1.02151e-01	4.06500e+02
1235	4.07261e+02	1.23500e+03	9.00179e-02	4.07500e+02
1237	4.08251e+02	1.23700e+03	7.91513e-02	4.08500e+02
1239	4.09238e+02	1.23900e+03	6.85635e-02	4.09500e+02
1241	4.10228e+02	1.24100e+03	5.91957e-02	4.10500e+02
1243	4.11216e+02	1.24300e+03	5.00685e-02	4.11500e+02
1245	4.12239e+02	1.24500e+03	4.20595e-02	4.12500e+02
1247	4.13279e+02	1.24700e+03	3.42744e-02	4.13500e+02
1249	4.14305e+02	1.24900e+03	2.75178e-02	4.14500e+02
1251	4.15330e+02	1.25100e+03	2.09646e-02	4.15500e+02
1253	4.16336e+02	1.25300e+03	1.53489e-02	4.16500e+02
1255	4.17328e+02	1.25500e+03	9.90740e-03	4.17500e+02
1257	4.18316e+02	1.25700e+03	5.30149e-03	4.18500e+02
1259	4.19309e+02	1.25900e+03	8.46355e-04	4.19500e+02
1261	4.20310e+02	1.26100e+03	-2.86946e-03	4.20500e+02
1263	4.21325e+02	1.26300e+03	-6.45569e-03	4.21500e+02
1265	4.22305e+02	1.26500e+03	-9.40078e-03	4.22500e+02
1267	4.23321e+02	1.26700e+03	-1.22418e-02	4.23500e+02
1269	4.24319e+02	1.26900e+03	-1.45503e-02	4.24500e+02
1271	4.25394e+02	1.27100e+03	-1.67850e-02	4.25500e+02
1273	4.26526e+02	1.27300e+03	-1.85921e-02	4.26500e+02
1275	4.27523e+02	1.27500e+03	-2.03396e-02	4.27500e+02
1277	4.28497e+02	1.27700e+03	-2.17361e-02	4.28500e+02
1279	4.29490e+02	1.27900e+03	-2.30821e-02	4.29500e+02
1281	4.30470e+02	1.28100e+03	-2.41524e-02	4.30500e+02
1283	4.31460e+02	1.28300e+03	-2.51953e-02	4.31500e+02
1285	4.32438e+02	1.28500e+03	-2.60395e-02	4.32500e+02
1287	4.33434e+02	1.28700e+03	-2.68667e-02	4.33500e+02
1289	4.34401e+02	1.28900e+03	-2.75518e-02	4.34500e+02
1291	4.35389e+02	1.29100e+03	-2.82209e-02	4.35500e+02
1293	4.36381e+02	1.29300e+03	-2.87687e-02	4.36500e+02
1295	4.37386e+02	1.29500e+03	-2.92938e-02	4.37500e+02
1297	4.38379e+02	1.29700e+03	-2.97075e-02	4.38500e+02
1299	4.39400e+02	1.29900e+03	-3.01091e-02	4.39500e+02
1301	4.40412e+02	1.30100e+03	-3.04374e-02	4.40500e+02
1303	4.41448e+02	1.30300e+03	-3.08559e-02	4.41500e+02
1305	4.42354e+02	1.30500e+03	-3.19127e-02	4.42500e+02
1307	4.43394e+02	1.30700e+03	-3.35281e-02	4.43500e+02
1309	4.44375e+02	1.30900e+03	-3.55234e-02	4.44500e+02
1311	4.45343e+02	1.31100e+03	-3.65309e-02	4.45500e+02
1313	4.46301e+02	1.31300e+03	-3.62601e-02	4.46500e+02
1315	4.47272e+02	1.31500e+03	-3.56919e-02	4.47500e+02
1317	4.48268e+02	1.31700e+03	-3.42596e-02	4.48500e+02
1319	4.49275e+02	1.31900e+03	-3.33881e-02	4.49500e+02
1321	4.50290e+02	1.32100e+03	-3.29168e-02	4.50500e+02
1323	4.51287e+02	1.32300e+03	-3.25605e-02	4.51500e+02
1325	4.52304e+02	1.32500e+03	-3.25566e-02	4.52500e+02
1327	4.53340e+02	1.32700e+03	-3.24847e-02	4.53500e+02
1329	4.54379e+02	1.32900e+03	-3.24881e-02	4.54500e+02
1331	4.55378e+02	1.33100e+03	-3.24626e-02	4.55500e+02
1333	4.56390e+02	1.33300e+03	-3.24409e-02	4.56500e+02
1335	4.57405e+02	1.33500e+03	-3.24290e-02	4.57500e+02
1337	4.58393e+02	1.33700e+03	-3.24383e-02	4.58500e+02
1339	4.59353e+02	1.33900e+03	-3.24609e-02	4.59500e+02
1341	4.60320e+02	1.34100e+03	-3.25108e-02	4.60500e+02
1343	4.61293e+02	1.34300e+03	-3.25538e-02	4.61500e+02
1345	4.62272e+02	1.34500e+03	-3.25893e-02	4.62500e+02
1347	4.63255e+02	1.34700e+03	-3.26088e-02	4.63500e+02
1349	4.64255e+02	1.34900e+03	-3.26132e-02	4.64500e+02
1351	4.65259e+02	1.35100e+03	-3.26345e-02	4.65500e+02
1353	4.66258e+02	1.35300e+03	-3.26635e-02	4.66500e+02
1355	4.67235e+02	1.35500e+03	-3.26857e-02	4.67500e+02
1357	4.68242e+02	1.35700e+03	-3.27043e-02	4.68500e+02
1359	4.69241e+02	1.35900e+03	-3.27140e-02	4.69500e+02
1361	4.70234e+02	1.36100e+03	-3.27100e-02	4.70500e+02
1363	4.71249e+02	1.36300e+03	-3.27094e-02	4.71500e+02
1365	4.72238e+02	1.36500e+03	-3.27080e-02	4.72500e+02
1367	4.73253e+02	1.36700e+03	-3.27125e-02	4.73500e+02
1369	4.74262e+02	1.36900e+03	-3.27179e-02	4.74500e+02
1371	4.75280e+02	1.37100e+03	-3.27154e-02	4.75500e+02
1373	4.76269e+02	1.37300e+03	-3.27056e-02	4.76500e+02
1375	4.77235e+02	1.37500e+03	-3.26978e-02	4.77500e+02
1377	4.78197e+02	1.37700e+03	-3.26919e-02	4.78500e+02
1379	4.79180e+02	1.37900e+03	-3.26877e-02	4.79500e+02
1381	4.80119e+02	1.38100e+03	-3.26923e-02	4.80500e+02
1383	4.81066e+02	1.38300e+03	-3.26996e-02	4.81500e+02
1385	4.82038e+02	1.38500e+03	-3.27141e-02	4.82500e+02
1387	4.83027e+02	1.38700e+03	-3.27237e-02	4.83500e+02
1389	4.84018e+02	1.38900e+03	-3.27268e-02	4.84500e+02
1391	4.84986e+02	1.39100e+03	-3.27253e-02	4.85500e+02
1393	4.85954e+02	1.39300e+03	-3.27225e-02	4.86500e+02
1395	4.86930e+02	1.39500e+03	-3.27359e-02	4.87500e+02
1397	4.87918e+02	1.39700e+03	-3.27751e-02	4.88500e+02
1399	4.88920e+02	1.39900e+03	-3.28203e-02	4.89500e+02
1401	4.89944e+02	1.40100e+03	-3.28755e-02	4.90500e+02
1403	4.90944e+02	1.40300e+03	-3.29087e-02	4.91500e+02
1405	4.91944e+02	1.40500e+03	-3.29106e-02	4.92500e+02
1407	4.92940e+02	1.40700e+03	-3.29111e-02	4.93500e+02
1409	4.93917e+02	1.40900e+03	-3.28973e-02	4.94500e+02
1411	4.94848e+02	1.41100e+03	-3.28931e-02	4.95500e+02
1413	4.95809e+02	1.41300e+03	-3.28887e-02	4.96500e+02
1415	4.96803e+02	1.41500e+03	-3.28752e-02	4.97500e+02
1417	4.97833e+02	1.41700e+03	-3.28476e-02	4.98500e+02
1419	4.98845e+02	1.41900e+03	-3.28143e-02	4.99500e+02
1421	4.99854e+02	1.42100e+03	-3.28793e-02	5.00500e+02
1423	5.00671e+02	1.42300e+03	-3.34429e-02	5.01500e+02
1425	5.01755e+02	1.42500e+03	-3.50825e-02	5.02500e+02
1427	5.02745e+02	1.42700e+03	-3.67760e-02	5.03500e+02
1429	5.03720e+02	1.42900e+03	-3.83239e-02	5.04500e+02
1431	5.04711e+02	1.43100e+03	-3.86168e-02	5.05500e+02
1433	5.05741e+02	1.43300e+03	-3.72323e-02	5.06500e+02
1435	5.06739e+02	1.43500e+03	-3.61494e-02	5.07500e+02
1437	5.07736e+02	1.43700e+03	-3.47877e-02	5.08500e+02
1439	5.08726e+02	1.43900e+03	-3.38642e-02	5.09500e+02
1441	5.09709e+02	1.44100e+03	-3.34557e-02	5.10500e+02
1443	5.10660e+02	1.44300e+03	-3.30777e-02	5.11500e+02
1445	5.11667e+02	1.44500e+03	-3.30059e-02	5.12500e+02
1447	5.12655e+02	1.44700e+03	-3.28946e-02	5.13500e+02
1449	5.13614e+02	1.44900e+03	-3.28810e-02	5.14500e+02
1451	5.14620e+02	1.45100e+03	-3.28455e-02	5.15500e+02
1453	5.15583e+02	1.45300e+03	-3.28287e-02	5.16500e+02
1455	5.16568e+02	1.45500e+03	-3.28058e-02	5.17500e+02
1457	5.17548e+02	1.45700e+03	-3.27933e-02	5.18500e+02
1459	5.18507e+02	1.45900e+03	-3.27907e-02	5.19500e+02
1461	5.19479e+02	1.46100e+03	-3.28054e-02	5.20500e+02
1463	5.20449e+02	1.46300e+03	-3.28178e-02	5.21500e+02
1465	5.21426e+02	1.46500e+03	-3.28364e-02	5.22500e+02
1467	5.22385e+02	1.46700e+03	-3.28491e-02	5.23500e+02
1469	5.23372e+02	1.46900e+03	-3.28458e-02	5.24500e+02
1471	5.24378e+02	1.47100e+03	-3.28297e-02	5.25500e+02
1473	5.25406e+02	1.47300e+03	-3.27860e-02	5.26500e+02
1475	5.26407e+02	1.47500e+03	-3.27476e-02	5.27500e+02
1477	5.27388e+02	1.47700e+03	-3.27152e-02	5.28500e+02
1479	5.28377e+02	1.47900e+03	-3.26986e-02	5.29500e+02
1481	5.29363e+02	1.48100e+03	-3.27116e-02	5.30500e+02
1483	5.30346e+02	1.48300e+03	-3.27237e-02	5.31500e+02
1485	5.31350e+02	1.48500e+03	-3.27460e-02	5.32500e+02
1487	5.32291e+02	1.48700e+03	-3.27585e-02	5.33500e+02
1489	5.33282e+02	1.48900e+03	-3.27667e-02	5.34500e+02
1491	5.34257e+02	1.49100e+03	-3.27748e-02	5.35500e+02
1493	5.35226e+02	1.49300e+03	-3.27745e-02	5.36500e+02
1495	5.36160e+02	1.49500e+03	-3.27670e-02	5.37500e+02
1497	5.37112e+02	1.49700e+03	-3.27430e-02	5.38500e+02
1499	5.38081e+02	1.49900e+03	-3.27155e-02	5.39500e+02
1501	5.39049e+02	1.50100e+03	-3.26748e-02	5.40500e+02
1503	5.40028e+02	1.50300e+03	-3.26334e-02	5.41500e+02
1505	5.41018e+02	1.50500e+03	-3.25857e-02	5.42500e+02
1507	5.41993e+02	1.50700e+03	-3.25379e-02	5.43500e+02
1509	5.42970e+02	1.50900e+03	-3.24869e-02	5.44500e+02
1511	5.43961e+02	1.51100e+03	-3.24397e-02	5.45500e+02
1513	5.44930e+02	1.51300e+03	-3.24070e-02	5.46500e+02
1515	5.45927e+02	1.51500e+03	-3.23921e-02	5.47500e+02
1517	5.46906e+02	1.51700e+03	-3.24078e-02	5.48500e+02
1519	5.47884e+02	1.51900e+03	-3.24189e-02	5.49500e+02
1521	5.48867e+02	1.52100e+03	-3.24377e-02	5.50500e+02
1523	5.49855e+02	1.52300e+03	-3.24524e-02	5.51500e+02
1525	5.50830e+02	1.52500e+03	-3.24680e-02	5.52500e+02
1527	5.51830e+02	1.52700e+03	-3.24871e-02	5.53500e+02
1529	5.52819e+02	1.52900e+03	-3.24974e-02	5.54500e+02
1531	5.53820e+02	1.53100e+03	-3.24898e-02	5.55500e+02
1533	5.54817e+02	1.53300e+03	-3.24625e-02	5.56500e+02
1535	5.55804e+02	1.53500e+03	-3.24456e-02	5.57500e+02
1537	5.56788e+02	1.53700e+03	-3.24308e-02	5.58500e+02
1539	5.57791e+02	1.53900e+03	-3.24197e-02	5.59500e+02
1541	5.58782e+02	1.54100e+03	-3.24137e-02	5.60500e+02
1543	5.59765e+02	1.54300e+03	-3.23984e-02	5.61500e+02
1545	5.60772e+02	1.54500e+03	-3.23668e-02	5.62500e+02
1547	5.61745e+02	1.54700e+03	-3.23339e-02	5.63500e+02
1549	5.62789e+02	1.54900e+03	-3.23003e-02	5.64500e+02
1551	5.63811e+02	1.55100e+03	-3.22809e-02	5.65500e+02
1553	5.64809e+02	1.55300e+03	-3.22681e-02	5.66500e+02
1555	5.65941e+02	1.55500e+03	-3.22393e-02	5.67500e+02
1557	5.66898e+02	1.55700e+03	-3.21987e-02	5.68500e+02
1559	5.67846e+02	1.55900e+03	-3.21650e-02	5.69500e+02
1561	5.68813e+02	1.56100e+03	-3.21411e-02	5.70500e+02
1563	5.69730e+02	1.56300e+03	-3.21234e-02	5.71500e+02
1565	5.70720e+02	1.56500e+03	-3.21155e-02	5.72500e+02
1567	5.71774e+02	1.56700e+03	-3.20996e-02	5.73500e+02
1569	5.72688e+02	1.56900e+03	-3.20743e-02	5.74500e+02
1571	5.73647e+02	1.57100e+03	-3.20443e-02	5.75500e+02
1573	5.74641e+02	1.57300e+03	-3.20003e-02	5.76500e+02
1575	5.75573e+02	1.57500e+03	-3.19563e-02	5.77500e+02
1577	5.76470e+02	1.57700e+03	-3.19089e-02	5.78500e+02
1579	5.77408e+02	1.57900e+03	-3.18677e-02	5.79500e+02
1581	5.78367e+02	1.58100e+03	-3.18326e-02	5.80500e+02
1583	5.79347e+02	1.58300e+03	-3.17965e-02	5.81500e+02
1585	5.80322e+02	1.58500e+03	-3.17565e-02	5.82500e+02
1587	5.81284e+02	1.58700e+03	-3.17115e-02	5.83500e+02
1589	5.82247e+02	1.58900e+03	-3.16653e-02	5.84500e+02
1591	5.83217e+02	1.59100e+03	-3.16310e-02	5.85500e+02
1593	5.84204e+02	1.59300e+03	-3.16201e-02	5.86500e+02
1595	5.85174e+02	1.59500e+03	-3.16172e-02	5.87500e+02
1597	5.86153e+02	1.59700e+03	-3.16362e-02	5.88500e+02
1599	5.87117e+02	1.59900e+03	-3.16427e-02	5.89500e+02
1601	5.88096e+02	1.60100e+03	-3.16300e-02	5.90500e+02
1603	5.89055e+02	1.60300e+03	-3.15986e-02	5.91500e+02
1605	5.90035e+02	1.60500e+03	-3.15258e-02	5.92500e+02
1607	5.91010e+02	1.60700e+03	-3.14565e-02	5.93500e+02
1609	5.92001e+02	1.60900e+03	-3.13806e-02	5.94500e+02
1611	5.92968e+02	1.61100e+03	-3.13259e-02	5.95500e+02
1613	5.93934e+02	1.61300e+03	-3.12986e-02	5.96500e+02
1615	5.94918e+02	1.61500e+03	-3.12753e-02	5.97500e+02
1617	5.95908e+02	1.61700e+03	-3.12644e-02	5.98500e+02
1619	5.96880e+02	1.61900e+03	-3.12470e-02	5.99500e+02
1621	5.97863e+02	1.62100e+03	-3.12268e-02	6.00500e+02
1623	5.98852e+02	1.62300e+03	-3.12039e-02	6.01500e+02
1625	5.99824e+02	1.62500e+03	-3.11665e-02	6.02500e+02
1627	6.00801e+02	1.62700e+03	-3.11179e-02	6.03500e+02
1629	6.01783e+02	1.62900e+03	-3.10498e-02	6.04500e+02
1631	6.02777e+02	1.63100e+03	-3.09855e-02	6.05500e+02
1633	6.03746e+02	1.63300e+03	-3.09159e-02	6.06500e+02
1635	6.04755e+02	1.63500e+03	-3.08465e-02	6.07500e+02
1637	6.05809e+02	1.63700e+03	-3.07853e-02	6.08500e+02
1639	6.06929e+02	1.63900e+03	-3.07434e-02	6.09500e+02
1641	6.08061e+02	1.64100e+03	-3.07428e-02	6.10500e+02
1643	6.09067e+02	1.64300e+03	-3.07444e-02	6.11500e+02
1645	6.10039e+02	1.64500e+03	-3.07555e-02	6.12500e+02
1647	6.11060e+02	1.64700e+03	-3.07414e-02	6.13500e+02
1649	6.12072e+02	1.64900e+03	-3.06998e-02	6.14500e+02
1651	6.12982e+02	1.65100e+03	-3.06675e-02	6.15500e+02
1653	6.13970e+02	1.65300e+03	-3.06365e-02	6.16500e+02
1655	6.14951e+02	1.65500e+03	-3.06107e-02	6.17500e+02
1657	6.15943e+02	1.65700e+03	-3.05955e-02	6.18500e+02
1659	6.16916e+02	1.65900e+03	-3.05854e-02	6.19500e+02
1661	6.17910e+02	1.66100e+03	-3.05917e-02	6.20500e+02
1663	6.18900e+02	1.66300e+03	-3.05980e-02	6.21500e+02
1665	6.19921e+02	1.66500e+03	-3.06000e-02	6.22500e+02
1667	6.20912e+02	1.66700e+03	-3.05871e-02	6.23500e+02
1669	6.21930e+02	1.66900e+03	-3.05623e-02	6.24500e+02
1671	6.22938e+02	1.67100e+03	-3.05475e-02	6.25500e+02
1673	6.23959e+02	1.67300e+03	-3.05281e-02	6.26500e+02
1675	6.24961e+02	1.67500e+03	-3.04965e-02	6.27500e+02
1677	6.25957e+02	1.67700e+03	-3.04473e-02	6.28500e+02
1679	6.26931e+02	1.67900e+03	-3.04046e-02	6.29500e+02
1681	6.27931e+02	1.68100e+03	-3.03700e-02	6.30500e+02
1683	6.28934e+02	1.68300e+03	-3.03525e-02	6.31500e+02
1685	6.29955e+02	1.68500e+03	-3.03581e-02	6.32500e+02
1687	6.30959e+02	1.68700e+03	-3.03472e-02	6.33500e+02
1689	6.31964e+02	1.68900e+03	-3.03126e-02	6.34500e+02
1691	6.32966e+02	1.69100e+03	-3.02638e-02	6.35500e+02
1693	6.33968e+02	1.69300e+03	-3.01923e-02	6.36500e+02
1695	6.34976e+02	1.69500e+03	-3.01484e-02	6.37500e+02
1697	6.35980e+02	1.69700e+03	-3.01370e-02	6.38500e+02
1699	6.36977e+02	1.69900e+03	-3.01330e-02	6.39500e+02
1701	6.37960e+02	1.70100e+03	-3.01487e-02	6.40500e+02
1703	6.38985e+02	1.70300e+03	-3.01444e-02	6.41500e+02
1705	6.40014e+02	1.70500e+03	-3.01177e-02	6.42500e+02
1707	6.41043e+02	1.70700e+03	-3.00850e-02	6.43500e+02
1709	6.42077e+02	1.70900e+03	-3.00389e-02	6.44500e+02
1711	6.43071e+02	1.71100e+03	-2.99970e-02	6.45500e+02
1713	6.44078e+02	1.71300e+03	-2.99519e-02	6.46500e+02
1715	6.45061e+02	1.71500e+03	-2.99064e-02	6.47500e+02
1717	6.46061e+02	1.71700e+03	-2.98618e-02	6.48500e+02
1719	6.47039e+02	1.71900e+03	-2.98291e-02	6.49500e+02
1721	6.48035e+02	1.72100e+03	-2.98126e-02	6.50500e+02
1723	6.49024e+02	1.72300e+03	-2.97977e-02	6.51500e+02
1725	6.50026e+02	1.72500e+03	-2.97945e-02	6.52500e+02
1727	6.51102e+02	1.72700e+03	-2.97843e-02	6.53500e+02
1729	6.52181e+02	1.72900e+03	-2.97566e-02	6.54500e+02
1731	6.53229e+02	1.73100e+03	-2.97195e-02	6.55500e+02
1733	6.54254e+02	1.73300e+03	-2.96766e-02	6.56500e+02
1735	6.55276e+02	1.73500e+03	-2.96568e-02	6.57500e+02
1737	6.56295e+02	1.73700e+03	-2.96662e-02	6.58500e+02
1739	6.57318e+02	1.73900e+03	-2.96739e-02	6.59500e+02
1741	6.58340e+02	1.74100e+03	-2.96881e-02	6.60500e+02
1743	6.59345e+02	1.74300e+03	-2.96947e-02	6.61500e+02
1745	6.60365e+02	1.74500e+03	-2.96874e-02	6.62500e+02
1747	6.61398e+02	1.74700e+03	-2.96796e-02	6.63500e+02
1749	6.62387e+02	1.74900e+03	-2.96701e-02	6.64500e+02
1751	6.63383e+02	1.75100e+03	-2.96715e-02	6.65500e+02
1753	6.64408e+02	1.75300e+03	-2.96808e-02	6.66500e+02
1755	6.65392e+02	1.75500e+03	-2.96855e-02	6.67500e+02
1757	6.66365e+02	1.75700e+03	-2.96803e-02	6.68500e+02
1759	6.67350e+02	1.75900e+03	-2.96650e-02	6.69500e+02
1761	6.68359e+02	1.76100e+03	-2.96330e-02	6.70500e+02
1763	6.69352e+02	1.76300e+03	-2.96103e-02	6.71500e+02
1765	6.70347e+02	1.76500e+03	-2.95932e-02	6.72500e+02
1767	6.71346e+02	1.76700e+03	-2.95839e-02	6.73500e+02
1769	6.72335e+02	1.76900e+03	-2.95864e-02	6.74500e+02
1771	6.73346e+02	1.77100e+03	-2.95832e-02	6.75500e+02
1773	6.74364e+02	1.77300e+03	-2.95773e-02	6.76500e+02
1775	6.75375e+02	1.77500e+03	-2.95752e-02	6.77500e+02
1777	6.76403e+02	1.77700e+03	-2.98236e-02	6.78500e+02
1779	6.77373e+02	1.77900e+03	-3.07207e-02	6.79500e+02
1781	6.78403e+02	1.78100e+03	-3.25707e-02	6.80500e+02
1783	6.79408e+02	1.78300e+03	-3.40791e-02	6.81500e+02
1785	6.80421e+02	1.78500e+03	-3.50401e-02	6.82500e+02
1787	6.81400e+02	1.78700e+03	-3.49584e-02	6.83500e+02
1789	6.82334e+02	1.78900e+03	-3.33361e-02	6.84500e+02
1791	6.83317e+02	1.79100e+03	-3.21896e-02	6.85500e+02
1793	6.84297e+02	1.79300e+03	-3.10449e-02	6.86500e+02
1795	6.84983e+02	1.79500e+03	-3.02267e-02	6.87500e+02
1797	6.85502e+02	1.79700e+03	-2.98889e-02	6.88500e+02
1799	6.86262e+02	1.79900e+03	-2.95587e-02	6.89500e+02
1801	6.87008e+02	1.80100e+03	-2.94951e-02	6.90500e+02
1803	6.87609e+02	1.80300e+03	-2.94295e-02	6.91500e+02
1805	6.88229e+02	1.80500e+03	-2.94722e-02	6.92500e+02
1807	6.88805e+02	1.80700e+03	-2.94894e-02	6.93500e+02
1809	6.89392e+02	1.80900e+03	-2.95201e-02	6.94500e+02
1811	6.89885e+02	1.81100e+03	-2.95430e-02	6.95500e+02
1813	6.90365e+02	1.81300e+03	-2.95664e-02	6.96500e+02
1815	6.90817e+02	1.81500e+03	-2.95966e-02	6.97500e+02
1817	6.91275e+02	1.81700e+03	-2.96333e-02	6.98500e+02
1819	6.91737e+02	1.81900e+03	-2.96639e-02	6.99500e+02
1820	6.91958e+02	1.82000e+03	-2.96792e-02	7.00000e+02