File: Experiments/TUBS/tga_nonisotherm/tga_dynamic_n2_dyn20_powder_2mg_r3.txt
index	ts	t	weight	tr
[#]	[°C]	[s]	[mg]	[°C]
723	1.31023e+02	7.23000e+02	2.03323e+00	1.31000e+02
725	1.31685e+02	7.25000e+02	2.03319e+00	1.31667e+02
727	1.32369e+02	7.27000e+02	2.03315e+00	1.32333e+02
729	1.33051e+02	7.29000e+02	2.03311e+00	1.33000e+02
731	1.33720e+02	7.31000e+02	2.03305e+00	1.33667e+02
733	1.34374e+02	7.33000e+02	2.03298e+00	1.34333e+02
735	1.35050e+02	7.35000e+02	2.03291e+00	1.35000e+02
737	1.35721e+02	7.37000e+02	2.03283e+00	1.35667e+02
739	1.36389e+02	7.39000e+02	2.03275e+00	1.36333e+02
741	1.37052e+02	7.41000e+02	2.03268e+00	1.37000e+02
743	1.37733e+02	7.43000e+02	2.03260e+00	1.37667e+02
745	1.38402e+02	7.45000e+02	2.03250e+00	1.38333e+02
747	1.39088e+02	7.47000e+02	2.03240e+00	1.39000e+02
749	1.39753e+02	7.49000e+02	2.03228e+00	1.39667e+02
751	1.40428e+02	7.51000e+02	2.03217e+00	1.40333e+02
753	1.41087e+02	7.53000e+02	2.03204e+00	1.41000e+02
755	1.41767e+02	7.55000e+02	2.03193e+00	1.41667e+02
757	1.42448e+02	7.57000e+02	2.03183e+00	1.42333e+02
759	1.43122e+02	7.59000e+02	2.03175e+00	1.43000e+02
761	1.43788e+02	7.61000e+02	2.03170e+00	1.43667e+02
763	1.44454e+02	7.63000e+02	2.03162e+00	1.44333e+02
765	1.45128e+02	7.65000e+02	2.03151e+00	1.45000e+02
767	1.45803e+02	7.67000e+02	2.03139e+00	1.45667e+02
769	1.46468e+02	7.69000e+02	2.03125e+00	1.46333e+02
771	1.47151e+02	7.71000e+02	2.03111e+00	1.47000e+02
773	1.47825e+02	7.73000e+02	2.03095e+00	1.47667e+02
775	1.48503e+02	7.75000e+02	2.03079e+00	1.48333e+02
777	1.49166e+02	7.77000e+02	2.03060e+00	1.49000e+02
779	1.49827e+02	7.79000e+02	2.03040e+00	1.49667e+02
781	1.50516e+02	7.81000e+02	2.03018e+00	1.50333e+02
783	1.51189e+02	7.83000e+02	2.02995e+00	1.51000e+02
785	1.51864e+02	7.85000e+02	2.02970e+00	1.51667e+02
787	1.52522e+02	7.87000e+02	2.02946e+00	1.52333e+02
789	1.53209e+02	7.89000e+02	2.02920e+00	1.53000e+02
791	1.53875e+02	7.91000e+02	2.02894e+00	1.53667e+02
793	1.54556e+02	7.93000e+02	2.02869e+00	1.54333e+02
795	1.55229e+02	7.95000e+02	2.02845e+00	1.55000e+02
797	1.55909e+02	7.97000e+02	2.02824e+00	1.55667e+02
799	1.56570e+02	7.99000e+02	2.02802e+00	1.56333e+02
801	1.57252e+02	8.01000e+02	2.02780e+00	1.57000e+02
803	1.57936e+02	8.03000e+02	2.02756e+00	1.57667e+02
805	1.58605e+02	8.05000e+02	2.02731e+00	1.58333e+02
807	1.59272e+02	8.07000e+02	2.02705e+00	1.59000e+02
809	1.59955e+02	8.09000e+02	2.02677e+00	1.59667e+02
811	1.60624e+02	8.11000e+02	2.02650e+00	1.60333e+02
813	1.61296e+02	8.13000e+02	2.02621e+00	1.61000e+02
815	1.61975e+02	8.15000e+02	2.02593e+00	1.61667e+02
817	1.62655e+02	8.17000e+02	2.02564e+00	1.62333e+02
819	1.63332e+02	8.19000e+02	2.02535e+00	1.63000e+02
821	1.64007e+02	8.21000e+02	2.02503e+00	1.63667e+02
823	1.64682e+02	8.23000e+02	2.02471e+00	1.64333e+02
825	1.65361e+02	8.25000e+02	2.02438e+00	1.65000e+02
827	1.66032e+02	8.27000e+02	2.02406e+00	1.65667e+02
829	1.66714e+02	8.29000e+02	2.02374e+00	1.66333e+02
831	1.67382e+02	8.31000e+02	2.02339e+00	1.67000e+02
833	1.68060e+02	8.33000e+02	2.02301e+00	1.67667e+02
835	1.68739e+02	8.35000e+02	2.02262e+00	1.68333e+02
837	1.69410e+02	8.37000e+02	2.02218e+00	1.69000e+02
839	1.70091e+02	8.39000e+02	2.02173e+00	1.69667e+02
841	1.70769e+02	8.41000e+02	2.02126e+00	1.70333e+02
843	1.71437e+02	8.43000e+02	2.02076e+00	1.71000e+02
845	1.72115e+02	8.45000e+02	2.02021e+00	1.71667e+02
847	1.72785e+02	8.47000e+02	2.01964e+00	1.72333e+02
849	1.73467e+02	8.49000e+02	2.01897e+00	1.73000e+02
851	1.74160e+02	8.51000e+02	2.01830e+00	1.73667e+02
853	1.74827e+02	8.53000e+02	2.01755e+00	1.74333e+02
855	1.75515e+02	8.55000e+02	2.01678e+00	1.75000e+02
857	1.76187e+02	8.57000e+02	2.01594e+00	1.75667e+02
859	1.76861e+02	8.59000e+02	2.01508e+00	1.76333e+02
861	1.77538e+02	8.61000e+02	2.01414e+00	1.77000e+02
863	1.78221e+02	8.63000e+02	2.01318e+00	1.77667e+02
865	1.78890e+02	8.65000e+02	2.01213e+00	1.78333e+02
867	1.79573e+02	8.67000e+02	2.01105e+00	1.79000e+02
869	1.80268e+02	8.69000e+02	2.00990e+00	1.79667e+02
871	1.80927e+02	8.71000e+02	2.00872e+00	1.80333e+02
873	1.81620e+02	8.73000e+02	2.00747e+00	1.81000e+02
875	1.82271e+02	8.75000e+02	2.00621e+00	1.81667e+02
877	1.82969e+02	8.77000e+02	2.00489e+00	1.82333e+02
879	1.83656e+02	8.79000e+02	2.00356e+00	1.83000e+02
881	1.84338e+02	8.81000e+02	2.00216e+00	1.83667e+02
883	1.85014e+02	8.83000e+02	2.00074e+00	1.84333e+02
885	1.85697e+02	8.85000e+02	1.99925e+00	1.85000e+02
887	1.86373e+02	8.87000e+02	1.99774e+00	1.85667e+02
889	1.87058e+02	8.89000e+02	1.99614e+00	1.86333e+02
891	1.87742e+02	8.91000e+02	1.99455e+00	1.87000e+02
893	1.88415e+02	8.93000e+02	1.99289e+00	1.87667e+02
895	1.89101e+02	8.95000e+02	1.99124e+00	1.88333e+02
897	1.89776e+02	8.97000e+02	1.98959e+00	1.89000e+02
899	1.90439e+02	8.99000e+02	1.98795e+00	1.89667e+02
901	1.91127e+02	9.01000e+02	1.98633e+00	1.90333e+02
903	1.91817e+02	9.03000e+02	1.98471e+00	1.91000e+02
905	1.92489e+02	9.05000e+02	1.98310e+00	1.91667e+02
907	1.93157e+02	9.07000e+02	1.98150e+00	1.92333e+02
909	1.93838e+02	9.09000e+02	1.97992e+00	1.93000e+02
911	1.94516e+02	9.11000e+02	1.97835e+00	1.93667e+02
913	1.95198e+02	9.13000e+02	1.97682e+00	1.94333e+02
915	1.95865e+02	9.15000e+02	1.97531e+00	1.95000e+02
917	1.96546e+02	9.17000e+02	1.97388e+00	1.95667e+02
919	1.97209e+02	9.19000e+02	1.97246e+00	1.96333e+02
921	1.97891e+02	9.21000e+02	1.97112e+00	1.97000e+02
923	1.98565e+02	9.23000e+02	1.96981e+00	1.97667e+02
925	1.99244e+02	9.25000e+02	1.96859e+00	1.98333e+02
927	1.99904e+02	9.27000e+02	1.96739e+00	1.99000e+02
929	2.00570e+02	9.29000e+02	1.96629e+00	1.99667e+02
931	2.01248e+02	9.31000e+02	1.96522e+00	2.00333e+02
933	2.01904e+02	9.33000e+02	1.96426e+00	2.01000e+02
935	2.02575e+02	9.35000e+02	1.96332e+00	2.01667e+02
937	2.03246e+02	9.37000e+02	1.96246e+00	2.02333e+02
939	2.03936e+02	9.39000e+02	1.96162e+00	2.03000e+02
941	2.04607e+02	9.41000e+02	1.96087e+00	2.03667e+02
943	2.05284e+02	9.43000e+02	1.96014e+00	2.04333e+02
945	2.05953e+02	9.45000e+02	1.95949e+00	2.05000e+02
947	2.06632e+02	9.47000e+02	1.95885e+00	2.05667e+02
949	2.07304e+02	9.49000e+02	1.95828e+00	2.06333e+02
951	2.07981e+02	9.51000e+02	1.95773e+00	2.07000e+02
953	2.08659e+02	9.53000e+02	1.95724e+00	2.07667e+02
955	2.09337e+02	9.55000e+02	1.95675e+00	2.08333e+02
957	2.10011e+02	9.57000e+02	1.95631e+00	2.09000e+02
959	2.10691e+02	9.59000e+02	1.95587e+00	2.09667e+02
961	2.11365e+02	9.61000e+02	1.95546e+00	2.10333e+02
963	2.12039e+02	9.63000e+02	1.95505e+00	2.11000e+02
965	2.12714e+02	9.65000e+02	1.95468e+00	2.11667e+02
967	2.13391e+02	9.67000e+02	1.95431e+00	2.12333e+02
969	2.14070e+02	9.69000e+02	1.95397e+00	2.13000e+02
971	2.14749e+02	9.71000e+02	1.95364e+00	2.13667e+02
973	2.15417e+02	9.73000e+02	1.95334e+00	2.14333e+02
975	2.16100e+02	9.75000e+02	1.95304e+00	2.15000e+02
977	2.16769e+02	9.77000e+02	1.95274e+00	2.15667e+02
979	2.17449e+02	9.79000e+02	1.95242e+00	2.16333e+02
981	2.18125e+02	9.81000e+02	1.95209e+00	2.17000e+02
983	2.18801e+02	9.83000e+02	1.95176e+00	2.17667e+02
985	2.19474e+02	9.85000e+02	1.95142e+00	2.18333e+02
987	2.20161e+02	9.87000e+02	1.95109e+00	2.19000e+02
989	2.20834e+02	9.89000e+02	1.95076e+00	2.19667e+02
991	2.21506e+02	9.91000e+02	1.95045e+00	2.20333e+02
993	2.22193e+02	9.93000e+02	1.95016e+00	2.21000e+02
995	2.22867e+02	9.95000e+02	1.94987e+00	2.21667e+02
997	2.23555e+02	9.97000e+02	1.94958e+00	2.22333e+02
999	2.24213e+02	9.99000e+02	1.94926e+00	2.23000e+02
1001	2.24905e+02	1.00100e+03	1.94891e+00	2.23667e+02
1003	2.25588e+02	1.00300e+03	1.94853e+00	2.24333e+02
1005	2.26274e+02	1.00500e+03	1.94810e+00	2.25000e+02
1007	2.26947e+02	1.00700e+03	1.94767e+00	2.25667e+02
1009	2.27618e+02	1.00900e+03	1.94721e+00	2.26333e+02
1011	2.28303e+02	1.01100e+03	1.94680e+00	2.27000e+02
1013	2.28980e+02	1.01300e+03	1.94645e+00	2.27667e+02
1015	2.29663e+02	1.01500e+03	1.94612e+00	2.28333e+02
1017	2.30352e+02	1.01700e+03	1.94583e+00	2.29000e+02
1019	2.31043e+02	1.01900e+03	1.94553e+00	2.29667e+02
1021	2.31722e+02	1.02100e+03	1.94525e+00	2.30333e+02
1023	2.32398e+02	1.02300e+03	1.94497e+00	2.31000e+02
1025	2.33073e+02	1.02500e+03	1.94469e+00	2.31667e+02
1027	2.33760e+02	1.02700e+03	1.94441e+00	2.32333e+02
1029	2.34443e+02	1.02900e+03	1.94413e+00	2.33000e+02
1031	2.35142e+02	1.03100e+03	1.94385e+00	2.33667e+02
1033	2.35824e+02	1.03300e+03	1.94356e+00	2.34333e+02
1035	2.36506e+02	1.03500e+03	1.94328e+00	2.35000e+02
1037	2.37185e+02	1.03700e+03	1.94302e+00	2.35667e+02
1039	2.37860e+02	1.03900e+03	1.94277e+00	2.36333e+02
1041	2.38540e+02	1.04100e+03	1.94255e+00	2.37000e+02
1043	2.39224e+02	1.04300e+03	1.94232e+00	2.37667e+02
1045	2.39919e+02	1.04500e+03	1.94210e+00	2.38333e+02
1047	2.40600e+02	1.04700e+03	1.94187e+00	2.39000e+02
1049	2.41293e+02	1.04900e+03	1.94165e+00	2.39667e+02
1051	2.41979e+02	1.05100e+03	1.94143e+00	2.40333e+02
1053	2.42656e+02	1.05300e+03	1.94124e+00	2.41000e+02
1055	2.43349e+02	1.05500e+03	1.94104e+00	2.41667e+02
1057	2.44030e+02	1.05700e+03	1.94087e+00	2.42333e+02
1059	2.44712e+02	1.05900e+03	1.94068e+00	2.43000e+02
1061	2.45406e+02	1.06100e+03	1.94048e+00	2.43667e+02
1063	2.46099e+02	1.06300e+03	1.94028e+00	2.44333e+02
1065	2.46776e+02	1.06500e+03	1.94009e+00	2.45000e+02
1067	2.47445e+02	1.06700e+03	1.93991e+00	2.45667e+02
1069	2.48135e+02	1.06900e+03	1.93977e+00	2.46333e+02
1071	2.48799e+02	1.07100e+03	1.93962e+00	2.47000e+02
1073	2.49477e+02	1.07300e+03	1.93947e+00	2.47667e+02
1075	2.50158e+02	1.07500e+03	1.93933e+00	2.48333e+02
1077	2.50830e+02	1.07700e+03	1.93918e+00	2.49000e+02
1079	2.51510e+02	1.07900e+03	1.93903e+00	2.49667e+02
1081	2.52208e+02	1.08100e+03	1.93888e+00	2.50333e+02
1083	2.52864e+02	1.08300e+03	1.93870e+00	2.51000e+02
1085	2.53547e+02	1.08500e+03	1.93849e+00	2.51667e+02
1087	2.54219e+02	1.08700e+03	1.93827e+00	2.52333e+02
1089	2.54910e+02	1.08900e+03	1.93803e+00	2.53000e+02
1091	2.55590e+02	1.09100e+03	1.93781e+00	2.53667e+02
1093	2.56273e+02	1.09300e+03	1.93761e+00	2.54333e+02
1095	2.56969e+02	1.09500e+03	1.93742e+00	2.55000e+02
1097	2.57629e+02	1.09700e+03	1.93724e+00	2.55667e+02
1099	2.58307e+02	1.09900e+03	1.93705e+00	2.56333e+02
1101	2.58976e+02	1.10100e+03	1.93685e+00	2.57000e+02
1103	2.59653e+02	1.10300e+03	1.93666e+00	2.57667e+02
1105	2.60328e+02	1.10500e+03	1.93648e+00	2.58333e+02
1107	2.61022e+02	1.10700e+03	1.93632e+00	2.59000e+02
1109	2.61710e+02	1.10900e+03	1.93619e+00	2.59667e+02
1111	2.62387e+02	1.11100e+03	1.93605e+00	2.60333e+02
1113	2.63065e+02	1.11300e+03	1.93591e+00	2.61000e+02
1115	2.63730e+02	1.11500e+03	1.93573e+00	2.61667e+02
1117	2.64406e+02	1.11700e+03	1.93552e+00	2.62333e+02
1119	2.65095e+02	1.11900e+03	1.93531e+00	2.63000e+02
1121	2.65770e+02	1.12100e+03	1.93508e+00	2.63667e+02
1123	2.66448e+02	1.12300e+03	1.93485e+00	2.64333e+02
1125	2.67137e+02	1.12500e+03	1.93461e+00	2.65000e+02
1127	2.67841e+02	1.12700e+03	1.93438e+00	2.65667e+02
1129	2.68544e+02	1.12900e+03	1.93414e+00	2.66333e+02
1131	2.69216e+02	1.13100e+03	1.93387e+00	2.67000e+02
1133	2.69906e+02	1.13300e+03	1.93359e+00	2.67667e+02
1135	2.70595e+02	1.13500e+03	1.93331e+00	2.68333e+02
1137	2.71276e+02	1.13700e+03	1.93303e+00	2.69000e+02
1139	2.71975e+02	1.13900e+03	1.93274e+00	2.69667e+02
1141	2.72686e+02	1.14100e+03	1.93244e+00	2.70333e+02
1143	2.73370e+02	1.14300e+03	1.93214e+00	2.71000e+02
1145	2.74079e+02	1.14500e+03	1.93182e+00	2.71667e+02
1147	2.74771e+02	1.14700e+03	1.93148e+00	2.72333e+02
1149	2.75440e+02	1.14900e+03	1.93110e+00	2.73000e+02
1151	2.76129e+02	1.15100e+03	1.93071e+00	2.73667e+02
1153	2.76822e+02	1.15300e+03	1.93030e+00	2.74333e+02
1155	2.77524e+02	1.15500e+03	1.92989e+00	2.75000e+02
1157	2.78219e+02	1.15700e+03	1.92948e+00	2.75667e+02
1159	2.78978e+02	1.15900e+03	1.92906e+00	2.76333e+02
1161	2.79709e+02	1.16100e+03	1.92863e+00	2.77000e+02
1163	2.80420e+02	1.16300e+03	1.92819e+00	2.77667e+02
1165	2.81127e+02	1.16500e+03	1.92771e+00	2.78333e+02
1167	2.81812e+02	1.16700e+03	1.92722e+00	2.79000e+02
1169	2.82492e+02	1.16900e+03	1.92670e+00	2.79667e+02
1171	2.83193e+02	1.17100e+03	1.92615e+00	2.80333e+02
1173	2.83871e+02	1.17300e+03	1.92555e+00	2.81000e+02
1175	2.84558e+02	1.17500e+03	1.92493e+00	2.81667e+02
1177	2.85239e+02	1.17700e+03	1.92425e+00	2.82333e+02
1179	2.85914e+02	1.17900e+03	1.92356e+00	2.83000e+02
1181	2.86587e+02	1.18100e+03	1.92283e+00	2.83667e+02
1183	2.87263e+02	1.18300e+03	1.92210e+00	2.84333e+02
1185	2.87927e+02	1.18500e+03	1.92133e+00	2.85000e+02
1187	2.88584e+02	1.18700e+03	1.92055e+00	2.85667e+02
1189	2.89268e+02	1.18900e+03	1.91973e+00	2.86333e+02
1191	2.89940e+02	1.19100e+03	1.91888e+00	2.87000e+02
1193	2.90622e+02	1.19300e+03	1.91795e+00	2.87667e+02
1195	2.91302e+02	1.19500e+03	1.91701e+00	2.88333e+02
1197	2.91982e+02	1.19700e+03	1.91599e+00	2.89000e+02
1199	2.92678e+02	1.19900e+03	1.91495e+00	2.89667e+02
1201	2.93372e+02	1.20100e+03	1.91384e+00	2.90333e+02
1203	2.94057e+02	1.20300e+03	1.91271e+00	2.91000e+02
1205	2.94746e+02	1.20500e+03	1.91152e+00	2.91667e+02
1207	2.95459e+02	1.20700e+03	1.91032e+00	2.92333e+02
1209	2.96177e+02	1.20900e+03	1.90906e+00	2.93000e+02
1211	2.96939e+02	1.21100e+03	1.90779e+00	2.93667e+02
1213	2.97624e+02	1.21300e+03	1.90645e+00	2.94333e+02
1215	2.98264e+02	1.21500e+03	1.90508e+00	2.95000e+02
1217	2.98884e+02	1.21700e+03	1.90363e+00	2.95667e+02
1219	2.99511e+02	1.21900e+03	1.90216e+00	2.96333e+02
1221	3.00167e+02	1.22100e+03	1.90062e+00	2.97000e+02
1223	3.00804e+02	1.22300e+03	1.89906e+00	2.97667e+02
1225	3.01422e+02	1.22500e+03	1.89744e+00	2.98333e+02
1227	3.02068e+02	1.22700e+03	1.89581e+00	2.99000e+02
1229	3.02711e+02	1.22900e+03	1.89412e+00	2.99667e+02
1231	3.03358e+02	1.23100e+03	1.89240e+00	3.00333e+02
1233	3.04004e+02	1.23300e+03	1.89060e+00	3.01000e+02
1235	3.04650e+02	1.23500e+03	1.88879e+00	3.01667e+02
1237	3.05303e+02	1.23700e+03	1.88691e+00	3.02333e+02
1239	3.05962e+02	1.23900e+03	1.88503e+00	3.03000e+02
1241	3.06599e+02	1.24100e+03	1.88310e+00	3.03667e+02
1243	3.07258e+02	1.24300e+03	1.88115e+00	3.04333e+02
1245	3.07915e+02	1.24500e+03	1.87915e+00	3.05000e+02
1247	3.08586e+02	1.24700e+03	1.87715e+00	3.05667e+02
1249	3.09233e+02	1.24900e+03	1.87511e+00	3.06333e+02
1251	3.09875e+02	1.25100e+03	1.87308e+00	3.07000e+02
1253	3.10516e+02	1.25300e+03	1.87104e+00	3.07667e+02
1255	3.11185e+02	1.25500e+03	1.86899e+00	3.08333e+02
1257	3.11839e+02	1.25700e+03	1.86693e+00	3.09000e+02
1259	3.12502e+02	1.25900e+03	1.86487e+00	3.09667e+02
1261	3.13167e+02	1.26100e+03	1.86280e+00	3.10333e+02
1263	3.13851e+02	1.26300e+03	1.86073e+00	3.11000e+02
1265	3.14510e+02	1.26500e+03	1.85865e+00	3.11667e+02
1267	3.15172e+02	1.26700e+03	1.85657e+00	3.12333e+02
1269	3.15833e+02	1.26900e+03	1.85447e+00	3.13000e+02
1271	3.16508e+02	1.27100e+03	1.85237e+00	3.13667e+02
1273	3.17162e+02	1.27300e+03	1.85027e+00	3.14333e+02
1275	3.17822e+02	1.27500e+03	1.84816e+00	3.15000e+02
1277	3.18482e+02	1.27700e+03	1.84603e+00	3.15667e+02
1279	3.19154e+02	1.27900e+03	1.84389e+00	3.16333e+02
1281	3.19820e+02	1.28100e+03	1.84170e+00	3.17000e+02
1283	3.20495e+02	1.28300e+03	1.83951e+00	3.17667e+02
1285	3.21172e+02	1.28500e+03	1.83727e+00	3.18333e+02
1287	3.21835e+02	1.28700e+03	1.83503e+00	3.19000e+02
1289	3.22515e+02	1.28900e+03	1.83274e+00	3.19667e+02
1291	3.23205e+02	1.29100e+03	1.83041e+00	3.20333e+02
1293	3.23890e+02	1.29300e+03	1.82798e+00	3.21000e+02
1295	3.24557e+02	1.29500e+03	1.82553e+00	3.21667e+02
1297	3.25238e+02	1.29700e+03	1.82299e+00	3.22333e+02
1299	3.25906e+02	1.29900e+03	1.82041e+00	3.23000e+02
1301	3.26589e+02	1.30100e+03	1.81772e+00	3.23667e+02
1303	3.27267e+02	1.30300e+03	1.81501e+00	3.24333e+02
1305	3.27976e+02	1.30500e+03	1.81217e+00	3.25000e+02
1307	3.28608e+02	1.30700e+03	1.80926e+00	3.25667e+02
1309	3.29325e+02	1.30900e+03	1.80617e+00	3.26333e+02
1311	3.30024e+02	1.31100e+03	1.80300e+00	3.27000e+02
1313	3.30759e+02	1.31300e+03	1.79959e+00	3.27667e+02
1315	3.31431e+02	1.31500e+03	1.79612e+00	3.28333e+02
1317	3.32138e+02	1.31700e+03	1.79240e+00	3.29000e+02
1319	3.32763e+02	1.31900e+03	1.78865e+00	3.29667e+02
1321	3.33428e+02	1.32100e+03	1.78465e+00	3.30333e+02
1323	3.34123e+02	1.32300e+03	1.78059e+00	3.31000e+02
1325	3.34787e+02	1.32500e+03	1.77625e+00	3.31667e+02
1327	3.35474e+02	1.32700e+03	1.77184e+00	3.32333e+02
1329	3.36155e+02	1.32900e+03	1.76711e+00	3.33000e+02
1331	3.36836e+02	1.33100e+03	1.76231e+00	3.33667e+02
1333	3.37490e+02	1.33300e+03	1.75719e+00	3.34333e+02
1335	3.38147e+02	1.33500e+03	1.75197e+00	3.35000e+02
1337	3.38808e+02	1.33700e+03	1.74638e+00	3.35667e+02
1339	3.39486e+02	1.33900e+03	1.74070e+00	3.36333e+02
1341	3.40146e+02	1.34100e+03	1.73462e+00	3.37000e+02
1343	3.40816e+02	1.34300e+03	1.72844e+00	3.37667e+02
1345	3.41521e+02	1.34500e+03	1.72183e+00	3.38333e+02
1347	3.42188e+02	1.34700e+03	1.71509e+00	3.39000e+02
1349	3.42838e+02	1.34900e+03	1.70787e+00	3.39667e+02
1351	3.43496e+02	1.35100e+03	1.70052e+00	3.40333e+02
1353	3.44164e+02	1.35300e+03	1.69266e+00	3.41000e+02
1355	3.44813e+02	1.35500e+03	1.68468e+00	3.41667e+02
1357	3.45483e+02	1.35700e+03	1.67619e+00	3.42333e+02
1359	3.46152e+02	1.35900e+03	1.66756e+00	3.43000e+02
1361	3.46815e+02	1.36100e+03	1.65839e+00	3.43667e+02
1363	3.47471e+02	1.36300e+03	1.64908e+00	3.44333e+02
1365	3.48120e+02	1.36500e+03	1.63919e+00	3.45000e+02
1367	3.48853e+02	1.36700e+03	1.62915e+00	3.45667e+02
1369	3.49614e+02	1.36900e+03	1.61853e+00	3.46333e+02
1371	3.50295e+02	1.37100e+03	1.60778e+00	3.47000e+02
1373	3.50970e+02	1.37300e+03	1.59643e+00	3.47667e+02
1375	3.51728e+02	1.37500e+03	1.58493e+00	3.48333e+02
1377	3.52391e+02	1.37700e+03	1.57280e+00	3.49000e+02
1379	3.53053e+02	1.37900e+03	1.56053e+00	3.49667e+02
1381	3.53686e+02	1.38100e+03	1.54763e+00	3.50333e+02
1383	3.54379e+02	1.38300e+03	1.53461e+00	3.51000e+02
1385	3.55059e+02	1.38500e+03	1.52095e+00	3.51667e+02
1387	3.55748e+02	1.38700e+03	1.50712e+00	3.52333e+02
1389	3.56435e+02	1.38900e+03	1.49263e+00	3.53000e+02
1391	3.57110e+02	1.39100e+03	1.47799e+00	3.53667e+02
1393	3.57765e+02	1.39300e+03	1.46268e+00	3.54333e+02
1395	3.58431e+02	1.39500e+03	1.44722e+00	3.55000e+02
1397	3.59103e+02	1.39700e+03	1.43113e+00	3.55667e+02
1399	3.59753e+02	1.39900e+03	1.41491e+00	3.56333e+02
1401	3.60463e+02	1.40100e+03	1.39810e+00	3.57000e+02
1403	3.61082e+02	1.40300e+03	1.38114e+00	3.57667e+02
1405	3.61743e+02	1.40500e+03	1.36359e+00	3.58333e+02
1407	3.62418e+02	1.40700e+03	1.34593e+00	3.59000e+02
1409	3.63093e+02	1.40900e+03	1.32772e+00	3.59667e+02
1411	3.63744e+02	1.41100e+03	1.30939e+00	3.60333e+02
1413	3.64386e+02	1.41300e+03	1.29053e+00	3.61000e+02
1415	3.65063e+02	1.41500e+03	1.27154e+00	3.61667e+02
1417	3.65721e+02	1.41700e+03	1.25202e+00	3.62333e+02
1419	3.66376e+02	1.41900e+03	1.23238e+00	3.63000e+02
1421	3.67033e+02	1.42100e+03	1.21221e+00	3.63667e+02
1423	3.67707e+02	1.42300e+03	1.19192e+00	3.64333e+02
1425	3.68358e+02	1.42500e+03	1.17111e+00	3.65000e+02
1427	3.69020e+02	1.42700e+03	1.15023e+00	3.65667e+02
1429	3.69699e+02	1.42900e+03	1.12890e+00	3.66333e+02
1431	3.70364e+02	1.43100e+03	1.10749e+00	3.67000e+02
1433	3.71056e+02	1.43300e+03	1.08567e+00	3.67667e+02
1435	3.71722e+02	1.43500e+03	1.06381e+00	3.68333e+02
1437	3.72402e+02	1.43700e+03	1.04164e+00	3.69000e+02
1439	3.73071e+02	1.43900e+03	1.01943e+00	3.69667e+02
1441	3.73723e+02	1.44100e+03	9.97026e-01	3.70333e+02
1443	3.74383e+02	1.44300e+03	9.74650e-01	3.71000e+02
1445	3.75024e+02	1.44500e+03	9.52197e-01	3.71667e+02
1447	3.75688e+02	1.44700e+03	9.29701e-01	3.72333e+02
1449	3.76331e+02	1.44900e+03	9.07038e-01	3.73000e+02
1451	3.77016e+02	1.45100e+03	8.84222e-01	3.73667e+02
1453	3.77671e+02	1.45300e+03	8.61022e-01	3.74333e+02
1455	3.78354e+02	1.45500e+03	8.37687e-01	3.75000e+02
1457	3.79066e+02	1.45700e+03	8.14006e-01	3.75667e+02
1459	3.79729e+02	1.45900e+03	7.90409e-01	3.76333e+02
1461	3.80387e+02	1.46100e+03	7.66804e-01	3.77000e+02
1463	3.81053e+02	1.46300e+03	7.43339e-01	3.77667e+02
1465	3.81750e+02	1.46500e+03	7.20084e-01	3.78333e+02
1467	3.82432e+02	1.46700e+03	6.96887e-01	3.79000e+02
1469	3.83091e+02	1.46900e+03	6.73926e-01	3.79667e+02
1471	3.83765e+02	1.47100e+03	6.51041e-01	3.80333e+02
1473	3.84448e+02	1.47300e+03	6.28418e-01	3.81000e+02
1475	3.85099e+02	1.47500e+03	6.05893e-01	3.81667e+02
1477	3.85756e+02	1.47700e+03	5.83731e-01	3.82333e+02
1479	3.86439e+02	1.47900e+03	5.61724e-01	3.83000e+02
1481	3.87096e+02	1.48100e+03	5.40190e-01	3.83667e+02
1483	3.87784e+02	1.48300e+03	5.18794e-01	3.84333e+02
1485	3.88487e+02	1.48500e+03	4.97938e-01	3.85000e+02
1487	3.89206e+02	1.48700e+03	4.77244e-01	3.85667e+02
1489	3.89876e+02	1.48900e+03	4.57149e-01	3.86333e+02
1491	3.90581e+02	1.49100e+03	4.37189e-01	3.87000e+02
1493	3.91285e+02	1.49300e+03	4.17855e-01	3.87667e+02
1495	3.91991e+02	1.49500e+03	3.98703e-01	3.88333e+02
1497	3.92699e+02	1.49700e+03	3.80252e-01	3.89000e+02
1499	3.93405e+02	1.49900e+03	3.61997e-01	3.89667e+02
1501	3.94072e+02	1.50100e+03	3.44502e-01	3.90333e+02
1503	3.94735e+02	1.50300e+03	3.27189e-01	3.91000e+02
1505	3.95393e+02	1.50500e+03	3.10639e-01	3.91667e+02
1507	3.96079e+02	1.50700e+03	2.94261e-01	3.92333e+02
1509	3.96757e+02	1.50900e+03	2.78649e-01	3.93000e+02
1511	3.97435e+02	1.51100e+03	2.63241e-01	3.93667e+02
1513	3.98121e+02	1.51300e+03	2.48634e-01	3.94333e+02
1515	3.98811e+02	1.51500e+03	2.34216e-01	3.95000e+02
1517	3.99494e+02	1.51700e+03	2.20602e-01	3.95667e+02
1519	4.00191e+02	1.51900e+03	2.07181e-01	3.96333e+02
1521	4.00867e+02	1.52100e+03	1.94579e-01	3.97000e+02
1523	4.01554e+02	1.52300e+03	1.82179e-01	3.97667e+02
1525	4.02234e+02	1.52500e+03	1.70592e-01	3.98333e+02
1527	4.02890e+02	1.52700e+03	1.59153e-01	3.99000e+02
1529	4.03556e+02	1.52900e+03	1.48457e-01	3.99667e+02
1531	4.04256e+02	1.53100e+03	1.37927e-01	4.00333e+02
1533	4.04921e+02	1.53300e+03	1.28125e-01	4.01000e+02
1535	4.05598e+02	1.53500e+03	1.18494e-01	4.01667e+02
1537	4.06371e+02	1.53700e+03	1.09574e-01	4.02333e+02
1539	4.07096e+02	1.53900e+03	1.00794e-01	4.03000e+02
1541	4.07838e+02	1.54100e+03	9.26655e-02	4.03667e+02
1543	4.08489e+02	1.54300e+03	8.46609e-02	4.04333e+02
1545	4.09172e+02	1.54500e+03	7.72563e-02	4.05000e+02
1547	4.09965e+02	1.54700e+03	6.99884e-02	4.05667e+02
1549	4.10708e+02	1.54900e+03	6.33028e-02	4.06333e+02
1551	4.11406e+02	1.55100e+03	5.67433e-02	4.07000e+02
1553	4.12174e+02	1.55300e+03	5.07463e-02	4.07667e+02
1555	4.12911e+02	1.55500e+03	4.48679e-02	4.08333e+02
1557	4.13641e+02	1.55700e+03	3.95166e-02	4.09000e+02
1559	4.14207e+02	1.55900e+03	3.42757e-02	4.09667e+02
1561	4.14809e+02	1.56100e+03	2.95245e-02	4.10333e+02
1563	4.15387e+02	1.56300e+03	2.48739e-02	4.11000e+02
1565	4.15983e+02	1.56500e+03	2.06865e-02	4.11667e+02
1567	4.16565e+02	1.56700e+03	1.65986e-02	4.12333e+02
1569	4.17122e+02	1.56900e+03	1.29416e-02	4.13000e+02
1571	4.17730e+02	1.57100e+03	9.36841e-03	4.13667e+02
1573	4.18366e+02	1.57300e+03	6.17696e-03	4.14333e+02
1575	4.19026e+02	1.57500e+03	3.05359e-03	4.15000e+02
1577	4.19684e+02	1.57700e+03	2.77033e-04	4.15667e+02
1579	4.20332e+02	1.57900e+03	-2.42625e-03	4.16333e+02
1581	4.20977e+02	1.58100e+03	-4.81293e-03	4.17000e+02
1583	4.21618e+02	1.58300e+03	-7.14982e-03	4.17667e+02
1585	4.22281e+02	1.58500e+03	-9.22020e-03	4.18333e+02
1587	4.22938e+02	1.58700e+03	-1.12464e-02	4.19000e+02
1589	4.23594e+02	1.58900e+03	-1.30409e-02	4.19667e+02
1591	4.24246e+02	1.59100e+03	-1.47894e-02	4.20333e+02
1593	4.24891e+02	1.59300e+03	-1.63224e-02	4.21000e+02
1595	4.25535e+02	1.59500e+03	-1.78175e-02	4.21667e+02
1597	4.26169e+02	1.59700e+03	-1.91113e-02	4.22333e+02
1599	4.26833e+02	1.59900e+03	-2.03593e-02	4.23000e+02
1601	4.27496e+02	1.60100e+03	-2.14301e-02	4.23667e+02
1603	4.28164e+02	1.60300e+03	-2.24922e-02	4.24333e+02
1605	4.28819e+02	1.60500e+03	-2.34380e-02	4.25000e+02
1607	4.29457e+02	1.60700e+03	-2.43756e-02	4.25667e+02
1609	4.30073e+02	1.60900e+03	-2.52244e-02	4.26333e+02
1611	4.30709e+02	1.61100e+03	-2.60476e-02	4.27000e+02
1613	4.31396e+02	1.61300e+03	-2.67743e-02	4.27667e+02
1615	4.32082e+02	1.61500e+03	-2.74748e-02	4.28333e+02
1617	4.32754e+02	1.61700e+03	-2.80703e-02	4.29000e+02
1619	4.33425e+02	1.61900e+03	-2.86444e-02	4.29667e+02
1621	4.34102e+02	1.62100e+03	-2.91315e-02	4.30333e+02
1623	4.34769e+02	1.62300e+03	-2.96151e-02	4.31000e+02
1625	4.35453e+02	1.62500e+03	-3.00302e-02	4.31667e+02
1627	4.36123e+02	1.62700e+03	-3.04196e-02	4.32333e+02
1629	4.36811e+02	1.62900e+03	-3.07459e-02	4.33000e+02
1631	4.37518e+02	1.63100e+03	-3.10753e-02	4.33667e+02
1633	4.38199e+02	1.63300e+03	-3.13803e-02	4.34333e+02
1635	4.38833e+02	1.63500e+03	-3.16870e-02	4.35000e+02
1637	4.39468e+02	1.63700e+03	-3.19739e-02	4.35667e+02
1639	4.40139e+02	1.63900e+03	-3.22445e-02	4.36333e+02
1641	4.40859e+02	1.64100e+03	-3.24625e-02	4.37000e+02
1643	4.41546e+02	1.64300e+03	-3.26616e-02	4.37667e+02
1645	4.42163e+02	1.64500e+03	-3.28038e-02	4.38333e+02
1647	4.42832e+02	1.64700e+03	-3.29448e-02	4.39000e+02
1649	4.43606e+02	1.64900e+03	-3.30537e-02	4.39667e+02
1651	4.44254e+02	1.65100e+03	-3.31653e-02	4.40333e+02
1653	4.44947e+02	1.65300e+03	-3.32693e-02	4.41000e+02
1655	4.45671e+02	1.65500e+03	-3.33791e-02	4.41667e+02
1657	4.46408e+02	1.65700e+03	-3.34902e-02	4.42333e+02
1659	4.47077e+02	1.65900e+03	-3.35897e-02	4.43000e+02
1661	4.47750e+02	1.66100e+03	-3.36630e-02	4.43667e+02
1663	4.48417e+02	1.66300e+03	-3.37195e-02	4.44333e+02
1665	4.49040e+02	1.66500e+03	-3.37461e-02	4.45000e+02
1667	4.49687e+02	1.66700e+03	-3.37795e-02	4.45667e+02
1669	4.50338e+02	1.66900e+03	-3.38060e-02	4.46333e+02
1671	4.51012e+02	1.67100e+03	-3.38304e-02	4.47000e+02
1673	4.51595e+02	1.67300e+03	-3.38421e-02	4.47667e+02
1675	4.52264e+02	1.67500e+03	-3.38498e-02	4.48333e+02
1677	4.52915e+02	1.67700e+03	-3.38463e-02	4.49000e+02
1679	4.53544e+02	1.67900e+03	-3.38448e-02	4.49667e+02
1681	4.54267e+02	1.68100e+03	-3.38436e-02	4.50333e+02
1683	4.54864e+02	1.68300e+03	-3.38481e-02	4.51000e+02
1685	4.55466e+02	1.68500e+03	-3.38634e-02	4.51667e+02
1687	4.56036e+02	1.68700e+03	-3.38886e-02	4.52333e+02
1689	4.56578e+02	1.68900e+03	-3.39471e-02	4.53000e+02
1691	4.57188e+02	1.69100e+03	-3.40171e-02	4.53667e+02
1693	4.57830e+02	1.69300e+03	-3.41057e-02	4.54333e+02
1695	4.58427e+02	1.69500e+03	-3.41686e-02	4.55000e+02
1697	4.59068e+02	1.69700e+03	-3.42036e-02	4.55667e+02
1699	4.59693e+02	1.69900e+03	-3.42295e-02	4.56333e+02
1701	4.60285e+02	1.70100e+03	-3.42306e-02	4.57000e+02
1703	4.60921e+02	1.70300e+03	-3.42368e-02	4.57667e+02
1705	4.61528e+02	1.70500e+03	-3.42347e-02	4.58333e+02
1707	4.62149e+02	1.70700e+03	-3.42336e-02	4.59000e+02
1709	4.62793e+02	1.70900e+03	-3.42268e-02	4.59667e+02
1711	4.63451e+02	1.71100e+03	-3.42213e-02	4.60333e+02
1713	4.64096e+02	1.71300e+03	-3.42254e-02	4.61000e+02
1715	4.64719e+02	1.71500e+03	-3.42465e-02	4.61667e+02
1717	4.65376e+02	1.71700e+03	-3.42960e-02	4.62333e+02
1719	4.66037e+02	1.71900e+03	-3.43382e-02	4.63000e+02
1721	4.66673e+02	1.72100e+03	-3.43757e-02	4.63667e+02
1723	4.67267e+02	1.72300e+03	-3.43950e-02	4.64333e+02
1725	4.67890e+02	1.72500e+03	-3.43935e-02	4.65000e+02
1727	4.68531e+02	1.72700e+03	-3.44074e-02	4.65667e+02
1729	4.69176e+02	1.72900e+03	-3.44308e-02	4.66333e+02
1731	4.69819e+02	1.73100e+03	-3.44534e-02	4.67000e+02
1733	4.70406e+02	1.73300e+03	-3.44678e-02	4.67667e+02
1735	4.71034e+02	1.73500e+03	-3.44676e-02	4.68333e+02
1737	4.71677e+02	1.73700e+03	-3.44379e-02	4.69000e+02
1739	4.72324e+02	1.73900e+03	-3.44121e-02	4.69667e+02
1741	4.72981e+02	1.74100e+03	-3.43758e-02	4.70333e+02
1743	4.73608e+02	1.74300e+03	-3.43484e-02	4.71000e+02
1745	4.74240e+02	1.74500e+03	-3.43367e-02	4.71667e+02
1747	4.74884e+02	1.74700e+03	-3.43382e-02	4.72333e+02
1749	4.75509e+02	1.74900e+03	-3.43773e-02	4.73000e+02
1751	4.76121e+02	1.75100e+03	-3.44146e-02	4.73667e+02
1753	4.76708e+02	1.75300e+03	-3.44676e-02	4.74333e+02
1755	4.77293e+02	1.75500e+03	-3.45038e-02	4.75000e+02
1757	4.77856e+02	1.75700e+03	-3.45257e-02	4.75667e+02
1759	4.78445e+02	1.75900e+03	-3.45475e-02	4.76333e+02
1761	4.79038e+02	1.76100e+03	-3.45690e-02	4.77000e+02
1763	4.79671e+02	1.76300e+03	-3.45994e-02	4.77667e+02
1765	4.80298e+02	1.76500e+03	-3.46394e-02	4.78333e+02
1767	4.80921e+02	1.76700e+03	-3.46742e-02	4.79000e+02
1769	4.81548e+02	1.76900e+03	-3.46999e-02	4.79667e+02
1771	4.82171e+02	1.77100e+03	-3.47124e-02	4.80333e+02
1773	4.82822e+02	1.77300e+03	-3.46979e-02	4.81000e+02
1775	4.83472e+02	1.77500e+03	-3.46789e-02	4.81667e+02
1777	4.84118e+02	1.77700e+03	-3.46467e-02	4.82333e+02
1779	4.84764e+02	1.77900e+03	-3.46259e-02	4.83000e+02
1781	4.85399e+02	1.78100e+03	-3.46138e-02	4.83667e+02
1783	4.86050e+02	1.78300e+03	-3.46008e-02	4.84333e+02
1785	4.86706e+02	1.78500e+03	-3.45971e-02	4.85000e+02
1787	4.87369e+02	1.78700e+03	-3.45970e-02	4.85667e+02
1789	4.88005e+02	1.78900e+03	-3.46029e-02	4.86333e+02
1791	4.88666e+02	1.79100e+03	-3.46099e-02	4.87000e+02
1793	4.89311e+02	1.79300e+03	-3.46214e-02	4.87667e+02
1795	4.89967e+02	1.79500e+03	-3.46326e-02	4.88333e+02
1797	4.90618e+02	1.79700e+03	-3.46388e-02	4.89000e+02
1799	4.91278e+02	1.79900e+03	-3.46350e-02	4.89667e+02
1801	4.91929e+02	1.80100e+03	-3.46131e-02	4.90333e+02
1803	4.92595e+02	1.80300e+03	-3.45935e-02	4.91000e+02
1805	4.93247e+02	1.80500e+03	-3.45708e-02	4.91667e+02
1807	4.93900e+02	1.80700e+03	-3.45613e-02	4.92333e+02
1809	4.94553e+02	1.80900e+03	-3.45686e-02	4.93000e+02
1811	4.95202e+02	1.81100e+03	-3.45750e-02	4.93667e+02
1813	4.95867e+02	1.81300e+03	-3.45890e-02	4.94333e+02
1815	4.96521e+02	1.81500e+03	-3.45987e-02	4.95000e+02
1817	4.97182e+02	1.81700e+03	-3.46013e-02	4.95667e+02
1819	4.97843e+02	1.81900e+03	-3.46007e-02	4.96333e+02
1821	4.98512e+02	1.82100e+03	-3.45947e-02	4.97000e+02
1823	4.99180e+02	1.82300e+03	-3.45895e-02	4.97667e+02
1825	4.99851e+02	1.82500e+03	-3.45935e-02	4.98333e+02
1827	5.00520e+02	1.82700e+03	-3.46035e-02	4.99000e+02
1829	5.01193e+02	1.82900e+03	-3.46299e-02	4.99667e+02
1831	5.01858e+02	1.83100e+03	-3.46587e-02	5.00333e+02
1833	5.02537e+02	1.83300e+03	-3.46922e-02	5.01000e+02
1835	5.03194e+02	1.83500e+03	-3.47191e-02	5.01667e+02
1837	5.03866e+02	1.83700e+03	-3.47422e-02	5.02333e+02
1839	5.04536e+02	1.83900e+03	-3.47661e-02	5.03000e+02
1841	5.05201e+02	1.84100e+03	-3.47806e-02	5.03667e+02
1843	5.05870e+02	1.84300e+03	-3.47772e-02	5.04333e+02
1845	5.06556e+02	1.84500e+03	-3.47477e-02	5.05000e+02
1847	5.07207e+02	1.84700e+03	-3.47215e-02	5.05667e+02
1849	5.07886e+02	1.84900e+03	-3.46954e-02	5.06333e+02
1851	5.08545e+02	1.85100e+03	-3.46856e-02	5.07000e+02
1853	5.09221e+02	1.85300e+03	-3.47021e-02	5.07667e+02
1855	5.09881e+02	1.85500e+03	-3.47159e-02	5.08333e+02
1857	5.10558e+02	1.85700e+03	-3.47424e-02	5.09000e+02
1859	5.11220e+02	1.85900e+03	-3.47762e-02	5.09667e+02
1861	5.11881e+02	1.86100e+03	-3.48150e-02	5.10333e+02
1863	5.12544e+02	1.86300e+03	-3.48458e-02	5.11000e+02
1865	5.13206e+02	1.86500e+03	-3.48740e-02	5.11667e+02
1867	5.13882e+02	1.86700e+03	-3.49069e-02	5.12333e+02
1869	5.14560e+02	1.86900e+03	-3.49322e-02	5.13000e+02
1871	5.15209e+02	1.87100e+03	-3.49454e-02	5.13667e+02
1873	5.15879e+02	1.87300e+03	-3.49371e-02	5.14333e+02
1875	5.16537e+02	1.87500e+03	-3.49226e-02	5.15000e+02
1877	5.17204e+02	1.87700e+03	-3.48903e-02	5.15667e+02
1879	5.17880e+02	1.87900e+03	-3.48671e-02	5.16333e+02
1881	5.18543e+02	1.88100e+03	-3.48470e-02	5.17000e+02
1883	5.19208e+02	1.88300e+03	-3.48300e-02	5.17667e+02
1885	5.19890e+02	1.88500e+03	-3.48272e-02	5.18333e+02
1887	5.20553e+02	1.88700e+03	-3.48304e-02	5.19000e+02
1889	5.21226e+02	1.88900e+03	-3.48429e-02	5.19667e+02
1891	5.21894e+02	1.89100e+03	-3.48479e-02	5.20333e+02
1893	5.22568e+02	1.89300e+03	-3.48442e-02	5.21000e+02
1895	5.23230e+02	1.89500e+03	-3.48406e-02	5.21667e+02
1897	5.23902e+02	1.89700e+03	-3.48366e-02	5.22333e+02
1899	5.24581e+02	1.89900e+03	-3.48421e-02	5.23000e+02
1901	5.25245e+02	1.90100e+03	-3.48506e-02	5.23667e+02
1903	5.25936e+02	1.90300e+03	-3.48470e-02	5.24333e+02
1905	5.26609e+02	1.90500e+03	-3.48365e-02	5.25000e+02
1907	5.27281e+02	1.90700e+03	-3.48292e-02	5.25667e+02
1909	5.27957e+02	1.90900e+03	-3.48205e-02	5.26333e+02
1911	5.28620e+02	1.91100e+03	-3.48151e-02	5.27000e+02
1913	5.29290e+02	1.91300e+03	-3.48156e-02	5.27667e+02
1915	5.29934e+02	1.91500e+03	-3.48171e-02	5.28333e+02
1917	5.30602e+02	1.91700e+03	-3.48247e-02	5.29000e+02
1919	5.31276e+02	1.91900e+03	-3.48325e-02	5.29667e+02
1921	5.31953e+02	1.92100e+03	-3.48419e-02	5.30333e+02
1923	5.32627e+02	1.92300e+03	-3.48498e-02	5.31000e+02
1925	5.33333e+02	1.92500e+03	-3.48548e-02	5.31667e+02
1927	5.33995e+02	1.92700e+03	-3.48606e-02	5.32333e+02
1929	5.34667e+02	1.92900e+03	-3.48598e-02	5.33000e+02
1931	5.35361e+02	1.93100e+03	-3.48587e-02	5.33667e+02
1933	5.36026e+02	1.93300e+03	-3.48637e-02	5.34333e+02
1935	5.36703e+02	1.93500e+03	-3.48890e-02	5.35000e+02
1937	5.37362e+02	1.93700e+03	-3.49288e-02	5.35667e+02
1939	5.38008e+02	1.93900e+03	-3.49526e-02	5.36333e+02
1941	5.38665e+02	1.94100e+03	-3.49669e-02	5.37000e+02
1943	5.39347e+02	1.94300e+03	-3.49710e-02	5.37667e+02
1945	5.40016e+02	1.94500e+03	-3.49551e-02	5.38333e+02
1947	5.40649e+02	1.94700e+03	-3.49415e-02	5.39000e+02
1949	5.41296e+02	1.94900e+03	-3.49262e-02	5.39667e+02
1951	5.41929e+02	1.95100e+03	-3.49129e-02	5.40333e+02
1953	5.42578e+02	1.95300e+03	-3.49042e-02	5.41000e+02
1955	5.43223e+02	1.95500e+03	-3.48961e-02	5.41667e+02
1957	5.43873e+02	1.95700e+03	-3.48975e-02	5.42333e+02
1959	5.44543e+02	1.95900e+03	-3.48953e-02	5.43000e+02
1961	5.45182e+02	1.96100e+03	-3.48934e-02	5.43667e+02
1963	5.45816e+02	1.96300e+03	-3.48861e-02	5.44333e+02
1965	5.46454e+02	1.96500e+03	-3.48802e-02	5.45000e+02
1967	5.47087e+02	1.96700e+03	-3.48844e-02	5.45667e+02
1969	5.47719e+02	1.96900e+03	-3.49038e-02	5.46333e+02
1971	5.48331e+02	1.97100e+03	-3.49185e-02	5.47000e+02
1973	5.48976e+02	1.97300e+03	-3.49324e-02	5.47667e+02
1975	5.49620e+02	1.97500e+03	-3.49379e-02	5.48333e+02
1977	5.50250e+02	1.97700e+03	-3.49263e-02	5.49000e+02
1979	5.50896e+02	1.97900e+03	-3.49041e-02	5.49667e+02
1981	5.51537e+02	1.98100e+03	-3.48602e-02	5.50333e+02
1983	5.52197e+02	1.98300e+03	-3.48240e-02	5.51000e+02
1985	5.52851e+02	1.98500e+03	-3.47868e-02	5.51667e+02
1987	5.53503e+02	1.98700e+03	-3.47565e-02	5.52333e+02
1989	5.54180e+02	1.98900e+03	-3.47471e-02	5.53000e+02
1991	5.54830e+02	1.99100e+03	-3.47517e-02	5.53667e+02
1993	5.55477e+02	1.99300e+03	-3.47910e-02	5.54333e+02
1995	5.56126e+02	1.99500e+03	-3.48372e-02	5.55000e+02
1997	5.56775e+02	1.99700e+03	-3.48996e-02	5.55667e+02
1999	5.57423e+02	1.99900e+03	-3.49501e-02	5.56333e+02
2001	5.58068e+02	2.00100e+03	-3.49812e-02	5.57000e+02
2003	5.58734e+02	2.00300e+03	-3.49911e-02	5.57667e+02
2005	5.59392e+02	2.00500e+03	-3.49647e-02	5.58333e+02
2007	5.60043e+02	2.00700e+03	-3.49385e-02	5.59000e+02
2009	5.60701e+02	2.00900e+03	-3.49013e-02	5.59667e+02
2011	5.61358e+02	2.01100e+03	-3.48816e-02	5.60333e+02
2013	5.62024e+02	2.01300e+03	-3.48823e-02	5.61000e+02
2015	5.62692e+02	2.01500e+03	-3.48802e-02	5.61667e+02
2017	5.63336e+02	2.01700e+03	-3.48833e-02	5.62333e+02
2019	5.63985e+02	2.01900e+03	-3.48824e-02	5.63000e+02
2021	5.64625e+02	2.02100e+03	-3.48694e-02	5.63667e+02
2023	5.65274e+02	2.02300e+03	-3.48464e-02	5.64333e+02
2025	5.65925e+02	2.02500e+03	-3.47980e-02	5.65000e+02
2027	5.66580e+02	2.02700e+03	-3.47495e-02	5.65667e+02
2029	5.67248e+02	2.02900e+03	-3.46980e-02	5.66333e+02
2031	5.67886e+02	2.03100e+03	-3.46708e-02	5.67000e+02
2033	5.68542e+02	2.03300e+03	-3.46857e-02	5.67667e+02
2035	5.69195e+02	2.03500e+03	-3.47097e-02	5.68333e+02
2037	5.69844e+02	2.03700e+03	-3.47588e-02	5.69000e+02
2039	5.70499e+02	2.03900e+03	-3.47850e-02	5.69667e+02
2041	5.71163e+02	2.04100e+03	-3.47941e-02	5.70333e+02
2043	5.71822e+02	2.04300e+03	-3.47982e-02	5.71000e+02
2045	5.72487e+02	2.04500e+03	-3.47888e-02	5.71667e+02
2047	5.73150e+02	2.04700e+03	-3.47879e-02	5.72333e+02
2049	5.73821e+02	2.04900e+03	-3.47880e-02	5.73000e+02
2051	5.74487e+02	2.05100e+03	-3.47894e-02	5.73667e+02
2053	5.75146e+02	2.05300e+03	-3.47972e-02	5.74333e+02
2055	5.75814e+02	2.05500e+03	-3.48089e-02	5.75000e+02
2057	5.76475e+02	2.05700e+03	-3.48265e-02	5.75667e+02
2059	5.77145e+02	2.05900e+03	-3.48340e-02	5.76333e+02
2061	5.77787e+02	2.06100e+03	-3.48341e-02	5.77000e+02
2063	5.78440e+02	2.06300e+03	-3.48445e-02	5.77667e+02
2065	5.79083e+02	2.06500e+03	-3.48514e-02	5.78333e+02
2067	5.79751e+02	2.06700e+03	-3.48533e-02	5.79000e+02
2069	5.80422e+02	2.06900e+03	-3.48509e-02	5.79667e+02
2071	5.81082e+02	2.07100e+03	-3.48578e-02	5.80333e+02
2073	5.81751e+02	2.07300e+03	-3.48760e-02	5.81000e+02
2075	5.82418e+02	2.07500e+03	-3.49021e-02	5.81667e+02
2077	5.83092e+02	2.07700e+03	-3.49326e-02	5.82333e+02
2079	5.83764e+02	2.07900e+03	-3.49436e-02	5.83000e+02
2081	5.84416e+02	2.08100e+03	-3.49331e-02	5.83667e+02
2083	5.85083e+02	2.08300e+03	-3.49339e-02	5.84333e+02
2085	5.85741e+02	2.08500e+03	-3.49390e-02	5.85000e+02
2087	5.86402e+02	2.08700e+03	-3.49376e-02	5.85667e+02
2089	5.87068e+02	2.08900e+03	-3.49246e-02	5.86333e+02
2091	5.87729e+02	2.09100e+03	-3.48987e-02	5.87000e+02
2093	5.88379e+02	2.09300e+03	-3.48485e-02	5.87667e+02
2095	5.89025e+02	2.09500e+03	-3.48065e-02	5.88333e+02
2097	5.89668e+02	2.09700e+03	-3.47658e-02	5.89000e+02
2099	5.90312e+02	2.09900e+03	-3.47348e-02	5.89667e+02
2101	5.90977e+02	2.10100e+03	-3.47350e-02	5.90333e+02
2103	5.91618e+02	2.10300e+03	-3.47594e-02	5.91000e+02
2105	5.92277e+02	2.10500e+03	-3.48205e-02	5.91667e+02
2107	5.92923e+02	2.10700e+03	-3.48586e-02	5.92333e+02
2109	5.93579e+02	2.10900e+03	-3.48759e-02	5.93000e+02
2111	5.94222e+02	2.11100e+03	-3.48755e-02	5.93667e+02
2113	5.94869e+02	2.11300e+03	-3.48516e-02	5.94333e+02
2115	5.95535e+02	2.11500e+03	-3.48561e-02	5.95000e+02
2117	5.96191e+02	2.11700e+03	-3.48853e-02	5.95667e+02
2119	5.96841e+02	2.11900e+03	-3.49157e-02	5.96333e+02
2121	5.97496e+02	2.12100e+03	-3.49501e-02	5.97000e+02
2123	5.98160e+02	2.12300e+03	-3.49664e-02	5.97667e+02
2125	5.98821e+02	2.12500e+03	-3.49567e-02	5.98333e+02
2127	5.99501e+02	2.12700e+03	-3.49440e-02	5.99000e+02
2129	6.00167e+02	2.12900e+03	-3.49236e-02	5.99667e+02
2131	6.00831e+02	2.13100e+03	-3.49109e-02	6.00333e+02
2133	6.01482e+02	2.13300e+03	-3.49025e-02	6.01000e+02
2135	6.02150e+02	2.13500e+03	-3.48952e-02	6.01667e+02
2137	6.02808e+02	2.13700e+03	-3.48992e-02	6.02333e+02
2139	6.03474e+02	2.13900e+03	-3.49064e-02	6.03000e+02
2141	6.04126e+02	2.14100e+03	-3.49245e-02	6.03667e+02
2143	6.04798e+02	2.14300e+03	-3.49380e-02	6.04333e+02
2145	6.05452e+02	2.14500e+03	-3.49487e-02	6.05000e+02
2147	6.06113e+02	2.14700e+03	-3.49542e-02	6.05667e+02
2149	6.06772e+02	2.14900e+03	-3.49502e-02	6.06333e+02
2151	6.07432e+02	2.15100e+03	-3.49510e-02	6.07000e+02
2153	6.08098e+02	2.15300e+03	-3.49649e-02	6.07667e+02
2155	6.08755e+02	2.15500e+03	-3.49834e-02	6.08333e+02
2157	6.09417e+02	2.15700e+03	-3.50016e-02	6.09000e+02
2159	6.10074e+02	2.15900e+03	-3.49930e-02	6.09667e+02
2161	6.10731e+02	2.16100e+03	-3.49445e-02	6.10333e+02
2163	6.11386e+02	2.16300e+03	-3.48930e-02	6.11000e+02
2165	6.12048e+02	2.16500e+03	-3.48317e-02	6.11667e+02
2167	6.12702e+02	2.16700e+03	-3.48000e-02	6.12333e+02
2169	6.13360e+02	2.16900e+03	-3.48039e-02	6.13000e+02
2171	6.14024e+02	2.17100e+03	-3.48010e-02	6.13667e+02
2173	6.14701e+02	2.17300e+03	-3.48012e-02	6.14333e+02
2175	6.15367e+02	2.17500e+03	-3.47854e-02	6.15000e+02
2177	6.16027e+02	2.17700e+03	-3.47556e-02	6.15667e+02
2179	6.16681e+02	2.17900e+03	-3.47400e-02	6.16333e+02
2181	6.17346e+02	2.18100e+03	-3.47475e-02	6.17000e+02
2183	6.18009e+02	2.18300e+03	-3.47566e-02	6.17667e+02
2185	6.18686e+02	2.18500e+03	-3.47970e-02	6.18333e+02
2187	6.19341e+02	2.18700e+03	-3.48481e-02	6.19000e+02
2189	6.19983e+02	2.18900e+03	-3.49270e-02	6.19667e+02
2191	6.20647e+02	2.19100e+03	-3.49993e-02	6.20333e+02
2193	6.21302e+02	2.19300e+03	-3.50504e-02	6.21000e+02
2195	6.21957e+02	2.19500e+03	-3.50635e-02	6.21667e+02
2197	6.22614e+02	2.19700e+03	-3.50216e-02	6.22333e+02
2199	6.23277e+02	2.19900e+03	-3.49882e-02	6.23000e+02
2201	6.23941e+02	2.20100e+03	-3.49443e-02	6.23667e+02
2203	6.24609e+02	2.20300e+03	-3.49170e-02	6.24333e+02
2205	6.25277e+02	2.20500e+03	-3.49112e-02	6.25000e+02
2207	6.25935e+02	2.20700e+03	-3.49059e-02	6.25667e+02
2209	6.26587e+02	2.20900e+03	-3.49191e-02	6.26333e+02
2211	6.27249e+02	2.21100e+03	-3.49377e-02	6.27000e+02
2213	6.27895e+02	2.21300e+03	-3.49655e-02	6.27667e+02
2215	6.28550e+02	2.21500e+03	-3.49820e-02	6.28333e+02
2217	6.29193e+02	2.21700e+03	-3.49877e-02	6.29000e+02
2219	6.29849e+02	2.21900e+03	-3.49867e-02	6.29667e+02
2221	6.30502e+02	2.22100e+03	-3.49685e-02	6.30333e+02
2223	6.31154e+02	2.22300e+03	-3.49539e-02	6.31000e+02
2225	6.31800e+02	2.22500e+03	-3.49303e-02	6.31667e+02
2227	6.32458e+02	2.22700e+03	-3.49028e-02	6.32333e+02
2229	6.33107e+02	2.22900e+03	-3.48752e-02	6.33000e+02
2231	6.33762e+02	2.23100e+03	-3.48644e-02	6.33667e+02
2233	6.34409e+02	2.23300e+03	-3.48808e-02	6.34333e+02
2235	6.35075e+02	2.23500e+03	-3.49079e-02	6.35000e+02
2237	6.35732e+02	2.23700e+03	-3.49595e-02	6.35667e+02
2239	6.36387e+02	2.23900e+03	-3.49932e-02	6.36333e+02
2241	6.37034e+02	2.24100e+03	-3.49995e-02	6.37000e+02
2243	6.37700e+02	2.24300e+03	-3.49939e-02	6.37667e+02
2245	6.38346e+02	2.24500e+03	-3.49763e-02	6.38333e+02
2247	6.39011e+02	2.24700e+03	-3.49776e-02	6.39000e+02
2249	6.39665e+02	2.24900e+03	-3.49995e-02	6.39667e+02
2251	6.40318e+02	2.25100e+03	-3.50133e-02	6.40333e+02
2253	6.40981e+02	2.25300e+03	-3.50216e-02	6.41000e+02
2255	6.41631e+02	2.25500e+03	-3.50290e-02	6.41667e+02
2257	6.42281e+02	2.25700e+03	-3.50350e-02	6.42333e+02
2259	6.42947e+02	2.25900e+03	-3.50439e-02	6.43000e+02
2261	6.43606e+02	2.26100e+03	-3.50588e-02	6.43667e+02
2263	6.44259e+02	2.26300e+03	-3.50730e-02	6.44333e+02
2265	6.44922e+02	2.26500e+03	-3.50861e-02	6.45000e+02
2267	6.45582e+02	2.26700e+03	-3.50864e-02	6.45667e+02
2269	6.46252e+02	2.26900e+03	-3.50632e-02	6.46333e+02
2271	6.46903e+02	2.27100e+03	-3.50307e-02	6.47000e+02
2273	6.47571e+02	2.27300e+03	-3.49849e-02	6.47667e+02
2275	6.48223e+02	2.27500e+03	-3.49622e-02	6.48333e+02
2277	6.48885e+02	2.27700e+03	-3.49523e-02	6.49000e+02
2279	6.49535e+02	2.27900e+03	-3.49413e-02	6.49667e+02
2281	6.50203e+02	2.28100e+03	-3.49514e-02	6.50333e+02
2283	6.50862e+02	2.28300e+03	-3.49689e-02	6.51000e+02
2285	6.51520e+02	2.28500e+03	-3.49888e-02	6.51667e+02
2287	6.52174e+02	2.28700e+03	-3.49915e-02	6.52333e+02
2289	6.52843e+02	2.28900e+03	-3.49936e-02	6.53000e+02
2291	6.53503e+02	2.29100e+03	-3.50061e-02	6.53667e+02
2293	6.54165e+02	2.29300e+03	-3.50246e-02	6.54333e+02
2295	6.54829e+02	2.29500e+03	-3.50307e-02	6.55000e+02
2297	6.55483e+02	2.29700e+03	-3.50240e-02	6.55667e+02
2299	6.56154e+02	2.29900e+03	-3.50187e-02	6.56333e+02
2301	6.56810e+02	2.30100e+03	-3.50116e-02	6.57000e+02
2303	6.57466e+02	2.30300e+03	-3.50101e-02	6.57667e+02
2305	6.58142e+02	2.30500e+03	-3.50128e-02	6.58333e+02
2307	6.58803e+02	2.30700e+03	-3.50126e-02	6.59000e+02
2309	6.59456e+02	2.30900e+03	-3.50022e-02	6.59667e+02
2311	6.60123e+02	2.31100e+03	-3.49823e-02	6.60333e+02
2313	6.60789e+02	2.31300e+03	-3.49546e-02	6.61000e+02
2315	6.61449e+02	2.31500e+03	-3.49391e-02	6.61667e+02
2317	6.62106e+02	2.31700e+03	-3.49393e-02	6.62333e+02
2319	6.62776e+02	2.31900e+03	-3.49435e-02	6.63000e+02
2321	6.63437e+02	2.32100e+03	-3.49682e-02	6.63667e+02
2323	6.64087e+02	2.32300e+03	-3.49957e-02	6.64333e+02
2325	6.64750e+02	2.32500e+03	-3.50345e-02	6.65000e+02
2327	6.65413e+02	2.32700e+03	-3.50622e-02	6.65667e+02
2329	6.66077e+02	2.32900e+03	-3.50688e-02	6.66333e+02
2331	6.66734e+02	2.33100e+03	-3.50631e-02	6.67000e+02
2333	6.67397e+02	2.33300e+03	-3.50342e-02	6.67667e+02
2335	6.68060e+02	2.33500e+03	-3.50144e-02	6.68333e+02
2337	6.68717e+02	2.33700e+03	-3.49860e-02	6.69000e+02
2339	6.69380e+02	2.33900e+03	-3.49556e-02	6.69667e+02
2341	6.70039e+02	2.34100e+03	-3.49411e-02	6.70333e+02
2343	6.70706e+02	2.34300e+03	-3.49560e-02	6.71000e+02
2345	6.71369e+02	2.34500e+03	-3.50122e-02	6.71667e+02
2347	6.72038e+02	2.34700e+03	-3.50584e-02	6.72333e+02
2349	6.72702e+02	2.34900e+03	-3.51049e-02	6.73000e+02
2351	6.73363e+02	2.35100e+03	-3.51344e-02	6.73667e+02
2353	6.74034e+02	2.35300e+03	-3.51386e-02	6.74333e+02
2355	6.74697e+02	2.35500e+03	-3.51445e-02	6.75000e+02
2357	6.75375e+02	2.35700e+03	-3.51294e-02	6.75667e+02
2359	6.76026e+02	2.35900e+03	-3.51054e-02	6.76333e+02
2361	6.76704e+02	2.36100e+03	-3.50611e-02	6.77000e+02
2363	6.77359e+02	2.36300e+03	-3.50372e-02	6.77667e+02
2365	6.78027e+02	2.36500e+03	-3.50320e-02	6.78333e+02
2367	6.78694e+02	2.36700e+03	-3.50405e-02	6.79000e+02
2369	6.79362e+02	2.36900e+03	-3.50810e-02	6.79667e+02
2371	6.80022e+02	2.37100e+03	-3.51167e-02	6.80333e+02
2373	6.80696e+02	2.37300e+03	-3.51557e-02	6.81000e+02
2375	6.81355e+02	2.37500e+03	-3.51858e-02	6.81667e+02
2377	6.82023e+02	2.37700e+03	-3.52076e-02	6.82333e+02
2379	6.82685e+02	2.37900e+03	-3.52268e-02	6.83000e+02
2381	6.83353e+02	2.38100e+03	-3.52366e-02	6.83667e+02
2383	6.84026e+02	2.38300e+03	-3.52377e-02	6.84333e+02
2385	6.84690e+02	2.38500e+03	-3.52389e-02	6.85000e+02
2387	6.85356e+02	2.38700e+03	-3.52471e-02	6.85667e+02
2389	6.86019e+02	2.38900e+03	-3.52696e-02	6.86333e+02
2391	6.86679e+02	2.39100e+03	-3.52938e-02	6.87000e+02
2393	6.87341e+02	2.39300e+03	-3.53215e-02	6.87667e+02
2395	6.88009e+02	2.39500e+03	-3.53374e-02	6.88333e+02
2397	6.88681e+02	2.39700e+03	-3.53237e-02	6.89000e+02
2399	6.89352e+02	2.39900e+03	-3.52992e-02	6.89667e+02
2401	6.90014e+02	2.40100e+03	-3.52470e-02	6.90333e+02
2403	6.90671e+02	2.40300e+03	-3.52112e-02	6.91000e+02
2405	6.91172e+02	2.40500e+03	-3.51890e-02	6.91667e+02
2407	6.91510e+02	2.40700e+03	-3.51762e-02	6.92333e+02
2409	6.92012e+02	2.40900e+03	-3.51850e-02	6.93000e+02
2411	6.92494e+02	2.41100e+03	-3.51897e-02	6.93667e+02
2413	6.92940e+02	2.41300e+03	-3.52096e-02	6.94333e+02
2415	6.93361e+02	2.41500e+03	-3.52360e-02	6.95000e+02
2417	6.93750e+02	2.41700e+03	-3.52720e-02	6.95667e+02
2419	6.94122e+02	2.41900e+03	-3.52957e-02	6.96333e+02
2421	6.94461e+02	2.42100e+03	-3.53083e-02	6.97000e+02
2423	6.94788e+02	2.42300e+03	-3.53228e-02	6.97667e+02
2425	6.95079e+02	2.42500e+03	-3.53347e-02	6.98333e+02
2427	6.95374e+02	2.42700e+03	-3.53405e-02	6.99000e+02
2429	6.95640e+02	2.42900e+03	-3.53341e-02	6.99667e+02
2430	6.95768e+02	2.43000e+03	-3.53239e-02	7.00000e+02