File: Experiments/TUBS/tga_nonisotherm/tga_dynamic_n2_dyn30_powder_2mg_r1.txt
index	ts	t	weight	tr
[#]	[°C]	[s]	[mg]	[°C]
683	1.30996e+02	6.83000e+02	2.04828e+00	1.31500e+02
685	1.31997e+02	6.85000e+02	2.04821e+00	1.32500e+02
687	1.32996e+02	6.87000e+02	2.04815e+00	1.33500e+02
689	1.34009e+02	6.89000e+02	2.04809e+00	1.34500e+02
691	1.35000e+02	6.91000e+02	2.04803e+00	1.35500e+02
693	1.36019e+02	6.93000e+02	2.04795e+00	1.36500e+02
695	1.37021e+02	6.95000e+02	2.04784e+00	1.37500e+02
697	1.38017e+02	6.97000e+02	2.04770e+00	1.38500e+02
699	1.39022e+02	6.99000e+02	2.04757e+00	1.39500e+02
701	1.40034e+02	7.01000e+02	2.04743e+00	1.40500e+02
703	1.41034e+02	7.03000e+02	2.04730e+00	1.41500e+02
705	1.42051e+02	7.05000e+02	2.04717e+00	1.42500e+02
707	1.43049e+02	7.07000e+02	2.04704e+00	1.43500e+02
709	1.44041e+02	7.09000e+02	2.04688e+00	1.44500e+02
711	1.45064e+02	7.11000e+02	2.04671e+00	1.45500e+02
713	1.46068e+02	7.13000e+02	2.04653e+00	1.46500e+02
715	1.47077e+02	7.15000e+02	2.04637e+00	1.47500e+02
717	1.48079e+02	7.17000e+02	2.04622e+00	1.48500e+02
719	1.49087e+02	7.19000e+02	2.04605e+00	1.49500e+02
721	1.50077e+02	7.21000e+02	2.04586e+00	1.50500e+02
723	1.51101e+02	7.23000e+02	2.04564e+00	1.51500e+02
725	1.52100e+02	7.25000e+02	2.04537e+00	1.52500e+02
727	1.53106e+02	7.27000e+02	2.04509e+00	1.53500e+02
729	1.54103e+02	7.29000e+02	2.04476e+00	1.54500e+02
731	1.55117e+02	7.31000e+02	2.04441e+00	1.55500e+02
733	1.56123e+02	7.33000e+02	2.04401e+00	1.56500e+02
735	1.57131e+02	7.35000e+02	2.04362e+00	1.57500e+02
737	1.58134e+02	7.37000e+02	2.04324e+00	1.58500e+02
739	1.59147e+02	7.39000e+02	2.04287e+00	1.59500e+02
741	1.60156e+02	7.41000e+02	2.04251e+00	1.60500e+02
743	1.61149e+02	7.43000e+02	2.04215e+00	1.61500e+02
745	1.62174e+02	7.45000e+02	2.04179e+00	1.62500e+02
747	1.63183e+02	7.47000e+02	2.04143e+00	1.63500e+02
749	1.64194e+02	7.49000e+02	2.04107e+00	1.64500e+02
751	1.65198e+02	7.51000e+02	2.04069e+00	1.65500e+02
753	1.66203e+02	7.53000e+02	2.04028e+00	1.66500e+02
755	1.67214e+02	7.55000e+02	2.03984e+00	1.67500e+02
757	1.68231e+02	7.57000e+02	2.03937e+00	1.68500e+02
759	1.69237e+02	7.59000e+02	2.03889e+00	1.69500e+02
761	1.70243e+02	7.61000e+02	2.03839e+00	1.70500e+02
763	1.71259e+02	7.63000e+02	2.03790e+00	1.71500e+02
765	1.72268e+02	7.65000e+02	2.03738e+00	1.72500e+02
767	1.73284e+02	7.67000e+02	2.03683e+00	1.73500e+02
769	1.74289e+02	7.69000e+02	2.03621e+00	1.74500e+02
771	1.75293e+02	7.71000e+02	2.03556e+00	1.75500e+02
773	1.76318e+02	7.73000e+02	2.03482e+00	1.76500e+02
775	1.77318e+02	7.75000e+02	2.03405e+00	1.77500e+02
777	1.78327e+02	7.77000e+02	2.03318e+00	1.78500e+02
779	1.79341e+02	7.79000e+02	2.03230e+00	1.79500e+02
781	1.80350e+02	7.81000e+02	2.03130e+00	1.80500e+02
783	1.81364e+02	7.83000e+02	2.03027e+00	1.81500e+02
785	1.82380e+02	7.85000e+02	2.02910e+00	1.82500e+02
787	1.83382e+02	7.87000e+02	2.02789e+00	1.83500e+02
789	1.84400e+02	7.89000e+02	2.02653e+00	1.84500e+02
791	1.85427e+02	7.91000e+02	2.02512e+00	1.85500e+02
793	1.86426e+02	7.93000e+02	2.02352e+00	1.86500e+02
795	1.87432e+02	7.95000e+02	2.02189e+00	1.87500e+02
797	1.88452e+02	7.97000e+02	2.02009e+00	1.88500e+02
799	1.89476e+02	7.99000e+02	2.01828e+00	1.89500e+02
801	1.90463e+02	8.01000e+02	2.01638e+00	1.90500e+02
803	1.91486e+02	8.03000e+02	2.01447e+00	1.91500e+02
805	1.92490e+02	8.05000e+02	2.01248e+00	1.92500e+02
807	1.93507e+02	8.07000e+02	2.01044e+00	1.93500e+02
809	1.94522e+02	8.09000e+02	2.00831e+00	1.94500e+02
811	1.95540e+02	8.11000e+02	2.00619e+00	1.95500e+02
813	1.96561e+02	8.13000e+02	2.00406e+00	1.96500e+02
815	1.97561e+02	8.15000e+02	2.00198e+00	1.97500e+02
817	1.98587e+02	8.17000e+02	1.99999e+00	1.98500e+02
819	1.99604e+02	8.19000e+02	1.99802e+00	1.99500e+02
821	2.00611e+02	8.21000e+02	1.99615e+00	2.00500e+02
823	2.01639e+02	8.23000e+02	1.99432e+00	2.01500e+02
825	2.02655e+02	8.25000e+02	1.99264e+00	2.02500e+02
827	2.03681e+02	8.27000e+02	1.99102e+00	2.03500e+02
829	2.04692e+02	8.29000e+02	1.98958e+00	2.04500e+02
831	2.05707e+02	8.31000e+02	1.98817e+00	2.05500e+02
833	2.06721e+02	8.33000e+02	1.98688e+00	2.06500e+02
835	2.07749e+02	8.35000e+02	1.98561e+00	2.07500e+02
837	2.08774e+02	8.37000e+02	1.98445e+00	2.08500e+02
839	2.09770e+02	8.39000e+02	1.98334e+00	2.09500e+02
841	2.10786e+02	8.41000e+02	1.98237e+00	2.10500e+02
843	2.11811e+02	8.43000e+02	1.98143e+00	2.11500e+02
845	2.12820e+02	8.45000e+02	1.98065e+00	2.12500e+02
847	2.13837e+02	8.47000e+02	1.97989e+00	2.13500e+02
849	2.14858e+02	8.49000e+02	1.97926e+00	2.14500e+02
851	2.15869e+02	8.51000e+02	1.97867e+00	2.15500e+02
853	2.16880e+02	8.53000e+02	1.97818e+00	2.16500e+02
855	2.17910e+02	8.55000e+02	1.97768e+00	2.17500e+02
857	2.18909e+02	8.57000e+02	1.97722e+00	2.18500e+02
859	2.19920e+02	8.59000e+02	1.97676e+00	2.19500e+02
861	2.20932e+02	8.61000e+02	1.97630e+00	2.20500e+02
863	2.21951e+02	8.63000e+02	1.97584e+00	2.21500e+02
865	2.22968e+02	8.65000e+02	1.97539e+00	2.22500e+02
867	2.23976e+02	8.67000e+02	1.97495e+00	2.23500e+02
869	2.24991e+02	8.69000e+02	1.97451e+00	2.24500e+02
871	2.26009e+02	8.71000e+02	1.97405e+00	2.25500e+02
873	2.27020e+02	8.73000e+02	1.97355e+00	2.26500e+02
875	2.28041e+02	8.75000e+02	1.97303e+00	2.27500e+02
877	2.29053e+02	8.77000e+02	1.97245e+00	2.28500e+02
879	2.30072e+02	8.79000e+02	1.97188e+00	2.29500e+02
881	2.31080e+02	8.81000e+02	1.97131e+00	2.30500e+02
883	2.32095e+02	8.83000e+02	1.97075e+00	2.31500e+02
885	2.33098e+02	8.85000e+02	1.97019e+00	2.32500e+02
887	2.34119e+02	8.87000e+02	1.96963e+00	2.33500e+02
889	2.35141e+02	8.89000e+02	1.96908e+00	2.34500e+02
891	2.36159e+02	8.91000e+02	1.96853e+00	2.35500e+02
893	2.37176e+02	8.93000e+02	1.96798e+00	2.36500e+02
895	2.38184e+02	8.95000e+02	1.96744e+00	2.37500e+02
897	2.39205e+02	8.97000e+02	1.96692e+00	2.38500e+02
899	2.40215e+02	8.99000e+02	1.96642e+00	2.39500e+02
901	2.41230e+02	9.01000e+02	1.96597e+00	2.40500e+02
903	2.42237e+02	9.03000e+02	1.96550e+00	2.41500e+02
905	2.43256e+02	9.05000e+02	1.96505e+00	2.42500e+02
907	2.44271e+02	9.07000e+02	1.96457e+00	2.43500e+02
909	2.45282e+02	9.09000e+02	1.96407e+00	2.44500e+02
911	2.46294e+02	9.11000e+02	1.96357e+00	2.45500e+02
913	2.47312e+02	9.13000e+02	1.96307e+00	2.46500e+02
915	2.48318e+02	9.15000e+02	1.96258e+00	2.47500e+02
917	2.49336e+02	9.17000e+02	1.96213e+00	2.48500e+02
919	2.50351e+02	9.19000e+02	1.96171e+00	2.49500e+02
921	2.51371e+02	9.21000e+02	1.96136e+00	2.50500e+02
923	2.52389e+02	9.23000e+02	1.96101e+00	2.51500e+02
925	2.53385e+02	9.25000e+02	1.96070e+00	2.52500e+02
927	2.54404e+02	9.27000e+02	1.96036e+00	2.53500e+02
929	2.55425e+02	9.29000e+02	1.96003e+00	2.54500e+02
931	2.56435e+02	9.31000e+02	1.95969e+00	2.55500e+02
933	2.57458e+02	9.33000e+02	1.95935e+00	2.56500e+02
935	2.58469e+02	9.35000e+02	1.95902e+00	2.57500e+02
937	2.59474e+02	9.37000e+02	1.95868e+00	2.58500e+02
939	2.60502e+02	9.39000e+02	1.95836e+00	2.59500e+02
941	2.61519e+02	9.41000e+02	1.95804e+00	2.60500e+02
943	2.62528e+02	9.43000e+02	1.95772e+00	2.61500e+02
945	2.63541e+02	9.45000e+02	1.95741e+00	2.62500e+02
947	2.64560e+02	9.47000e+02	1.95710e+00	2.63500e+02
949	2.65586e+02	9.49000e+02	1.95678e+00	2.64500e+02
951	2.66591e+02	9.51000e+02	1.95646e+00	2.65500e+02
953	2.67616e+02	9.53000e+02	1.95612e+00	2.66500e+02
955	2.68633e+02	9.55000e+02	1.95578e+00	2.67500e+02
957	2.69648e+02	9.57000e+02	1.95541e+00	2.68500e+02
959	2.70662e+02	9.59000e+02	1.95505e+00	2.69500e+02
961	2.71687e+02	9.61000e+02	1.95466e+00	2.70500e+02
963	2.72719e+02	9.63000e+02	1.95427e+00	2.71500e+02
965	2.73733e+02	9.65000e+02	1.95386e+00	2.72500e+02
967	2.74759e+02	9.67000e+02	1.95344e+00	2.73500e+02
969	2.75779e+02	9.69000e+02	1.95298e+00	2.74500e+02
971	2.76777e+02	9.71000e+02	1.95248e+00	2.75500e+02
973	2.77788e+02	9.73000e+02	1.95193e+00	2.76500e+02
975	2.78808e+02	9.75000e+02	1.95137e+00	2.77500e+02
977	2.79831e+02	9.77000e+02	1.95078e+00	2.78500e+02
979	2.80832e+02	9.79000e+02	1.95016e+00	2.79500e+02
981	2.81834e+02	9.81000e+02	1.94950e+00	2.80500e+02
983	2.82841e+02	9.83000e+02	1.94881e+00	2.81500e+02
985	2.83860e+02	9.85000e+02	1.94804e+00	2.82500e+02
987	2.84859e+02	9.87000e+02	1.94725e+00	2.83500e+02
989	2.85868e+02	9.89000e+02	1.94637e+00	2.84500e+02
991	2.86883e+02	9.91000e+02	1.94546e+00	2.85500e+02
993	2.87889e+02	9.93000e+02	1.94447e+00	2.86500e+02
995	2.88902e+02	9.95000e+02	1.94346e+00	2.87500e+02
997	2.89908e+02	9.97000e+02	1.94236e+00	2.88500e+02
999	2.90911e+02	9.99000e+02	1.94123e+00	2.89500e+02
1001	2.91928e+02	1.00100e+03	1.93999e+00	2.90500e+02
1003	2.92958e+02	1.00300e+03	1.93869e+00	2.91500e+02
1005	2.93961e+02	1.00500e+03	1.93722e+00	2.92500e+02
1007	2.94974e+02	1.00700e+03	1.93568e+00	2.93500e+02
1009	2.95975e+02	1.00900e+03	1.93395e+00	2.94500e+02
1011	2.96953e+02	1.01100e+03	1.93219e+00	2.95500e+02
1013	2.97951e+02	1.01300e+03	1.93026e+00	2.96500e+02
1015	2.98954e+02	1.01500e+03	1.92830e+00	2.97500e+02
1017	2.99967e+02	1.01700e+03	1.92617e+00	2.98500e+02
1019	3.00976e+02	1.01900e+03	1.92403e+00	2.99500e+02
1021	3.01992e+02	1.02100e+03	1.92176e+00	3.00500e+02
1023	3.03008e+02	1.02300e+03	1.91948e+00	3.01500e+02
1025	3.04027e+02	1.02500e+03	1.91709e+00	3.02500e+02
1027	3.05016e+02	1.02700e+03	1.91465e+00	3.03500e+02
1029	3.06029e+02	1.02900e+03	1.91204e+00	3.04500e+02
1031	3.07041e+02	1.03100e+03	1.90940e+00	3.05500e+02
1033	3.08046e+02	1.03300e+03	1.90662e+00	3.06500e+02
1035	3.09047e+02	1.03500e+03	1.90383e+00	3.07500e+02
1037	3.10065e+02	1.03700e+03	1.90092e+00	3.08500e+02
1039	3.11079e+02	1.03900e+03	1.89797e+00	3.09500e+02
1041	3.12098e+02	1.04100e+03	1.89488e+00	3.10500e+02
1043	3.13108e+02	1.04300e+03	1.89177e+00	3.11500e+02
1045	3.14120e+02	1.04500e+03	1.88856e+00	3.12500e+02
1047	3.15125e+02	1.04700e+03	1.88534e+00	3.13500e+02
1049	3.16134e+02	1.04900e+03	1.88206e+00	3.14500e+02
1051	3.17101e+02	1.05100e+03	1.87877e+00	3.15500e+02
1053	3.18069e+02	1.05300e+03	1.87543e+00	3.16500e+02
1055	3.19043e+02	1.05500e+03	1.87209e+00	3.17500e+02
1057	3.20035e+02	1.05700e+03	1.86871e+00	3.18500e+02
1059	3.21020e+02	1.05900e+03	1.86533e+00	3.19500e+02
1061	3.22028e+02	1.06100e+03	1.86194e+00	3.20500e+02
1063	3.23014e+02	1.06300e+03	1.85854e+00	3.21500e+02
1065	3.24032e+02	1.06500e+03	1.85514e+00	3.22500e+02
1067	3.25029e+02	1.06700e+03	1.85172e+00	3.23500e+02
1069	3.26025e+02	1.06900e+03	1.84825e+00	3.24500e+02
1071	3.27032e+02	1.07100e+03	1.84472e+00	3.25500e+02
1073	3.28031e+02	1.07300e+03	1.84104e+00	3.26500e+02
1075	3.29033e+02	1.07500e+03	1.83728e+00	3.27500e+02
1077	3.30051e+02	1.07700e+03	1.83325e+00	3.28500e+02
1079	3.31057e+02	1.07900e+03	1.82913e+00	3.29500e+02
1081	3.32069e+02	1.08100e+03	1.82468e+00	3.30500e+02
1083	3.33044e+02	1.08300e+03	1.82011e+00	3.31500e+02
1085	3.34051e+02	1.08500e+03	1.81512e+00	3.32500e+02
1087	3.35051e+02	1.08700e+03	1.80999e+00	3.33500e+02
1089	3.36051e+02	1.08900e+03	1.80434e+00	3.34500e+02
1091	3.37043e+02	1.09100e+03	1.79855e+00	3.35500e+02
1093	3.38042e+02	1.09300e+03	1.79220e+00	3.36500e+02
1095	3.39039e+02	1.09500e+03	1.78567e+00	3.37500e+02
1097	3.40032e+02	1.09700e+03	1.77850e+00	3.38500e+02
1099	3.41031e+02	1.09900e+03	1.77113e+00	3.39500e+02
1101	3.42019e+02	1.10100e+03	1.76298e+00	3.40500e+02
1103	3.43011e+02	1.10300e+03	1.75459e+00	3.41500e+02
1105	3.44016e+02	1.10500e+03	1.74534e+00	3.42500e+02
1107	3.45004e+02	1.10700e+03	1.73585e+00	3.43500e+02
1109	3.45994e+02	1.10900e+03	1.72541e+00	3.44500e+02
1111	3.46992e+02	1.11100e+03	1.71471e+00	3.45500e+02
1113	3.47985e+02	1.11300e+03	1.70299e+00	3.46500e+02
1115	3.48960e+02	1.11500e+03	1.69101e+00	3.47500e+02
1117	3.49958e+02	1.11700e+03	1.67794e+00	3.48500e+02
1119	3.50934e+02	1.11900e+03	1.66456e+00	3.49500e+02
1121	3.51955e+02	1.12100e+03	1.64998e+00	3.50500e+02
1123	3.52941e+02	1.12300e+03	1.63510e+00	3.51500e+02
1125	3.53930e+02	1.12500e+03	1.61896e+00	3.52500e+02
1127	3.54946e+02	1.12700e+03	1.60254e+00	3.53500e+02
1129	3.55940e+02	1.12900e+03	1.58488e+00	3.54500e+02
1131	3.56918e+02	1.13100e+03	1.56693e+00	3.55500e+02
1133	3.57916e+02	1.13300e+03	1.54772e+00	3.56500e+02
1135	3.58915e+02	1.13500e+03	1.52823e+00	3.57500e+02
1137	3.59906e+02	1.13700e+03	1.50746e+00	3.58500e+02
1139	3.60892e+02	1.13900e+03	1.48636e+00	3.59500e+02
1141	3.61890e+02	1.14100e+03	1.46398e+00	3.60500e+02
1143	3.62884e+02	1.14300e+03	1.44135e+00	3.61500e+02
1145	3.63865e+02	1.14500e+03	1.41752e+00	3.62500e+02
1147	3.64849e+02	1.14700e+03	1.39347e+00	3.63500e+02
1149	3.65836e+02	1.14900e+03	1.36833e+00	3.64500e+02
1151	3.66804e+02	1.15100e+03	1.34296e+00	3.65500e+02
1153	3.67786e+02	1.15300e+03	1.31658e+00	3.66500e+02
1155	3.68781e+02	1.15500e+03	1.28994e+00	3.67500e+02
1157	3.69763e+02	1.15700e+03	1.26227e+00	3.68500e+02
1159	3.70769e+02	1.15900e+03	1.23435e+00	3.69500e+02
1161	3.71759e+02	1.16100e+03	1.20538e+00	3.70500e+02
1163	3.72768e+02	1.16300e+03	1.17618e+00	3.71500e+02
1165	3.73759e+02	1.16500e+03	1.14601e+00	3.72500e+02
1167	3.74769e+02	1.16700e+03	1.11573e+00	3.73500e+02
1169	3.75769e+02	1.16900e+03	1.08476e+00	3.74500e+02
1171	3.76775e+02	1.17100e+03	1.05374e+00	3.75500e+02
1173	3.77787e+02	1.17300e+03	1.02208e+00	3.76500e+02
1175	3.78790e+02	1.17500e+03	9.90081e-01	3.77500e+02
1177	3.79797e+02	1.17700e+03	9.57085e-01	3.78500e+02
1179	3.80801e+02	1.17900e+03	9.23844e-01	3.79500e+02
1181	3.81796e+02	1.18100e+03	8.89782e-01	3.80500e+02
1183	3.82789e+02	1.18300e+03	8.55896e-01	3.81500e+02
1185	3.83801e+02	1.18500e+03	8.21954e-01	3.82500e+02
1187	3.84803e+02	1.18700e+03	7.88259e-01	3.83500e+02
1189	3.85816e+02	1.18900e+03	7.54925e-01	3.84500e+02
1191	3.86797e+02	1.19100e+03	7.21711e-01	3.85500e+02
1193	3.87813e+02	1.19300e+03	6.88935e-01	3.86500e+02
1195	3.88830e+02	1.19500e+03	6.56315e-01	3.87500e+02
1197	3.89840e+02	1.19700e+03	6.24292e-01	3.88500e+02
1199	3.90849e+02	1.19900e+03	5.92489e-01	3.89500e+02
1201	3.91876e+02	1.20100e+03	5.61497e-01	3.90500e+02
1203	3.92876e+02	1.20300e+03	5.30799e-01	3.91500e+02
1205	3.93870e+02	1.20500e+03	5.01132e-01	3.92500e+02
1207	3.94871e+02	1.20700e+03	4.71782e-01	3.93500e+02
1209	3.95867e+02	1.20900e+03	4.43667e-01	3.94500e+02
1211	3.96880e+02	1.21100e+03	4.15932e-01	3.95500e+02
1213	3.97877e+02	1.21300e+03	3.89611e-01	3.96500e+02
1215	3.98891e+02	1.21500e+03	3.63697e-01	3.97500e+02
1217	3.99878e+02	1.21700e+03	3.39371e-01	3.98500e+02
1219	4.00880e+02	1.21900e+03	3.15482e-01	3.99500e+02
1221	4.01906e+02	1.22100e+03	2.93298e-01	4.00500e+02
1223	4.02895e+02	1.22300e+03	2.71533e-01	4.01500e+02
1225	4.03895e+02	1.22500e+03	2.51485e-01	4.02500e+02
1227	4.04894e+02	1.22700e+03	2.31834e-01	4.03500e+02
1229	4.05902e+02	1.22900e+03	2.13891e-01	4.04500e+02
1231	4.06910e+02	1.23100e+03	1.96349e-01	4.05500e+02
1233	4.07932e+02	1.23300e+03	1.80477e-01	4.06500e+02
1235	4.08950e+02	1.23500e+03	1.64957e-01	4.07500e+02
1237	4.09959e+02	1.23700e+03	1.51018e-01	4.08500e+02
1239	4.10976e+02	1.23900e+03	1.37420e-01	4.09500e+02
1241	4.11968e+02	1.24100e+03	1.25327e-01	4.10500e+02
1243	4.12959e+02	1.24300e+03	1.13537e-01	4.11500e+02
1245	4.13956e+02	1.24500e+03	1.03145e-01	4.12500e+02
1247	4.14968e+02	1.24700e+03	9.30158e-02	4.13500e+02
1249	4.15972e+02	1.24900e+03	8.41251e-02	4.14500e+02
1251	4.16963e+02	1.25100e+03	7.54530e-02	4.15500e+02
1253	4.17982e+02	1.25300e+03	6.78855e-02	4.16500e+02
1255	4.18981e+02	1.25500e+03	6.05357e-02	4.17500e+02
1257	4.19980e+02	1.25700e+03	5.42052e-02	4.18500e+02
1259	4.20997e+02	1.25900e+03	4.80702e-02	4.19500e+02
1261	4.22010e+02	1.26100e+03	4.28560e-02	4.20500e+02
1263	4.23011e+02	1.26300e+03	3.77989e-02	4.21500e+02
1265	4.24033e+02	1.26500e+03	3.35267e-02	4.22500e+02
1267	4.25040e+02	1.26700e+03	2.93808e-02	4.23500e+02
1269	4.26051e+02	1.26900e+03	2.59107e-02	4.24500e+02
1271	4.27058e+02	1.27100e+03	2.25751e-02	4.25500e+02
1273	4.28055e+02	1.27300e+03	1.98413e-02	4.26500e+02
1275	4.29042e+02	1.27500e+03	1.71945e-02	4.27500e+02
1277	4.30047e+02	1.27700e+03	1.50290e-02	4.28500e+02
1279	4.31038e+02	1.27900e+03	1.29205e-02	4.29500e+02
1281	4.32024e+02	1.28100e+03	1.11954e-02	4.30500e+02
1283	4.33026e+02	1.28300e+03	9.53381e-03	4.31500e+02
1285	4.34015e+02	1.28500e+03	8.20320e-03	4.32500e+02
1287	4.35016e+02	1.28700e+03	6.91629e-03	4.33500e+02
1289	4.35997e+02	1.28900e+03	5.88278e-03	4.34500e+02
1291	4.36994e+02	1.29100e+03	4.87111e-03	4.35500e+02
1293	4.37991e+02	1.29300e+03	4.03764e-03	4.36500e+02
1295	4.39006e+02	1.29500e+03	3.23214e-03	4.37500e+02
1297	4.40000e+02	1.29700e+03	2.57614e-03	4.38500e+02
1299	4.40983e+02	1.29900e+03	1.94568e-03	4.39500e+02
1301	4.41966e+02	1.30100e+03	1.45474e-03	4.40500e+02
1303	4.42975e+02	1.30300e+03	9.79004e-04	4.41500e+02
1305	4.43989e+02	1.30500e+03	6.04377e-04	4.42500e+02
1307	4.44987e+02	1.30700e+03	2.35448e-04	4.43500e+02
1309	4.45986e+02	1.30900e+03	-6.77981e-05	4.44500e+02
1311	4.46992e+02	1.31100e+03	-3.54266e-04	4.45500e+02
1313	4.48002e+02	1.31300e+03	-5.67557e-04	4.46500e+02
1315	4.49020e+02	1.31500e+03	-7.66516e-04	4.47500e+02
1317	4.50013e+02	1.31700e+03	-9.13526e-04	4.48500e+02
1319	4.51011e+02	1.31900e+03	-1.06308e-03	4.49500e+02
1321	4.51994e+02	1.32100e+03	-1.18405e-03	4.50500e+02
1323	4.52964e+02	1.32300e+03	-1.30250e-03	4.51500e+02
1325	4.53918e+02	1.32500e+03	-1.40591e-03	4.52500e+02
1327	4.54887e+02	1.32700e+03	-1.51184e-03	4.53500e+02
1329	4.55862e+02	1.32900e+03	-1.60968e-03	4.54500e+02
1331	4.56830e+02	1.33100e+03	-1.70006e-03	4.55500e+02
1333	4.57829e+02	1.33300e+03	-1.77503e-03	4.56500e+02
1335	4.58800e+02	1.33500e+03	-1.84633e-03	4.57500e+02
1337	4.59784e+02	1.33700e+03	-1.88251e-03	4.58500e+02
1339	4.60759e+02	1.33900e+03	-1.89389e-03	4.59500e+02
1341	4.61737e+02	1.34100e+03	-1.86386e-03	4.60500e+02
1343	4.62717e+02	1.34300e+03	-1.84819e-03	4.61500e+02
1345	4.63695e+02	1.34500e+03	-1.84263e-03	4.62500e+02
1347	4.64662e+02	1.34700e+03	-1.85178e-03	4.63500e+02
1349	4.65627e+02	1.34900e+03	-1.89186e-03	4.64500e+02
1351	4.66608e+02	1.35100e+03	-1.93555e-03	4.65500e+02
1353	4.67592e+02	1.35300e+03	-2.00164e-03	4.66500e+02
1355	4.68563e+02	1.35500e+03	-2.06497e-03	4.67500e+02
1357	4.69539e+02	1.35700e+03	-2.12284e-03	4.68500e+02
1359	4.70510e+02	1.35900e+03	-2.15985e-03	4.69500e+02
1361	4.71476e+02	1.36100e+03	-2.16053e-03	4.70500e+02
1363	4.72455e+02	1.36300e+03	-2.16375e-03	4.71500e+02
1365	4.73422e+02	1.36500e+03	-2.15525e-03	4.72500e+02
1367	4.74405e+02	1.36700e+03	-2.16467e-03	4.73500e+02
1369	4.75413e+02	1.36900e+03	-2.20042e-03	4.74500e+02
1371	4.76372e+02	1.37100e+03	-2.24001e-03	4.75500e+02
1373	4.77358e+02	1.37300e+03	-2.29074e-03	4.76500e+02
1375	4.78337e+02	1.37500e+03	-2.33100e-03	4.77500e+02
1377	4.79327e+02	1.37700e+03	-2.36659e-03	4.78500e+02
1379	4.80301e+02	1.37900e+03	-2.40479e-03	4.79500e+02
1381	4.81289e+02	1.38100e+03	-2.43746e-03	4.80500e+02
1383	4.82269e+02	1.38300e+03	-2.46182e-03	4.81500e+02
1385	4.83236e+02	1.38500e+03	-2.46958e-03	4.82500e+02
1387	4.84200e+02	1.38700e+03	-2.47828e-03	4.83500e+02
1389	4.85182e+02	1.38900e+03	-2.48116e-03	4.84500e+02
1391	4.86167e+02	1.39100e+03	-2.48774e-03	4.85500e+02
1393	4.87138e+02	1.39300e+03	-2.48659e-03	4.86500e+02
1395	4.88119e+02	1.39500e+03	-2.47850e-03	4.87500e+02
1397	4.89085e+02	1.39700e+03	-2.46507e-03	4.88500e+02
1399	4.90078e+02	1.39900e+03	-2.46896e-03	4.89500e+02
1401	4.91061e+02	1.40100e+03	-2.49997e-03	4.90500e+02
1403	4.92041e+02	1.40300e+03	-2.54265e-03	4.91500e+02
1405	4.92999e+02	1.40500e+03	-2.62139e-03	4.92500e+02
1407	4.93986e+02	1.40700e+03	-2.69047e-03	4.93500e+02
1409	4.94956e+02	1.40900e+03	-2.75043e-03	4.94500e+02
1411	4.95945e+02	1.41100e+03	-2.78253e-03	4.95500e+02
1413	4.96916e+02	1.41300e+03	-2.76624e-03	4.96500e+02
1415	4.97900e+02	1.41500e+03	-2.75033e-03	4.97500e+02
1417	4.98885e+02	1.41700e+03	-2.72101e-03	4.98500e+02
1419	4.99873e+02	1.41900e+03	-2.71057e-03	4.99500e+02
1421	5.00856e+02	1.42100e+03	-2.72225e-03	5.00500e+02
1423	5.01845e+02	1.42300e+03	-2.73881e-03	5.01500e+02
1425	5.02829e+02	1.42500e+03	-2.77904e-03	5.02500e+02
1427	5.03824e+02	1.42700e+03	-2.81541e-03	5.03500e+02
1429	5.04804e+02	1.42900e+03	-2.84182e-03	5.04500e+02
1431	5.05789e+02	1.43100e+03	-2.83831e-03	5.05500e+02
1433	5.06787e+02	1.43300e+03	-2.78030e-03	5.06500e+02
1435	5.07765e+02	1.43500e+03	-2.72545e-03	5.07500e+02
1437	5.08757e+02	1.43700e+03	-2.67634e-03	5.08500e+02
1439	5.09739e+02	1.43900e+03	-2.66936e-03	5.09500e+02
1441	5.10732e+02	1.44100e+03	-2.71232e-03	5.10500e+02
1443	5.11723e+02	1.44300e+03	-2.73322e-03	5.11500e+02
1445	5.12712e+02	1.44500e+03	-2.77085e-03	5.12500e+02
1447	5.13716e+02	1.44700e+03	-2.84153e-03	5.13500e+02
1449	5.14710e+02	1.44900e+03	-2.98694e-03	5.14500e+02
1451	5.15719e+02	1.45100e+03	-3.12809e-03	5.15500e+02
1453	5.16707e+02	1.45300e+03	-3.22296e-03	5.16500e+02
1455	5.17717e+02	1.45500e+03	-3.20692e-03	5.17500e+02
1457	5.18704e+02	1.45700e+03	-3.01490e-03	5.18500e+02
1459	5.19707e+02	1.45900e+03	-2.86646e-03	5.19500e+02
1461	5.20702e+02	1.46100e+03	-2.74314e-03	5.20500e+02
1463	5.21703e+02	1.46300e+03	-2.69038e-03	5.21500e+02
1465	5.22703e+02	1.46500e+03	-2.74342e-03	5.22500e+02
1467	5.23697e+02	1.46700e+03	-2.76334e-03	5.23500e+02
1469	5.24693e+02	1.46900e+03	-2.78187e-03	5.24500e+02
1471	5.25685e+02	1.47100e+03	-2.77765e-03	5.25500e+02
1473	5.26682e+02	1.47300e+03	-2.75855e-03	5.26500e+02
1475	5.27663e+02	1.47500e+03	-2.76507e-03	5.27500e+02
1477	5.28670e+02	1.47700e+03	-2.79423e-03	5.28500e+02
1479	5.29681e+02	1.47900e+03	-2.82042e-03	5.29500e+02
1481	5.30688e+02	1.48100e+03	-2.85316e-03	5.30500e+02
1483	5.31691e+02	1.48300e+03	-2.88310e-03	5.31500e+02
1485	5.32698e+02	1.48500e+03	-2.91402e-03	5.32500e+02
1487	5.33698e+02	1.48700e+03	-2.94118e-03	5.33500e+02
1489	5.34702e+02	1.48900e+03	-2.95968e-03	5.34500e+02
1491	5.35703e+02	1.49100e+03	-2.96696e-03	5.35500e+02
1493	5.36726e+02	1.49300e+03	-2.96619e-03	5.36500e+02
1495	5.37743e+02	1.49500e+03	-2.98005e-03	5.37500e+02
1497	5.38791e+02	1.49700e+03	-3.01469e-03	5.38500e+02
1499	5.39813e+02	1.49900e+03	-3.04762e-03	5.39500e+02
1501	5.40821e+02	1.50100e+03	-3.08326e-03	5.40500e+02
1503	5.41818e+02	1.50300e+03	-3.10888e-03	5.41500e+02
1505	5.42848e+02	1.50500e+03	-3.11013e-03	5.42500e+02
1507	5.43860e+02	1.50700e+03	-3.09489e-03	5.43500e+02
1509	5.44853e+02	1.50900e+03	-3.04941e-03	5.44500e+02
1511	5.45844e+02	1.51100e+03	-3.01452e-03	5.45500e+02
1513	5.46841e+02	1.51300e+03	-2.99824e-03	5.46500e+02
1515	5.47829e+02	1.51500e+03	-3.00482e-03	5.47500e+02
1517	5.48857e+02	1.51700e+03	-3.04176e-03	5.48500e+02
1519	5.49845e+02	1.51900e+03	-3.05701e-03	5.49500e+02
1521	5.50865e+02	1.52100e+03	-3.04765e-03	5.50500e+02
1523	5.51855e+02	1.52300e+03	-3.03042e-03	5.51500e+02
1525	5.52847e+02	1.52500e+03	-3.00265e-03	5.52500e+02
1527	5.53832e+02	1.52700e+03	-3.01008e-03	5.53500e+02
1529	5.54834e+02	1.52900e+03	-3.08916e-03	5.54500e+02
1531	5.55852e+02	1.53100e+03	-3.19798e-03	5.55500e+02
1533	5.56864e+02	1.53300e+03	-3.34861e-03	5.56500e+02
1535	5.57884e+02	1.53500e+03	-3.42693e-03	5.57500e+02
1537	5.58895e+02	1.53700e+03	-3.37919e-03	5.58500e+02
1539	5.59900e+02	1.53900e+03	-3.29679e-03	5.59500e+02
1541	5.60901e+02	1.54100e+03	-3.14998e-03	5.60500e+02
1543	5.61879e+02	1.54300e+03	-3.08453e-03	5.61500e+02
1545	5.62878e+02	1.54500e+03	-3.11410e-03	5.62500e+02
1547	5.63860e+02	1.54700e+03	-3.15044e-03	5.63500e+02
1549	5.64847e+02	1.54900e+03	-3.22552e-03	5.64500e+02
1551	5.65838e+02	1.55100e+03	-3.26491e-03	5.65500e+02
1553	5.66836e+02	1.55300e+03	-3.27083e-03	5.66500e+02
1555	5.67827e+02	1.55500e+03	-3.27686e-03	5.67500e+02
1557	5.68791e+02	1.55700e+03	-3.27241e-03	5.68500e+02
1559	5.69772e+02	1.55900e+03	-3.28389e-03	5.69500e+02
1561	5.70752e+02	1.56100e+03	-3.32653e-03	5.70500e+02
1563	5.71727e+02	1.56300e+03	-3.37302e-03	5.71500e+02
1565	5.72705e+02	1.56500e+03	-3.42313e-03	5.72500e+02
1567	5.73720e+02	1.56700e+03	-3.45049e-03	5.73500e+02
1569	5.74692e+02	1.56900e+03	-3.45375e-03	5.74500e+02
1571	5.75688e+02	1.57100e+03	-3.46814e-03	5.75500e+02
1573	5.76704e+02	1.57300e+03	-3.48252e-03	5.76500e+02
1575	5.77696e+02	1.57500e+03	-3.49718e-03	5.77500e+02
1577	5.78679e+02	1.57700e+03	-3.51252e-03	5.78500e+02
1579	5.79670e+02	1.57900e+03	-3.52629e-03	5.79500e+02
1581	5.80650e+02	1.58100e+03	-3.53681e-03	5.80500e+02
1583	5.81630e+02	1.58300e+03	-3.55548e-03	5.81500e+02
1585	5.82615e+02	1.58500e+03	-3.58484e-03	5.82500e+02
1587	5.83629e+02	1.58700e+03	-3.60957e-03	5.83500e+02
1589	5.84616e+02	1.58900e+03	-3.62164e-03	5.84500e+02
1591	5.85575e+02	1.59100e+03	-3.61501e-03	5.85500e+02
1593	5.86565e+02	1.59300e+03	-3.57733e-03	5.86500e+02
1595	5.87507e+02	1.59500e+03	-3.54592e-03	5.87500e+02
1597	5.88473e+02	1.59700e+03	-3.51364e-03	5.88500e+02
1599	5.89441e+02	1.59900e+03	-3.49199e-03	5.89500e+02
1601	5.90433e+02	1.60100e+03	-3.49882e-03	5.90500e+02
1603	5.91397e+02	1.60300e+03	-3.51403e-03	5.91500e+02
1605	5.92380e+02	1.60500e+03	-3.54671e-03	5.92500e+02
1607	5.93359e+02	1.60700e+03	-3.56833e-03	5.93500e+02
1609	5.94339e+02	1.60900e+03	-3.58073e-03	5.94500e+02
1611	5.95321e+02	1.61100e+03	-3.58778e-03	5.95500e+02
1613	5.96304e+02	1.61300e+03	-3.58249e-03	5.96500e+02
1615	5.97295e+02	1.61500e+03	-3.58079e-03	5.97500e+02
1617	5.98286e+02	1.61700e+03	-3.58721e-03	5.98500e+02
1619	5.99265e+02	1.61900e+03	-3.61243e-03	5.99500e+02
1621	6.00247e+02	1.62100e+03	-3.67198e-03	6.00500e+02
1623	6.01235e+02	1.62300e+03	-3.73205e-03	6.01500e+02
1625	6.02209e+02	1.62500e+03	-3.80331e-03	6.02500e+02
1627	6.03198e+02	1.62700e+03	-3.85298e-03	6.03500e+02
1629	6.04181e+02	1.62900e+03	-3.86986e-03	6.04500e+02
1631	6.05161e+02	1.63100e+03	-3.87318e-03	6.05500e+02
1633	6.06149e+02	1.63300e+03	-3.84014e-03	6.06500e+02
1635	6.07128e+02	1.63500e+03	-3.81390e-03	6.07500e+02
1637	6.08125e+02	1.63700e+03	-3.78495e-03	6.08500e+02
1639	6.09090e+02	1.63900e+03	-3.76898e-03	6.09500e+02
1641	6.10062e+02	1.64100e+03	-3.76846e-03	6.10500e+02
1643	6.11040e+02	1.64300e+03	-3.76524e-03	6.11500e+02
1645	6.12034e+02	1.64500e+03	-3.77907e-03	6.12500e+02
1647	6.13011e+02	1.64700e+03	-3.80334e-03	6.13500e+02
1649	6.13995e+02	1.64900e+03	-3.83812e-03	6.14500e+02
1651	6.14971e+02	1.65100e+03	-3.84882e-03	6.15500e+02
1653	6.15929e+02	1.65300e+03	-3.82460e-03	6.16500e+02
1655	6.16898e+02	1.65500e+03	-3.79399e-03	6.17500e+02
1657	6.17862e+02	1.65700e+03	-3.75338e-03	6.18500e+02
1659	6.18848e+02	1.65900e+03	-3.74253e-03	6.19500e+02
1661	6.19828e+02	1.66100e+03	-3.76489e-03	6.20500e+02
1663	6.20788e+02	1.66300e+03	-3.78017e-03	6.21500e+02
1665	6.21753e+02	1.66500e+03	-3.79190e-03	6.22500e+02
1667	6.22728e+02	1.66700e+03	-3.80181e-03	6.23500e+02
1669	6.23691e+02	1.66900e+03	-3.81211e-03	6.24500e+02
1671	6.24690e+02	1.67100e+03	-3.83291e-03	6.25500e+02
1673	6.25646e+02	1.67300e+03	-3.86357e-03	6.26500e+02
1675	6.26614e+02	1.67500e+03	-3.88382e-03	6.27500e+02
1677	6.27602e+02	1.67700e+03	-3.89431e-03	6.28500e+02
1679	6.28586e+02	1.67900e+03	-3.90328e-03	6.29500e+02
1681	6.29583e+02	1.68100e+03	-3.90190e-03	6.30500e+02
1683	6.30586e+02	1.68300e+03	-3.90052e-03	6.31500e+02
1685	6.31588e+02	1.68500e+03	-3.89379e-03	6.32500e+02
1687	6.32568e+02	1.68700e+03	-3.89769e-03	6.33500e+02
1689	6.33551e+02	1.68900e+03	-3.91717e-03	6.34500e+02
1691	6.34516e+02	1.69100e+03	-3.93490e-03	6.35500e+02
1693	6.35496e+02	1.69300e+03	-3.94728e-03	6.36500e+02
1695	6.36467e+02	1.69500e+03	-3.94008e-03	6.37500e+02
1697	6.37448e+02	1.69700e+03	-3.90697e-03	6.38500e+02
1699	6.38433e+02	1.69900e+03	-3.88039e-03	6.39500e+02
1701	6.39408e+02	1.70100e+03	-3.85592e-03	6.40500e+02
1703	6.40384e+02	1.70300e+03	-3.84304e-03	6.41500e+02
1705	6.41372e+02	1.70500e+03	-3.85748e-03	6.42500e+02
1707	6.42310e+02	1.70700e+03	-3.87701e-03	6.43500e+02
1709	6.43269e+02	1.70900e+03	-3.91358e-03	6.44500e+02
1711	6.44228e+02	1.71100e+03	-3.93989e-03	6.45500e+02
1713	6.45209e+02	1.71300e+03	-3.96585e-03	6.46500e+02
1715	6.46183e+02	1.71500e+03	-4.00351e-03	6.47500e+02
1717	6.47185e+02	1.71700e+03	-4.08090e-03	6.48500e+02
1719	6.48161e+02	1.71900e+03	-4.18067e-03	6.49500e+02
1721	6.49141e+02	1.72100e+03	-4.32423e-03	6.50500e+02
1723	6.50130e+02	1.72300e+03	-4.42570e-03	6.51500e+02
1725	6.51113e+02	1.72500e+03	-4.42436e-03	6.52500e+02
1727	6.52097e+02	1.72700e+03	-4.34413e-03	6.53500e+02
1729	6.53085e+02	1.72900e+03	-4.10034e-03	6.54500e+02
1731	6.54073e+02	1.73100e+03	-3.88955e-03	6.55500e+02
1733	6.55053e+02	1.73300e+03	-3.69615e-03	6.56500e+02
1735	6.56007e+02	1.73500e+03	-3.58595e-03	6.57500e+02
1737	6.56977e+02	1.73700e+03	-3.61218e-03	6.58500e+02
1739	6.57960e+02	1.73900e+03	-3.64661e-03	6.59500e+02
1741	6.58933e+02	1.74100e+03	-3.76018e-03	6.60500e+02
1743	6.59906e+02	1.74300e+03	-3.84269e-03	6.61500e+02
1745	6.60882e+02	1.74500e+03	-3.92190e-03	6.62500e+02
1747	6.61862e+02	1.74700e+03	-3.99369e-03	6.63500e+02
1749	6.62842e+02	1.74900e+03	-4.05621e-03	6.64500e+02
1751	6.63823e+02	1.75100e+03	-4.11328e-03	6.65500e+02
1753	6.64790e+02	1.75300e+03	-4.13821e-03	6.66500e+02
1755	6.65771e+02	1.75500e+03	-4.13203e-03	6.67500e+02
1757	6.66745e+02	1.75700e+03	-4.07074e-03	6.68500e+02
1759	6.67730e+02	1.75900e+03	-4.03142e-03	6.69500e+02
1761	6.68706e+02	1.76100e+03	-4.01512e-03	6.70500e+02
1763	6.69696e+02	1.76300e+03	-4.02664e-03	6.71500e+02
1765	6.70667e+02	1.76500e+03	-4.08131e-03	6.72500e+02
1767	6.71663e+02	1.76700e+03	-4.11482e-03	6.73500e+02
1769	6.72638e+02	1.76900e+03	-4.12995e-03	6.74500e+02
1771	6.73621e+02	1.77100e+03	-4.13851e-03	6.75500e+02
1773	6.74603e+02	1.77300e+03	-4.13120e-03	6.76500e+02
1775	6.75600e+02	1.77500e+03	-4.13916e-03	6.77500e+02
1777	6.76567e+02	1.77700e+03	-4.15688e-03	6.78500e+02
1779	6.77562e+02	1.77900e+03	-4.16784e-03	6.79500e+02
1781	6.78559e+02	1.78100e+03	-4.17292e-03	6.80500e+02
1783	6.79535e+02	1.78300e+03	-4.18163e-03	6.81500e+02
1785	6.80539e+02	1.78500e+03	-4.21982e-03	6.82500e+02
1787	6.81513e+02	1.78700e+03	-4.28359e-03	6.83500e+02
1789	6.82507e+02	1.78900e+03	-4.37700e-03	6.84500e+02
1791	6.83500e+02	1.79100e+03	-4.42734e-03	6.85500e+02
1793	6.84493e+02	1.79300e+03	-4.38003e-03	6.86500e+02
1795	6.85136e+02	1.79500e+03	-4.27863e-03	6.87500e+02
1797	6.85629e+02	1.79700e+03	-4.08200e-03	6.88500e+02
1799	6.86387e+02	1.79900e+03	-3.93942e-03	6.89500e+02
1801	6.87088e+02	1.80100e+03	-3.84715e-03	6.90500e+02
1803	6.87768e+02	1.80300e+03	-3.82051e-03	6.91500e+02
1805	6.88392e+02	1.80500e+03	-3.89172e-03	6.92500e+02
1807	6.88987e+02	1.80700e+03	-3.96188e-03	6.93500e+02
1809	6.89550e+02	1.80900e+03	-4.06439e-03	6.94500e+02
1811	6.90064e+02	1.81100e+03	-4.13874e-03	6.95500e+02
1813	6.90555e+02	1.81300e+03	-4.17793e-03	6.96500e+02
1815	6.91020e+02	1.81500e+03	-4.19779e-03	6.97500e+02
1817	6.91452e+02	1.81700e+03	-4.17821e-03	6.98500e+02
1819	6.91866e+02	1.81900e+03	-4.16570e-03	6.99500e+02
1820	6.92058e+02	1.82000e+03	-4.15690e-03	7.00000e+02