File: Experiments/TUBS/tga_nonisotherm/tga_dynamic_n2_dyn30_powder_2mg_r2.txt
index	ts	t	weight	tr
[#]	[°C]	[s]	[mg]	[°C]
683	1.30911e+02	6.83000e+02	2.03789e+00	1.31500e+02
685	1.31918e+02	6.85000e+02	2.03783e+00	1.32500e+02
687	1.32917e+02	6.87000e+02	2.03778e+00	1.33500e+02
689	1.33924e+02	6.89000e+02	2.03774e+00	1.34500e+02
691	1.34924e+02	6.91000e+02	2.03769e+00	1.35500e+02
693	1.35925e+02	6.93000e+02	2.03763e+00	1.36500e+02
695	1.36924e+02	6.95000e+02	2.03754e+00	1.37500e+02
697	1.37935e+02	6.97000e+02	2.03741e+00	1.38500e+02
699	1.38943e+02	6.99000e+02	2.03727e+00	1.39500e+02
701	1.39944e+02	7.01000e+02	2.03711e+00	1.40500e+02
703	1.40959e+02	7.03000e+02	2.03697e+00	1.41500e+02
705	1.41954e+02	7.05000e+02	2.03686e+00	1.42500e+02
707	1.42960e+02	7.07000e+02	2.03676e+00	1.43500e+02
709	1.43971e+02	7.09000e+02	2.03666e+00	1.44500e+02
711	1.44962e+02	7.11000e+02	2.03654e+00	1.45500e+02
713	1.45966e+02	7.13000e+02	2.03638e+00	1.46500e+02
715	1.46977e+02	7.15000e+02	2.03622e+00	1.47500e+02
717	1.47975e+02	7.17000e+02	2.03602e+00	1.48500e+02
719	1.48998e+02	7.19000e+02	2.03581e+00	1.49500e+02
721	1.49985e+02	7.21000e+02	2.03556e+00	1.50500e+02
723	1.50994e+02	7.23000e+02	2.03530e+00	1.51500e+02
725	1.52002e+02	7.25000e+02	2.03501e+00	1.52500e+02
727	1.53003e+02	7.27000e+02	2.03471e+00	1.53500e+02
729	1.54020e+02	7.29000e+02	2.03437e+00	1.54500e+02
731	1.55022e+02	7.31000e+02	2.03402e+00	1.55500e+02
733	1.56023e+02	7.33000e+02	2.03364e+00	1.56500e+02
735	1.57038e+02	7.35000e+02	2.03329e+00	1.57500e+02
737	1.58044e+02	7.37000e+02	2.03298e+00	1.58500e+02
739	1.59034e+02	7.39000e+02	2.03267e+00	1.59500e+02
741	1.60047e+02	7.41000e+02	2.03234e+00	1.60500e+02
743	1.61056e+02	7.43000e+02	2.03199e+00	1.61500e+02
745	1.62049e+02	7.45000e+02	2.03161e+00	1.62500e+02
747	1.63061e+02	7.47000e+02	2.03125e+00	1.63500e+02
749	1.64080e+02	7.49000e+02	2.03091e+00	1.64500e+02
751	1.65072e+02	7.51000e+02	2.03058e+00	1.65500e+02
753	1.66083e+02	7.53000e+02	2.03026e+00	1.66500e+02
755	1.67086e+02	7.55000e+02	2.02990e+00	1.67500e+02
757	1.68104e+02	7.57000e+02	2.02948e+00	1.68500e+02
759	1.69116e+02	7.59000e+02	2.02904e+00	1.69500e+02
761	1.70123e+02	7.61000e+02	2.02854e+00	1.70500e+02
763	1.71131e+02	7.63000e+02	2.02804e+00	1.71500e+02
765	1.72143e+02	7.65000e+02	2.02749e+00	1.72500e+02
767	1.73171e+02	7.67000e+02	2.02693e+00	1.73500e+02
769	1.74165e+02	7.69000e+02	2.02632e+00	1.74500e+02
771	1.75186e+02	7.71000e+02	2.02570e+00	1.75500e+02
773	1.76187e+02	7.73000e+02	2.02504e+00	1.76500e+02
775	1.77195e+02	7.75000e+02	2.02435e+00	1.77500e+02
777	1.78215e+02	7.77000e+02	2.02357e+00	1.78500e+02
779	1.79228e+02	7.79000e+02	2.02274e+00	1.79500e+02
781	1.80257e+02	7.81000e+02	2.02178e+00	1.80500e+02
783	1.81255e+02	7.83000e+02	2.02081e+00	1.81500e+02
785	1.82277e+02	7.85000e+02	2.01974e+00	1.82500e+02
787	1.83293e+02	7.87000e+02	2.01863e+00	1.83500e+02
789	1.84306e+02	7.89000e+02	2.01739e+00	1.84500e+02
791	1.85310e+02	7.91000e+02	2.01606e+00	1.85500e+02
793	1.86339e+02	7.93000e+02	2.01451e+00	1.86500e+02
795	1.87351e+02	7.95000e+02	2.01291e+00	1.87500e+02
797	1.88363e+02	7.97000e+02	2.01115e+00	1.88500e+02
799	1.89376e+02	7.99000e+02	2.00940e+00	1.89500e+02
801	1.90394e+02	8.01000e+02	2.00756e+00	1.90500e+02
803	1.91400e+02	8.03000e+02	2.00570e+00	1.91500e+02
805	1.92433e+02	8.05000e+02	2.00373e+00	1.92500e+02
807	1.93440e+02	8.07000e+02	2.00174e+00	1.93500e+02
809	1.94458e+02	8.09000e+02	1.99967e+00	1.94500e+02
811	1.95455e+02	8.11000e+02	1.99760e+00	1.95500e+02
813	1.96493e+02	8.13000e+02	1.99553e+00	1.96500e+02
815	1.97507e+02	8.15000e+02	1.99349e+00	1.97500e+02
817	1.98520e+02	8.17000e+02	1.99149e+00	1.98500e+02
819	1.99532e+02	8.19000e+02	1.98952e+00	1.99500e+02
821	2.00552e+02	8.21000e+02	1.98761e+00	2.00500e+02
823	2.01568e+02	8.23000e+02	1.98572e+00	2.01500e+02
825	2.02586e+02	8.25000e+02	1.98391e+00	2.02500e+02
827	2.03587e+02	8.27000e+02	1.98218e+00	2.03500e+02
829	2.04608e+02	8.29000e+02	1.98062e+00	2.04500e+02
831	2.05627e+02	8.31000e+02	1.97910e+00	2.05500e+02
833	2.06646e+02	8.33000e+02	1.97777e+00	2.06500e+02
835	2.07664e+02	8.35000e+02	1.97648e+00	2.07500e+02
837	2.08690e+02	8.37000e+02	1.97533e+00	2.08500e+02
839	2.09704e+02	8.39000e+02	1.97420e+00	2.09500e+02
841	2.10722e+02	8.41000e+02	1.97319e+00	2.10500e+02
843	2.11733e+02	8.43000e+02	1.97220e+00	2.11500e+02
845	2.12767e+02	8.45000e+02	1.97133e+00	2.12500e+02
847	2.13775e+02	8.47000e+02	1.97050e+00	2.13500e+02
849	2.14780e+02	8.49000e+02	1.96984e+00	2.14500e+02
851	2.15816e+02	8.51000e+02	1.96921e+00	2.15500e+02
853	2.16828e+02	8.53000e+02	1.96875e+00	2.16500e+02
855	2.17843e+02	8.55000e+02	1.96828e+00	2.17500e+02
857	2.18856e+02	8.57000e+02	1.96786e+00	2.18500e+02
859	2.19883e+02	8.59000e+02	1.96740e+00	2.19500e+02
861	2.20895e+02	8.61000e+02	1.96692e+00	2.20500e+02
863	2.21919e+02	8.63000e+02	1.96645e+00	2.21500e+02
865	2.22935e+02	8.65000e+02	1.96600e+00	2.22500e+02
867	2.23947e+02	8.67000e+02	1.96555e+00	2.23500e+02
869	2.24969e+02	8.69000e+02	1.96512e+00	2.24500e+02
871	2.25983e+02	8.71000e+02	1.96467e+00	2.25500e+02
873	2.26994e+02	8.73000e+02	1.96418e+00	2.26500e+02
875	2.28017e+02	8.75000e+02	1.96369e+00	2.27500e+02
877	2.29042e+02	8.77000e+02	1.96315e+00	2.28500e+02
879	2.30075e+02	8.79000e+02	1.96259e+00	2.29500e+02
881	2.31094e+02	8.81000e+02	1.96198e+00	2.30500e+02
883	2.32107e+02	8.83000e+02	1.96138e+00	2.31500e+02
885	2.33122e+02	8.85000e+02	1.96077e+00	2.32500e+02
887	2.34145e+02	8.87000e+02	1.96019e+00	2.33500e+02
889	2.35162e+02	8.89000e+02	1.95965e+00	2.34500e+02
891	2.36180e+02	8.91000e+02	1.95911e+00	2.35500e+02
893	2.37201e+02	8.93000e+02	1.95861e+00	2.36500e+02
895	2.38209e+02	8.95000e+02	1.95812e+00	2.37500e+02
897	2.39252e+02	8.97000e+02	1.95766e+00	2.38500e+02
899	2.40276e+02	8.99000e+02	1.95719e+00	2.39500e+02
901	2.41305e+02	9.01000e+02	1.95674e+00	2.40500e+02
903	2.42339e+02	9.03000e+02	1.95630e+00	2.41500e+02
905	2.43364e+02	9.05000e+02	1.95586e+00	2.42500e+02
907	2.44394e+02	9.07000e+02	1.95541e+00	2.43500e+02
909	2.45412e+02	9.09000e+02	1.95494e+00	2.44500e+02
911	2.46441e+02	9.11000e+02	1.95446e+00	2.45500e+02
913	2.47477e+02	9.13000e+02	1.95396e+00	2.46500e+02
915	2.48493e+02	9.15000e+02	1.95347e+00	2.47500e+02
917	2.49539e+02	9.17000e+02	1.95300e+00	2.48500e+02
919	2.50581e+02	9.19000e+02	1.95257e+00	2.49500e+02
921	2.51603e+02	9.21000e+02	1.95218e+00	2.50500e+02
923	2.52631e+02	9.23000e+02	1.95177e+00	2.51500e+02
925	2.53653e+02	9.25000e+02	1.95134e+00	2.52500e+02
927	2.54668e+02	9.27000e+02	1.95090e+00	2.53500e+02
929	2.55680e+02	9.29000e+02	1.95047e+00	2.54500e+02
931	2.56704e+02	9.31000e+02	1.95007e+00	2.55500e+02
933	2.57728e+02	9.33000e+02	1.94971e+00	2.56500e+02
935	2.58745e+02	9.35000e+02	1.94935e+00	2.57500e+02
937	2.59787e+02	9.37000e+02	1.94901e+00	2.58500e+02
939	2.60803e+02	9.39000e+02	1.94866e+00	2.59500e+02
941	2.61826e+02	9.41000e+02	1.94836e+00	2.60500e+02
943	2.62848e+02	9.43000e+02	1.94810e+00	2.61500e+02
945	2.63884e+02	9.45000e+02	1.94795e+00	2.62500e+02
947	2.64893e+02	9.47000e+02	1.94785e+00	2.63500e+02
949	2.65920e+02	9.49000e+02	1.94778e+00	2.64500e+02
951	2.66956e+02	9.51000e+02	1.94749e+00	2.65500e+02
953	2.67980e+02	9.53000e+02	1.94689e+00	2.66500e+02
955	2.69006e+02	9.55000e+02	1.94630e+00	2.67500e+02
957	2.70035e+02	9.57000e+02	1.94562e+00	2.68500e+02
959	2.71056e+02	9.59000e+02	1.94510e+00	2.69500e+02
961	2.72076e+02	9.61000e+02	1.94477e+00	2.70500e+02
963	2.73103e+02	9.63000e+02	1.94439e+00	2.71500e+02
965	2.74121e+02	9.65000e+02	1.94403e+00	2.72500e+02
967	2.75167e+02	9.67000e+02	1.94367e+00	2.73500e+02
969	2.76202e+02	9.69000e+02	1.94329e+00	2.74500e+02
971	2.77239e+02	9.71000e+02	1.94288e+00	2.75500e+02
973	2.78256e+02	9.73000e+02	1.94239e+00	2.76500e+02
975	2.79251e+02	9.75000e+02	1.94188e+00	2.77500e+02
977	2.80272e+02	9.77000e+02	1.94130e+00	2.78500e+02
979	2.81281e+02	9.79000e+02	1.94070e+00	2.79500e+02
981	2.82302e+02	9.81000e+02	1.94005e+00	2.80500e+02
983	2.83323e+02	9.83000e+02	1.93940e+00	2.81500e+02
985	2.84326e+02	9.85000e+02	1.93868e+00	2.82500e+02
987	2.85329e+02	9.87000e+02	1.93796e+00	2.83500e+02
989	2.86347e+02	9.89000e+02	1.93721e+00	2.84500e+02
991	2.87365e+02	9.91000e+02	1.93643e+00	2.85500e+02
993	2.88369e+02	9.93000e+02	1.93557e+00	2.86500e+02
995	2.89387e+02	9.95000e+02	1.93465e+00	2.87500e+02
997	2.90415e+02	9.97000e+02	1.93357e+00	2.88500e+02
999	2.91422e+02	9.99000e+02	1.93247e+00	2.89500e+02
1001	2.92439e+02	1.00100e+03	1.93121e+00	2.90500e+02
1003	2.93452e+02	1.00300e+03	1.92990e+00	2.91500e+02
1005	2.94447e+02	1.00500e+03	1.92841e+00	2.92500e+02
1007	2.95459e+02	1.00700e+03	1.92691e+00	2.93500e+02
1009	2.96461e+02	1.00900e+03	1.92530e+00	2.94500e+02
1011	2.97453e+02	1.01100e+03	1.92368e+00	2.95500e+02
1013	2.98447e+02	1.01300e+03	1.92194e+00	2.96500e+02
1015	2.99427e+02	1.01500e+03	1.92008e+00	2.97500e+02
1017	3.00395e+02	1.01700e+03	1.91795e+00	2.98500e+02
1019	3.01366e+02	1.01900e+03	1.91581e+00	2.99500e+02
1021	3.02334e+02	1.02100e+03	1.91360e+00	3.00500e+02
1023	3.03318e+02	1.02300e+03	1.91147e+00	3.01500e+02
1025	3.04285e+02	1.02500e+03	1.90936e+00	3.02500e+02
1027	3.05269e+02	1.02700e+03	1.90711e+00	3.03500e+02
1029	3.06235e+02	1.02900e+03	1.90463e+00	3.04500e+02
1031	3.07193e+02	1.03100e+03	1.90209e+00	3.05500e+02
1033	3.08150e+02	1.03300e+03	1.89932e+00	3.06500e+02
1035	3.09107e+02	1.03500e+03	1.89655e+00	3.07500e+02
1037	3.10075e+02	1.03700e+03	1.89365e+00	3.08500e+02
1039	3.11043e+02	1.03900e+03	1.89072e+00	3.09500e+02
1041	3.11994e+02	1.04100e+03	1.88762e+00	3.10500e+02
1043	3.12952e+02	1.04300e+03	1.88445e+00	3.11500e+02
1045	3.13897e+02	1.04500e+03	1.88105e+00	3.12500e+02
1047	3.14868e+02	1.04700e+03	1.87760e+00	3.13500e+02
1049	3.15846e+02	1.04900e+03	1.87398e+00	3.14500e+02
1051	3.16811e+02	1.05100e+03	1.87039e+00	3.15500e+02
1053	3.17794e+02	1.05300e+03	1.86678e+00	3.16500e+02
1055	3.18792e+02	1.05500e+03	1.86324e+00	3.17500e+02
1057	3.19783e+02	1.05700e+03	1.85976e+00	3.18500e+02
1059	3.20769e+02	1.05900e+03	1.85629e+00	3.19500e+02
1061	3.21770e+02	1.06100e+03	1.85287e+00	3.20500e+02
1063	3.22780e+02	1.06300e+03	1.84947e+00	3.21500e+02
1065	3.23780e+02	1.06500e+03	1.84612e+00	3.22500e+02
1067	3.24780e+02	1.06700e+03	1.84277e+00	3.23500e+02
1069	3.25783e+02	1.06900e+03	1.83944e+00	3.24500e+02
1071	3.26781e+02	1.07100e+03	1.83607e+00	3.25500e+02
1073	3.27781e+02	1.07300e+03	1.83260e+00	3.26500e+02
1075	3.28783e+02	1.07500e+03	1.82900e+00	3.27500e+02
1077	3.29789e+02	1.07700e+03	1.82513e+00	3.28500e+02
1079	3.30790e+02	1.07900e+03	1.82116e+00	3.29500e+02
1081	3.31794e+02	1.08100e+03	1.81685e+00	3.30500e+02
1083	3.32784e+02	1.08300e+03	1.81248e+00	3.31500e+02
1085	3.33791e+02	1.08500e+03	1.80777e+00	3.32500e+02
1087	3.34781e+02	1.08700e+03	1.80295e+00	3.33500e+02
1089	3.35773e+02	1.08900e+03	1.79770e+00	3.34500e+02
1091	3.36788e+02	1.09100e+03	1.79229e+00	3.35500e+02
1093	3.37769e+02	1.09300e+03	1.78636e+00	3.36500e+02
1095	3.38770e+02	1.09500e+03	1.78023e+00	3.37500e+02
1097	3.39764e+02	1.09700e+03	1.77343e+00	3.38500e+02
1099	3.40753e+02	1.09900e+03	1.76642e+00	3.39500e+02
1101	3.41758e+02	1.10100e+03	1.75864e+00	3.40500e+02
1103	3.42745e+02	1.10300e+03	1.75066e+00	3.41500e+02
1105	3.43745e+02	1.10500e+03	1.74187e+00	3.42500e+02
1107	3.44736e+02	1.10700e+03	1.73284e+00	3.43500e+02
1109	3.45733e+02	1.10900e+03	1.72291e+00	3.44500e+02
1111	3.46719e+02	1.11100e+03	1.71273e+00	3.45500e+02
1113	3.47716e+02	1.11300e+03	1.70158e+00	3.46500e+02
1115	3.48710e+02	1.11500e+03	1.69018e+00	3.47500e+02
1117	3.49699e+02	1.11700e+03	1.67773e+00	3.48500e+02
1119	3.50676e+02	1.11900e+03	1.66496e+00	3.49500e+02
1121	3.51676e+02	1.12100e+03	1.65098e+00	3.50500e+02
1123	3.52654e+02	1.12300e+03	1.63668e+00	3.51500e+02
1125	3.53648e+02	1.12500e+03	1.62116e+00	3.52500e+02
1127	3.54648e+02	1.12700e+03	1.60536e+00	3.53500e+02
1129	3.55634e+02	1.12900e+03	1.58836e+00	3.54500e+02
1131	3.56612e+02	1.13100e+03	1.57107e+00	3.55500e+02
1133	3.57605e+02	1.13300e+03	1.55254e+00	3.56500e+02
1135	3.58581e+02	1.13500e+03	1.53368e+00	3.57500e+02
1137	3.59581e+02	1.13700e+03	1.51350e+00	3.58500e+02
1139	3.60574e+02	1.13900e+03	1.49301e+00	3.59500e+02
1141	3.61561e+02	1.14100e+03	1.47125e+00	3.60500e+02
1143	3.62556e+02	1.14300e+03	1.44925e+00	3.61500e+02
1145	3.63560e+02	1.14500e+03	1.42604e+00	3.62500e+02
1147	3.64546e+02	1.14700e+03	1.40258e+00	3.63500e+02
1149	3.65544e+02	1.14900e+03	1.37797e+00	3.64500e+02
1151	3.66557e+02	1.15100e+03	1.35314e+00	3.65500e+02
1153	3.67581e+02	1.15300e+03	1.32724e+00	3.66500e+02
1155	3.68624e+02	1.15500e+03	1.30112e+00	3.67500e+02
1157	3.69626e+02	1.15700e+03	1.27395e+00	3.68500e+02
1159	3.70629e+02	1.15900e+03	1.24654e+00	3.69500e+02
1161	3.71641e+02	1.16100e+03	1.21807e+00	3.70500e+02
1163	3.72615e+02	1.16300e+03	1.18934e+00	3.71500e+02
1165	3.73621e+02	1.16500e+03	1.15961e+00	3.72500e+02
1167	3.74609e+02	1.16700e+03	1.12973e+00	3.73500e+02
1169	3.75609e+02	1.16900e+03	1.09900e+00	3.74500e+02
1171	3.76609e+02	1.17100e+03	1.06813e+00	3.75500e+02
1173	3.77628e+02	1.17300e+03	1.03658e+00	3.76500e+02
1175	3.78616e+02	1.17500e+03	1.00497e+00	3.77500e+02
1177	3.79640e+02	1.17700e+03	9.72910e-01	3.78500e+02
1179	3.80667e+02	1.17900e+03	9.40769e-01	3.79500e+02
1181	3.81686e+02	1.18100e+03	9.08136e-01	3.80500e+02
1183	3.82661e+02	1.18300e+03	8.75233e-01	3.81500e+02
1185	3.83656e+02	1.18500e+03	8.41664e-01	3.82500e+02
1187	3.84652e+02	1.18700e+03	8.08072e-01	3.83500e+02
1189	3.85677e+02	1.18900e+03	7.74215e-01	3.84500e+02
1191	3.86677e+02	1.19100e+03	7.40671e-01	3.85500e+02
1193	3.87674e+02	1.19300e+03	7.07565e-01	3.86500e+02
1195	3.88680e+02	1.19500e+03	6.74749e-01	3.87500e+02
1197	3.89689e+02	1.19700e+03	6.42678e-01	3.88500e+02
1199	3.90691e+02	1.19900e+03	6.10827e-01	3.89500e+02
1201	3.91707e+02	1.20100e+03	5.79842e-01	3.90500e+02
1203	3.92711e+02	1.20300e+03	5.49149e-01	3.91500e+02
1205	3.93735e+02	1.20500e+03	5.19482e-01	3.92500e+02
1207	3.94735e+02	1.20700e+03	4.90132e-01	3.93500e+02
1209	3.95758e+02	1.20900e+03	4.62001e-01	3.94500e+02
1211	3.96797e+02	1.21100e+03	4.34269e-01	3.95500e+02
1213	3.97832e+02	1.21300e+03	4.07974e-01	3.96500e+02
1215	3.98870e+02	1.21500e+03	3.82079e-01	3.97500e+02
1217	3.99941e+02	1.21700e+03	3.57765e-01	3.98500e+02
1219	4.00963e+02	1.21900e+03	3.33865e-01	3.99500e+02
1221	4.01975e+02	1.22100e+03	3.11599e-01	4.00500e+02
1223	4.02969e+02	1.22300e+03	2.89701e-01	4.01500e+02
1225	4.03966e+02	1.22500e+03	2.69443e-01	4.02500e+02
1227	4.04968e+02	1.22700e+03	2.49622e-01	4.03500e+02
1229	4.05971e+02	1.22900e+03	2.31516e-01	4.04500e+02
1231	4.06965e+02	1.23100e+03	2.13793e-01	4.05500e+02
1233	4.07962e+02	1.23300e+03	1.97715e-01	4.06500e+02
1235	4.08971e+02	1.23500e+03	1.81978e-01	4.07500e+02
1237	4.09990e+02	1.23700e+03	1.67800e-01	4.08500e+02
1239	4.10991e+02	1.23900e+03	1.53970e-01	4.09500e+02
1241	4.12015e+02	1.24100e+03	1.41634e-01	4.10500e+02
1243	4.13026e+02	1.24300e+03	1.29585e-01	4.11500e+02
1245	4.14026e+02	1.24500e+03	1.18895e-01	4.12500e+02
1247	4.15031e+02	1.24700e+03	1.08472e-01	4.13500e+02
1249	4.16050e+02	1.24900e+03	9.92970e-02	4.14500e+02
1251	4.17054e+02	1.25100e+03	9.03736e-02	4.15500e+02
1253	4.18049e+02	1.25300e+03	8.26117e-02	4.16500e+02
1255	4.19051e+02	1.25500e+03	7.50708e-02	4.17500e+02
1257	4.20056e+02	1.25700e+03	6.85600e-02	4.18500e+02
1259	4.21053e+02	1.25900e+03	6.22185e-02	4.19500e+02
1261	4.22056e+02	1.26100e+03	5.67903e-02	4.20500e+02
1263	4.23061e+02	1.26300e+03	5.15632e-02	4.21500e+02
1265	4.24061e+02	1.26500e+03	4.71772e-02	4.22500e+02
1267	4.25045e+02	1.26700e+03	4.29063e-02	4.23500e+02
1269	4.26044e+02	1.26900e+03	3.93133e-02	4.24500e+02
1271	4.27044e+02	1.27100e+03	3.58307e-02	4.25500e+02
1273	4.28029e+02	1.27300e+03	3.29450e-02	4.26500e+02
1275	4.29014e+02	1.27500e+03	3.01884e-02	4.27500e+02
1277	4.30011e+02	1.27700e+03	2.79654e-02	4.28500e+02
1279	4.30996e+02	1.27900e+03	2.57915e-02	4.29500e+02
1281	4.31998e+02	1.28100e+03	2.40011e-02	4.30500e+02
1283	4.32999e+02	1.28300e+03	2.22445e-02	4.31500e+02
1285	4.34001e+02	1.28500e+03	2.07563e-02	4.32500e+02
1287	4.34994e+02	1.28700e+03	1.92919e-02	4.33500e+02
1289	4.35986e+02	1.28900e+03	1.80424e-02	4.34500e+02
1291	4.36984e+02	1.29100e+03	1.68651e-02	4.35500e+02
1293	4.37966e+02	1.29300e+03	1.59319e-02	4.36500e+02
1295	4.38966e+02	1.29500e+03	1.50593e-02	4.37500e+02
1297	4.39955e+02	1.29700e+03	1.44053e-02	4.38500e+02
1299	4.40932e+02	1.29900e+03	1.37543e-02	4.39500e+02
1301	4.41923e+02	1.30100e+03	1.32338e-02	4.40500e+02
1303	4.42898e+02	1.30300e+03	1.27250e-02	4.41500e+02
1305	4.43884e+02	1.30500e+03	1.22901e-02	4.42500e+02
1307	4.44859e+02	1.30700e+03	1.18578e-02	4.43500e+02
1309	4.45850e+02	1.30900e+03	1.14955e-02	4.44500e+02
1311	4.46829e+02	1.31100e+03	1.11771e-02	4.45500e+02
1313	4.47829e+02	1.31300e+03	1.09749e-02	4.46500e+02
1315	4.48817e+02	1.31500e+03	1.07909e-02	4.47500e+02
1317	4.49806e+02	1.31700e+03	1.06836e-02	4.48500e+02
1319	4.50787e+02	1.31900e+03	1.05344e-02	4.49500e+02
1321	4.51764e+02	1.32100e+03	1.03720e-02	4.50500e+02
1323	4.52737e+02	1.32300e+03	1.02156e-02	4.51500e+02
1325	4.53713e+02	1.32500e+03	1.00721e-02	4.52500e+02
1327	4.54692e+02	1.32700e+03	9.94961e-03	4.53500e+02
1329	4.55664e+02	1.32900e+03	9.86160e-03	4.54500e+02
1331	4.56637e+02	1.33100e+03	9.76733e-03	4.55500e+02
1333	4.57600e+02	1.33300e+03	9.68118e-03	4.56500e+02
1335	4.58583e+02	1.33500e+03	9.59783e-03	4.57500e+02
1337	4.59552e+02	1.33700e+03	9.54882e-03	4.58500e+02
1339	4.60536e+02	1.33900e+03	9.52770e-03	4.59500e+02
1341	4.61503e+02	1.34100e+03	9.55545e-03	4.60500e+02
1343	4.62481e+02	1.34300e+03	9.56755e-03	4.61500e+02
1345	4.63463e+02	1.34500e+03	9.57280e-03	4.62500e+02
1347	4.64433e+02	1.34700e+03	9.58331e-03	4.63500e+02
1349	4.65407e+02	1.34900e+03	9.58907e-03	4.64500e+02
1351	4.66371e+02	1.35100e+03	9.58613e-03	4.65500e+02
1353	4.67347e+02	1.35300e+03	9.56828e-03	4.66500e+02
1355	4.68320e+02	1.35500e+03	9.53077e-03	4.67500e+02
1357	4.69291e+02	1.35700e+03	9.46325e-03	4.68500e+02
1359	4.70284e+02	1.35900e+03	9.41690e-03	4.69500e+02
1361	4.71257e+02	1.36100e+03	9.40351e-03	4.70500e+02
1363	4.72232e+02	1.36300e+03	9.40813e-03	4.71500e+02
1365	4.73209e+02	1.36500e+03	9.44085e-03	4.72500e+02
1367	4.74184e+02	1.36700e+03	9.44611e-03	4.73500e+02
1369	4.75163e+02	1.36900e+03	9.42506e-03	4.74500e+02
1371	4.76146e+02	1.37100e+03	9.39675e-03	4.75500e+02
1373	4.77127e+02	1.37300e+03	9.35093e-03	4.76500e+02
1375	4.78096e+02	1.37500e+03	9.31976e-03	4.77500e+02
1377	4.79074e+02	1.37700e+03	9.29948e-03	4.78500e+02
1379	4.80053e+02	1.37900e+03	9.28253e-03	4.79500e+02
1381	4.81036e+02	1.38100e+03	9.27812e-03	4.80500e+02
1383	4.81996e+02	1.38300e+03	9.27455e-03	4.81500e+02
1385	4.82992e+02	1.38500e+03	9.26413e-03	4.82500e+02
1387	4.83970e+02	1.38700e+03	9.23409e-03	4.83500e+02
1389	4.84942e+02	1.38900e+03	9.17510e-03	4.84500e+02
1391	4.85927e+02	1.39100e+03	9.10975e-03	4.85500e+02
1393	4.86908e+02	1.39300e+03	9.03162e-03	4.86500e+02
1395	4.87884e+02	1.39500e+03	8.98178e-03	4.87500e+02
1397	4.88874e+02	1.39700e+03	8.95899e-03	4.88500e+02
1399	4.89841e+02	1.39900e+03	8.94219e-03	4.89500e+02
1401	4.90839e+02	1.40100e+03	8.93076e-03	4.90500e+02
1403	4.91815e+02	1.40300e+03	8.89081e-03	4.91500e+02
1405	4.92800e+02	1.40500e+03	8.82635e-03	4.92500e+02
1407	4.93790e+02	1.40700e+03	8.82547e-03	4.93500e+02
1409	4.94771e+02	1.40900e+03	8.95095e-03	4.94500e+02
1411	4.95738e+02	1.41100e+03	9.11258e-03	4.95500e+02
1413	4.96717e+02	1.41300e+03	9.31119e-03	4.96500e+02
1415	4.97671e+02	1.41500e+03	9.34081e-03	4.97500e+02
1417	4.98672e+02	1.41700e+03	9.05462e-03	4.98500e+02
1419	4.99651e+02	1.41900e+03	8.67290e-03	4.99500e+02
1421	5.00634e+02	1.42100e+03	8.16362e-03	5.00500e+02
1423	5.01607e+02	1.42300e+03	7.90491e-03	5.01500e+02
1425	5.02595e+02	1.42500e+03	7.91759e-03	5.02500e+02
1427	5.03582e+02	1.42700e+03	7.94446e-03	5.03500e+02
1429	5.04563e+02	1.42900e+03	8.10498e-03	5.04500e+02
1431	5.05547e+02	1.43100e+03	8.17780e-03	5.05500e+02
1433	5.06531e+02	1.43300e+03	8.20279e-03	5.06500e+02
1435	5.07495e+02	1.43500e+03	8.24245e-03	5.07500e+02
1437	5.08492e+02	1.43700e+03	8.25996e-03	5.08500e+02
1439	5.09473e+02	1.43900e+03	8.26875e-03	5.09500e+02
1441	5.10448e+02	1.44100e+03	8.25792e-03	5.10500e+02
1443	5.11442e+02	1.44300e+03	8.24602e-03	5.11500e+02
1445	5.12423e+02	1.44500e+03	8.19869e-03	5.12500e+02
1447	5.13425e+02	1.44700e+03	8.11395e-03	5.13500e+02
1449	5.14408e+02	1.44900e+03	7.97184e-03	5.14500e+02
1451	5.15397e+02	1.45100e+03	7.86142e-03	5.15500e+02
1453	5.16365e+02	1.45300e+03	7.82362e-03	5.16500e+02
1455	5.17361e+02	1.45500e+03	7.85914e-03	5.17500e+02
1457	5.18348e+02	1.45700e+03	8.03133e-03	5.18500e+02
1459	5.19329e+02	1.45900e+03	8.15756e-03	5.19500e+02
1461	5.20310e+02	1.46100e+03	8.24147e-03	5.20500e+02
1463	5.21300e+02	1.46300e+03	8.26397e-03	5.21500e+02
1465	5.22285e+02	1.46500e+03	8.18616e-03	5.22500e+02
1467	5.23266e+02	1.46700e+03	8.13215e-03	5.23500e+02
1469	5.24261e+02	1.46900e+03	8.06355e-03	5.24500e+02
1471	5.25245e+02	1.47100e+03	8.00297e-03	5.25500e+02
1473	5.26212e+02	1.47300e+03	7.95181e-03	5.26500e+02
1475	5.27209e+02	1.47500e+03	7.90555e-03	5.27500e+02
1477	5.28191e+02	1.47700e+03	7.87348e-03	5.28500e+02
1479	5.29181e+02	1.47900e+03	7.85355e-03	5.29500e+02
1481	5.30174e+02	1.48100e+03	7.86349e-03	5.30500e+02
1483	5.31173e+02	1.48300e+03	7.87568e-03	5.31500e+02
1485	5.32152e+02	1.48500e+03	7.88517e-03	5.32500e+02
1487	5.33131e+02	1.48700e+03	7.86313e-03	5.33500e+02
1489	5.34123e+02	1.48900e+03	7.81244e-03	5.34500e+02
1491	5.35104e+02	1.49100e+03	7.77797e-03	5.35500e+02
1493	5.36083e+02	1.49300e+03	7.74743e-03	5.36500e+02
1495	5.37085e+02	1.49500e+03	7.72773e-03	5.37500e+02
1497	5.38066e+02	1.49700e+03	7.71815e-03	5.38500e+02
1499	5.39063e+02	1.49900e+03	7.69047e-03	5.39500e+02
1501	5.40049e+02	1.50100e+03	7.64520e-03	5.40500e+02
1503	5.41039e+02	1.50300e+03	7.59258e-03	5.41500e+02
1505	5.42031e+02	1.50500e+03	7.53916e-03	5.42500e+02
1507	5.43023e+02	1.50700e+03	7.50972e-03	5.43500e+02
1509	5.44004e+02	1.50900e+03	7.51811e-03	5.44500e+02
1511	5.44990e+02	1.51100e+03	7.52822e-03	5.45500e+02
1513	5.45964e+02	1.51300e+03	7.55295e-03	5.46500e+02
1515	5.46955e+02	1.51500e+03	7.56105e-03	5.47500e+02
1517	5.47942e+02	1.51700e+03	7.55868e-03	5.48500e+02
1519	5.48930e+02	1.51900e+03	7.55977e-03	5.49500e+02
1521	5.49913e+02	1.52100e+03	7.54585e-03	5.50500e+02
1523	5.50901e+02	1.52300e+03	7.51811e-03	5.51500e+02
1525	5.51889e+02	1.52500e+03	7.46997e-03	5.52500e+02
1527	5.52885e+02	1.52700e+03	7.42032e-03	5.53500e+02
1529	5.53867e+02	1.52900e+03	7.33377e-03	5.54500e+02
1531	5.54850e+02	1.53100e+03	7.23708e-03	5.55500e+02
1533	5.55838e+02	1.53300e+03	7.13439e-03	5.56500e+02
1535	5.56813e+02	1.53500e+03	7.09420e-03	5.57500e+02
1537	5.57804e+02	1.53700e+03	7.17569e-03	5.58500e+02
1539	5.58786e+02	1.53900e+03	7.28502e-03	5.59500e+02
1541	5.59779e+02	1.54100e+03	7.45933e-03	5.60500e+02
1543	5.60773e+02	1.54300e+03	7.56179e-03	5.61500e+02
1545	5.61757e+02	1.54500e+03	7.56136e-03	5.62500e+02
1547	5.62745e+02	1.54700e+03	7.52248e-03	5.63500e+02
1549	5.63725e+02	1.54900e+03	7.39602e-03	5.64500e+02
1551	5.64712e+02	1.55100e+03	7.30820e-03	5.65500e+02
1553	5.65697e+02	1.55300e+03	7.25231e-03	5.66500e+02
1555	5.66678e+02	1.55500e+03	7.23071e-03	5.67500e+02
1557	5.67663e+02	1.55700e+03	7.26032e-03	5.68500e+02
1559	5.68661e+02	1.55900e+03	7.26473e-03	5.69500e+02
1561	5.69640e+02	1.56100e+03	7.24901e-03	5.70500e+02
1563	5.70635e+02	1.56300e+03	7.22128e-03	5.71500e+02
1565	5.71627e+02	1.56500e+03	7.18806e-03	5.72500e+02
1567	5.72613e+02	1.56700e+03	7.18554e-03	5.73500e+02
1569	5.73584e+02	1.56900e+03	7.22081e-03	5.74500e+02
1571	5.74586e+02	1.57100e+03	7.24976e-03	5.75500e+02
1573	5.75561e+02	1.57300e+03	7.27783e-03	5.76500e+02
1575	5.76563e+02	1.57500e+03	7.27204e-03	5.77500e+02
1577	5.77540e+02	1.57700e+03	7.21284e-03	5.78500e+02
1579	5.78540e+02	1.57900e+03	7.15530e-03	5.79500e+02
1581	5.79526e+02	1.58100e+03	7.10061e-03	5.80500e+02
1583	5.80524e+02	1.58300e+03	7.09415e-03	5.81500e+02
1585	5.81518e+02	1.58500e+03	7.16183e-03	5.82500e+02
1587	5.82503e+02	1.58700e+03	7.22374e-03	5.83500e+02
1589	5.83500e+02	1.58900e+03	7.28840e-03	5.84500e+02
1591	5.84483e+02	1.59100e+03	7.30036e-03	5.85500e+02
1593	5.85479e+02	1.59300e+03	7.24649e-03	5.86500e+02
1595	5.86487e+02	1.59500e+03	7.20969e-03	5.87500e+02
1597	5.87472e+02	1.59700e+03	7.16939e-03	5.88500e+02
1599	5.88478e+02	1.59900e+03	7.15420e-03	5.89500e+02
1601	5.89468e+02	1.60100e+03	7.16415e-03	5.90500e+02
1603	5.90465e+02	1.60300e+03	7.15667e-03	5.91500e+02
1605	5.91457e+02	1.60500e+03	7.13656e-03	5.92500e+02
1607	5.92466e+02	1.60700e+03	7.11343e-03	5.93500e+02
1609	5.93460e+02	1.60900e+03	7.08821e-03	5.94500e+02
1611	5.94454e+02	1.61100e+03	7.07909e-03	5.95500e+02
1613	5.95454e+02	1.61300e+03	7.08871e-03	5.96500e+02
1615	5.96460e+02	1.61500e+03	7.09720e-03	5.97500e+02
1617	5.97456e+02	1.61700e+03	7.10440e-03	5.98500e+02
1619	5.98463e+02	1.61900e+03	7.10237e-03	5.99500e+02
1621	5.99446e+02	1.62100e+03	7.09563e-03	6.00500e+02
1623	6.00451e+02	1.62300e+03	7.09794e-03	6.01500e+02
1625	6.01444e+02	1.62500e+03	7.09764e-03	6.02500e+02
1627	6.02440e+02	1.62700e+03	7.08314e-03	6.03500e+02
1629	6.03447e+02	1.62900e+03	7.05340e-03	6.04500e+02
1631	6.04464e+02	1.63100e+03	7.03251e-03	6.05500e+02
1633	6.05476e+02	1.63300e+03	7.02641e-03	6.06500e+02
1635	6.06497e+02	1.63500e+03	7.04063e-03	6.07500e+02
1637	6.07500e+02	1.63700e+03	7.08533e-03	6.08500e+02
1639	6.08484e+02	1.63900e+03	7.12431e-03	6.09500e+02
1641	6.09478e+02	1.64100e+03	7.16551e-03	6.10500e+02
1643	6.10465e+02	1.64300e+03	7.19068e-03	6.11500e+02
1645	6.11482e+02	1.64500e+03	7.18849e-03	6.12500e+02
1647	6.12455e+02	1.64700e+03	7.18400e-03	6.13500e+02
1649	6.13455e+02	1.64900e+03	7.17084e-03	6.14500e+02
1651	6.14445e+02	1.65100e+03	7.17423e-03	6.15500e+02
1653	6.15434e+02	1.65300e+03	7.19776e-03	6.16500e+02
1655	6.16434e+02	1.65500e+03	7.21858e-03	6.17500e+02
1657	6.17421e+02	1.65700e+03	7.23688e-03	6.18500e+02
1659	6.18426e+02	1.65900e+03	7.24498e-03	6.19500e+02
1661	6.19440e+02	1.66100e+03	7.23347e-03	6.20500e+02
1663	6.20452e+02	1.66300e+03	7.21734e-03	6.21500e+02
1665	6.21459e+02	1.66500e+03	7.18591e-03	6.22500e+02
1667	6.22461e+02	1.66700e+03	7.15737e-03	6.23500e+02
1669	6.23456e+02	1.66900e+03	7.13516e-03	6.24500e+02
1671	6.24443e+02	1.67100e+03	7.13090e-03	6.25500e+02
1673	6.25436e+02	1.67300e+03	7.15020e-03	6.26500e+02
1675	6.26430e+02	1.67500e+03	7.17107e-03	6.27500e+02
1677	6.27420e+02	1.67700e+03	7.18908e-03	6.28500e+02
1679	6.28429e+02	1.67900e+03	7.18283e-03	6.29500e+02
1681	6.29427e+02	1.68100e+03	7.13541e-03	6.30500e+02
1683	6.30446e+02	1.68300e+03	7.08349e-03	6.31500e+02
1685	6.31457e+02	1.68500e+03	7.01860e-03	6.32500e+02
1687	6.32452e+02	1.68700e+03	6.97165e-03	6.33500e+02
1689	6.33458e+02	1.68900e+03	6.94917e-03	6.34500e+02
1691	6.34474e+02	1.69100e+03	6.93892e-03	6.35500e+02
1693	6.35448e+02	1.69300e+03	6.96048e-03	6.36500e+02
1695	6.36442e+02	1.69500e+03	6.98702e-03	6.37500e+02
1697	6.37411e+02	1.69700e+03	7.03612e-03	6.38500e+02
1699	6.38378e+02	1.69900e+03	7.08708e-03	6.39500e+02
1701	6.39352e+02	1.70100e+03	7.14295e-03	6.40500e+02
1703	6.40331e+02	1.70300e+03	7.18613e-03	6.41500e+02
1705	6.41313e+02	1.70500e+03	7.18550e-03	6.42500e+02
1707	6.42326e+02	1.70700e+03	7.15013e-03	6.43500e+02
1709	6.43316e+02	1.70900e+03	7.05278e-03	6.44500e+02
1711	6.44315e+02	1.71100e+03	6.98315e-03	6.45500e+02
1713	6.45287e+02	1.71300e+03	6.93617e-03	6.46500e+02
1715	6.46274e+02	1.71500e+03	6.92351e-03	6.47500e+02
1717	6.47250e+02	1.71700e+03	6.95167e-03	6.48500e+02
1719	6.48238e+02	1.71900e+03	6.93623e-03	6.49500e+02
1721	6.49224e+02	1.72100e+03	6.86437e-03	6.50500e+02
1723	6.50211e+02	1.72300e+03	6.78285e-03	6.51500e+02
1725	6.51197e+02	1.72500e+03	6.72908e-03	6.52500e+02
1727	6.52199e+02	1.72700e+03	6.75460e-03	6.53500e+02
1729	6.53197e+02	1.72900e+03	6.89077e-03	6.54500e+02
1731	6.54196e+02	1.73100e+03	6.99865e-03	6.55500e+02
1733	6.55186e+02	1.73300e+03	7.10338e-03	6.56500e+02
1735	6.56163e+02	1.73500e+03	7.17553e-03	6.57500e+02
1737	6.57158e+02	1.73700e+03	7.16509e-03	6.58500e+02
1739	6.58147e+02	1.73900e+03	7.12523e-03	6.59500e+02
1741	6.59122e+02	1.74100e+03	7.01011e-03	6.60500e+02
1743	6.60111e+02	1.74300e+03	6.92140e-03	6.61500e+02
1745	6.61086e+02	1.74500e+03	6.84228e-03	6.62500e+02
1747	6.62067e+02	1.74700e+03	6.77788e-03	6.63500e+02
1749	6.63052e+02	1.74900e+03	6.73597e-03	6.64500e+02
1751	6.64036e+02	1.75100e+03	6.68468e-03	6.65500e+02
1753	6.65022e+02	1.75300e+03	6.66518e-03	6.66500e+02
1755	6.66018e+02	1.75500e+03	6.67776e-03	6.67500e+02
1757	6.66984e+02	1.75700e+03	6.75205e-03	6.68500e+02
1759	6.67976e+02	1.75900e+03	6.81023e-03	6.69500e+02
1761	6.68944e+02	1.76100e+03	6.84784e-03	6.70500e+02
1763	6.69940e+02	1.76300e+03	6.85132e-03	6.71500e+02
1765	6.70927e+02	1.76500e+03	6.80119e-03	6.72500e+02
1767	6.71917e+02	1.76700e+03	6.76218e-03	6.73500e+02
1769	6.72892e+02	1.76900e+03	6.74123e-03	6.74500e+02
1771	6.73873e+02	1.77100e+03	6.75672e-03	6.75500e+02
1773	6.74853e+02	1.77300e+03	6.82277e-03	6.76500e+02
1775	6.75826e+02	1.77500e+03	6.87587e-03	6.77500e+02
1777	6.76806e+02	1.77700e+03	6.92794e-03	6.78500e+02
1779	6.77790e+02	1.77900e+03	6.95329e-03	6.79500e+02
1781	6.78779e+02	1.78100e+03	6.93351e-03	6.80500e+02
1783	6.79771e+02	1.78300e+03	6.89684e-03	6.81500e+02
1785	6.80775e+02	1.78500e+03	6.80287e-03	6.82500e+02
1787	6.81758e+02	1.78700e+03	6.69847e-03	6.83500e+02
1789	6.82739e+02	1.78900e+03	6.57226e-03	6.84500e+02
1791	6.83732e+02	1.79100e+03	6.49901e-03	6.85500e+02
1793	6.84718e+02	1.79300e+03	6.55293e-03	6.86500e+02
1795	6.85392e+02	1.79500e+03	6.65876e-03	6.87500e+02
1797	6.85862e+02	1.79700e+03	6.86619e-03	6.88500e+02
1799	6.86602e+02	1.79900e+03	6.99030e-03	6.89500e+02
1801	6.87312e+02	1.80100e+03	7.01060e-03	6.90500e+02
1803	6.87947e+02	1.80300e+03	6.98391e-03	6.91500e+02
1805	6.88557e+02	1.80500e+03	6.87802e-03	6.92500e+02
1807	6.89112e+02	1.80700e+03	6.83584e-03	6.93500e+02
1809	6.89643e+02	1.80900e+03	6.85083e-03	6.94500e+02
1811	6.90144e+02	1.81100e+03	6.87157e-03	6.95500e+02
1813	6.90629e+02	1.81300e+03	6.90948e-03	6.96500e+02
1815	6.91062e+02	1.81500e+03	6.90670e-03	6.97500e+02
1817	6.91495e+02	1.81700e+03	6.85623e-03	6.98500e+02
1819	6.91900e+02	1.81900e+03	6.81870e-03	6.99500e+02
1820	6.92090e+02	1.82000e+03	6.79733e-03	7.00000e+02