File: Experiments/TUBS/tga_nonisotherm/tga_dynamic_n2low20_dyn30_piece_3mg_r3.txt
Index	Ts	t	Weight	Tr
[#]	[°C]	[s]	[mg]	[°C]
680	1.30147e+02	6.80000e+02	3.00541	130.0
682	1.31166e+02	6.82000e+02	3.0054	131.0
684	1.32182e+02	6.84000e+02	3.00538	132.0
686	1.33216e+02	6.86000e+02	3.00534	133.0
688	1.34238e+02	6.88000e+02	3.0053	134.0
690	1.35247e+02	6.90000e+02	3.00528	135.0
692	1.36259e+02	6.92000e+02	3.00528	136.0
694	1.37279e+02	6.94000e+02	3.00526	137.0
696	1.38291e+02	6.96000e+02	3.0052	138.0
698	1.39314e+02	6.98000e+02	3.00514	139.0
700	1.40336e+02	7.00000e+02	3.00508	140.0
702	1.41370e+02	7.02000e+02	3.005	141.0
704	1.42373e+02	7.04000e+02	3.0049	142.0
706	1.43385e+02	7.06000e+02	3.0048	143.0
708	1.44404e+02	7.08000e+02	3.00469	144.0
710	1.45419e+02	7.10000e+02	3.00461	145.0
712	1.46434e+02	7.12000e+02	3.00459	146.0
714	1.47452e+02	7.14000e+02	3.00462	147.0
716	1.48482e+02	7.16000e+02	3.0047	148.0
718	1.49489e+02	7.18000e+02	3.00475	149.0
720	1.50504e+02	7.20000e+02	3.00476	150.0
722	1.51522e+02	7.22000e+02	3.00473	151.0
724	1.52549e+02	7.24000e+02	3.00464	152.0
726	1.53566e+02	7.26000e+02	3.00453	153.0
728	1.54572e+02	7.28000e+02	3.00437	154.0
730	1.55594e+02	7.30000e+02	3.00424	155.0
732	1.56614e+02	7.32000e+02	3.00414	156.0
734	1.57630e+02	7.34000e+02	3.00408	157.0
736	1.58656e+02	7.36000e+02	3.00405	158.0
738	1.59667e+02	7.38000e+02	3.00402	159.0
740	1.60685e+02	7.40000e+02	3.00396	160.0
742	1.61707e+02	7.42000e+02	3.0039	161.0
744	1.62726e+02	7.44000e+02	3.0038	162.0
746	1.63742e+02	7.46000e+02	3.0037	163.0
748	1.64754e+02	7.48000e+02	3.0036	164.0
750	1.65777e+02	7.50000e+02	3.00353	165.0
752	1.66802e+02	7.52000e+02	3.00349	166.0
754	1.67816e+02	7.54000e+02	3.00344	167.0
756	1.68829e+02	7.56000e+02	3.00337	168.0
758	1.69840e+02	7.58000e+02	3.00328	169.0
760	1.70862e+02	7.60000e+02	3.00316	170.0
762	1.71892e+02	7.62000e+02	3.00303	171.0
764	1.72893e+02	7.64000e+02	3.00288	172.0
766	1.73930e+02	7.66000e+02	3.00276	173.0
768	1.74956e+02	7.68000e+02	3.00267	174.0
770	1.75961e+02	7.70000e+02	3.00257	175.0
772	1.76977e+02	7.72000e+02	3.00247	176.0
774	1.78001e+02	7.74000e+02	3.00237	177.0
776	1.79025e+02	7.76000e+02	3.00225	178.0
778	1.80048e+02	7.78000e+02	3.00212	179.0
780	1.81067e+02	7.80000e+02	3.00197	180.0
782	1.82083e+02	7.82000e+02	3.00183	181.0
784	1.83114e+02	7.84000e+02	3.00171	182.0
786	1.84133e+02	7.86000e+02	3.00159	183.0
788	1.85160e+02	7.88000e+02	3.00148	184.0
790	1.86180e+02	7.90000e+02	3.00136	185.0
792	1.87198e+02	7.92000e+02	3.00122	186.0
794	1.88213e+02	7.94000e+02	3.00106	187.0
796	1.89251e+02	7.96000e+02	3.00086	188.0
798	1.90269e+02	7.98000e+02	3.00064	189.0
800	1.91284e+02	8.00000e+02	3.00038	190.0
802	1.92324e+02	8.02000e+02	3.00011	191.0
804	1.93327e+02	8.04000e+02	2.99982	192.0
806	1.94359e+02	8.06000e+02	2.99951	193.0
808	1.95389e+02	8.08000e+02	2.99917	194.0
810	1.96417e+02	8.10000e+02	2.99882	195.0
812	1.97436e+02	8.12000e+02	2.99842	196.0
814	1.98460e+02	8.14000e+02	2.99798	197.0
816	1.99480e+02	8.16000e+02	2.99747	198.0
818	2.00511e+02	8.18000e+02	2.99696	199.0
820	2.01540e+02	8.20000e+02	2.99642	200.0
822	2.02568e+02	8.22000e+02	2.99587	201.0
824	2.03586e+02	8.24000e+02	2.99528	202.0
826	2.04629e+02	8.26000e+02	2.99467	203.0
828	2.05640e+02	8.28000e+02	2.99401	204.0
830	2.06670e+02	8.30000e+02	2.99333	205.0
832	2.07700e+02	8.32000e+02	2.99261	206.0
834	2.08723e+02	8.34000e+02	2.9919	207.0
836	2.09756e+02	8.36000e+02	2.99117	208.0
838	2.10794e+02	8.38000e+02	2.99041	209.0
840	2.11812e+02	8.40000e+02	2.98961	210.0
842	2.12831e+02	8.42000e+02	2.9888	211.0
844	2.13862e+02	8.44000e+02	2.98798	212.0
846	2.14889e+02	8.46000e+02	2.98714	213.0
848	2.15906e+02	8.48000e+02	2.98629	214.0
850	2.16918e+02	8.50000e+02	2.98545	215.0
852	2.17929e+02	8.52000e+02	2.98461	216.0
854	2.18949e+02	8.54000e+02	2.98377	217.0
856	2.19970e+02	8.56000e+02	2.98292	218.0
858	2.20993e+02	8.58000e+02	2.98208	219.0
860	2.22007e+02	8.60000e+02	2.98127	220.0
862	2.23038e+02	8.62000e+02	2.98046	221.0
864	2.24053e+02	8.64000e+02	2.97966	222.0
866	2.25075e+02	8.66000e+02	2.97885	223.0
868	2.26100e+02	8.68000e+02	2.97803	224.0
870	2.27132e+02	8.70000e+02	2.9772	225.0
872	2.28150e+02	8.72000e+02	2.97636	226.0
874	2.29183e+02	8.74000e+02	2.97551	227.0
876	2.30196e+02	8.76000e+02	2.97468	228.0
878	2.31215e+02	8.78000e+02	2.97384	229.0
880	2.32239e+02	8.80000e+02	2.973	230.0
882	2.33258e+02	8.82000e+02	2.97213	231.0
884	2.34286e+02	8.84000e+02	2.97124	232.0
886	2.35309e+02	8.86000e+02	2.97036	233.0
888	2.36324e+02	8.88000e+02	2.96947	234.0
890	2.37349e+02	8.90000e+02	2.9686	235.0
892	2.38371e+02	8.92000e+02	2.96773	236.0
894	2.39393e+02	8.94000e+02	2.96685	237.0
896	2.40392e+02	8.96000e+02	2.96595	238.0
898	2.41416e+02	8.98000e+02	2.96503	239.0
900	2.42435e+02	9.00000e+02	2.96408	240.0
902	2.43449e+02	9.02000e+02	2.96312	241.0
904	2.44447e+02	9.04000e+02	2.96215	242.0
906	2.45476e+02	9.06000e+02	2.96117	243.0
908	2.46503e+02	9.08000e+02	2.96017	244.0
910	2.47518e+02	9.10000e+02	2.95918	245.0
912	2.48532e+02	9.12000e+02	2.95819	246.0
914	2.49568e+02	9.14000e+02	2.9572	247.0
916	2.50579e+02	9.16000e+02	2.95621	248.0
918	2.51612e+02	9.18000e+02	2.95522	249.0
920	2.52628e+02	9.20000e+02	2.95423	250.0
922	2.53650e+02	9.22000e+02	2.95321	251.0
924	2.54668e+02	9.24000e+02	2.95215	252.0
926	2.55699e+02	9.26000e+02	2.9511	253.0
928	2.56723e+02	9.28000e+02	2.95006	254.0
930	2.57762e+02	9.30000e+02	2.94902	255.0
932	2.58787e+02	9.32000e+02	2.94801	256.0
934	2.59793e+02	9.34000e+02	2.947	257.0
936	2.60824e+02	9.36000e+02	2.94597	258.0
938	2.61846e+02	9.38000e+02	2.9449	259.0
940	2.62845e+02	9.40000e+02	2.94379	260.0
942	2.63856e+02	9.42000e+02	2.94269	261.0
944	2.64885e+02	9.44000e+02	2.94159	262.0
946	2.65893e+02	9.46000e+02	2.94049	263.0
948	2.66908e+02	9.48000e+02	2.93938	264.0
950	2.67922e+02	9.50000e+02	2.93828	265.0
952	2.68959e+02	9.52000e+02	2.93721	266.0
954	2.69968e+02	9.54000e+02	2.93611	267.0
956	2.70998e+02	9.56000e+02	2.93498	268.0
958	2.72018e+02	9.58000e+02	2.93382	269.0
960	2.73040e+02	9.60000e+02	2.93264	270.0
962	2.74069e+02	9.62000e+02	2.93144	271.0
964	2.75085e+02	9.64000e+02	2.93024	272.0
966	2.76089e+02	9.66000e+02	2.92904	273.0
968	2.77102e+02	9.68000e+02	2.92784	274.0
970	2.78122e+02	9.70000e+02	2.92662	275.0
972	2.79128e+02	9.72000e+02	2.92536	276.0
974	2.80185e+02	9.74000e+02	2.92409	277.0
976	2.81255e+02	9.76000e+02	2.9228	278.0
978	2.82237e+02	9.78000e+02	2.92152	279.0
980	2.83264e+02	9.80000e+02	2.92025	280.0
982	2.84278e+02	9.82000e+02	2.91897	281.0
984	2.85411e+02	9.84000e+02	2.91767	282.0
986	2.86450e+02	9.86000e+02	2.91634	283.0
988	2.87434e+02	9.88000e+02	2.91492	284.0
990	2.88429e+02	9.90000e+02	2.91344	285.0
992	2.89439e+02	9.92000e+02	2.91191	286.0
994	2.90461e+02	9.94000e+02	2.91038	287.0
996	2.91469e+02	9.96000e+02	2.90885	288.0
998	2.92477e+02	9.98000e+02	2.90726	289.0
1000	2.93493e+02	1.00000e+03	2.90559	290.0
1002	2.94519e+02	1.00200e+03	2.9039	291.0
1004	2.95519e+02	1.00400e+03	2.90215	292.0
1006	2.96474e+02	1.00600e+03	2.90035	293.0
1008	2.97481e+02	1.00800e+03	2.89845	294.0
1010	2.98481e+02	1.01000e+03	2.89649	295.0
1012	2.99501e+02	1.01200e+03	2.89443	296.0
1014	3.00507e+02	1.01400e+03	2.89233	297.0
1016	3.01477e+02	1.01600e+03	2.89015	298.0
1018	3.02482e+02	1.01800e+03	2.88792	299.0
1020	3.03468e+02	1.02000e+03	2.8856	300.0
1022	3.04474e+02	1.02200e+03	2.88322	301.0
1024	3.05483e+02	1.02400e+03	2.88076	302.0
1026	3.06503e+02	1.02600e+03	2.87826	303.0
1028	3.07507e+02	1.02800e+03	2.87568	304.0
1030	3.08493e+02	1.03000e+03	2.87301	305.0
1032	3.09488e+02	1.03200e+03	2.8702	306.0
1034	3.10482e+02	1.03400e+03	2.86731	307.0
1036	3.11469e+02	1.03600e+03	2.86432	308.0
1038	3.12467e+02	1.03800e+03	2.86124	309.0
1040	3.13466e+02	1.04000e+03	2.85803	310.0
1042	3.14446e+02	1.04200e+03	2.85477	311.0
1044	3.15422e+02	1.04400e+03	2.85141	312.0
1046	3.16395e+02	1.04600e+03	2.84801	313.0
1048	3.17389e+02	1.04800e+03	2.84454	314.0
1050	3.18364e+02	1.05000e+03	2.84102	315.0
1052	3.19338e+02	1.05200e+03	2.83746	316.0
1054	3.20326e+02	1.05400e+03	2.83385	317.0
1056	3.21298e+02	1.05600e+03	2.83019	318.0
1058	3.22272e+02	1.05800e+03	2.82648	319.0
1060	3.23228e+02	1.06000e+03	2.8227	320.0
1062	3.24198e+02	1.06200e+03	2.8189	321.0
1064	3.25158e+02	1.06400e+03	2.81505	322.0
1066	3.26121e+02	1.06600e+03	2.81115	323.0
1068	3.27089e+02	1.06800e+03	2.80716	324.0
1070	3.28030e+02	1.07000e+03	2.80311	325.0
1072	3.28977e+02	1.07200e+03	2.79892	326.0
1074	3.29882e+02	1.07400e+03	2.79464	327.0
1076	3.30833e+02	1.07600e+03	2.79019	328.0
1078	3.31800e+02	1.07800e+03	2.78566	329.0
1080	3.32785e+02	1.08000e+03	2.78098	330.0
1082	3.33772e+02	1.08200e+03	2.77624	331.0
1084	3.34764e+02	1.08400e+03	2.77138	332.0
1086	3.35766e+02	1.08600e+03	2.76646	333.0
1088	3.36777e+02	1.08800e+03	2.76138	334.0
1090	3.37775e+02	1.09000e+03	2.75618	335.0
1092	3.38764e+02	1.09200e+03	2.75079	336.0
1094	3.39772e+02	1.09400e+03	2.74528	337.0
1096	3.40768e+02	1.09600e+03	2.73953	338.0
1098	3.41751e+02	1.09800e+03	2.73356	339.0
1100	3.42755e+02	1.10000e+03	2.72722	340.0
1102	3.43748e+02	1.10200e+03	2.72061	341.0
1104	3.44753e+02	1.10400e+03	2.71353	342.0
1106	3.45733e+02	1.10600e+03	2.70611	343.0
1108	3.46730e+02	1.10800e+03	2.69812	344.0
1110	3.47713e+02	1.11000e+03	2.68974	345.0
1112	3.48717e+02	1.11200e+03	2.68064	346.0
1114	3.49716e+02	1.11400e+03	2.671	347.0
1116	3.50708e+02	1.11600e+03	2.66045	348.0
1118	3.51707e+02	1.11800e+03	2.64938	349.0
1120	3.52688e+02	1.12000e+03	2.63738	350.0
1122	3.53673e+02	1.12200e+03	2.62471	351.0
1124	3.54674e+02	1.12400e+03	2.61086	352.0
1126	3.55646e+02	1.12600e+03	2.59621	353.0
1128	3.56624e+02	1.12800e+03	2.58016	354.0
1130	3.57603e+02	1.13000e+03	2.56318	355.0
1132	3.58583e+02	1.13200e+03	2.54458	356.0
1134	3.59550e+02	1.13400e+03	2.525	357.0
1136	3.60542e+02	1.13600e+03	2.50382	358.0
1138	3.61518e+02	1.13800e+03	2.48181	359.0
1140	3.62502e+02	1.14000e+03	2.45837	360.0
1142	3.63488e+02	1.14200e+03	2.43405	361.0
1144	3.64485e+02	1.14400e+03	2.40819	362.0
1146	3.65473e+02	1.14600e+03	2.38129	363.0
1148	3.66453e+02	1.14800e+03	2.35263	364.0
1150	3.67433e+02	1.15000e+03	2.32289	365.0
1152	3.68429e+02	1.15200e+03	2.29134	366.0
1154	3.69414e+02	1.15400e+03	2.2587	367.0
1156	3.70391e+02	1.15600e+03	2.22423	368.0
1158	3.71401e+02	1.15800e+03	2.18871	369.0
1160	3.72443e+02	1.16000e+03	2.15143	370.0
1162	3.73475e+02	1.16200e+03	2.11308	371.0
1164	3.74675e+02	1.16400e+03	2.07287	372.0
1166	3.75736e+02	1.16600e+03	2.03156	373.0
1168	3.76677e+02	1.16800e+03	1.9884	374.0
1170	3.77642e+02	1.17000e+03	1.94423	375.0
1172	3.78625e+02	1.17200e+03	1.89837	376.0
1174	3.79591e+02	1.17400e+03	1.8516	377.0
1176	3.80578e+02	1.17600e+03	1.80339	378.0
1178	3.81577e+02	1.17800e+03	1.75454	379.0
1180	3.82555e+02	1.18000e+03	1.7046	380.0
1182	3.83522e+02	1.18200e+03	1.65416	381.0
1184	3.84499e+02	1.18400e+03	1.60296	382.0
1186	3.85486e+02	1.18600e+03	1.55148	383.0
1188	3.86463e+02	1.18800e+03	1.49954	384.0
1190	3.87434e+02	1.19000e+03	1.44732	385.0
1192	3.88421e+02	1.19200e+03	1.39465	386.0
1194	3.89409e+02	1.19400e+03	1.34175	387.0
1196	3.90408e+02	1.19600e+03	1.28846	388.0
1198	3.91406e+02	1.19800e+03	1.23499	389.0
1200	3.92397e+02	1.20000e+03	1.18137	390.0
1202	3.93389e+02	1.20200e+03	1.12794	391.0
1204	3.94402e+02	1.20400e+03	1.07495	392.0
1206	3.95397e+02	1.20600e+03	1.02233	393.0
1208	3.96436e+02	1.20800e+03	0.970297	394.0
1210	3.97470e+02	1.21000e+03	0.918533	395.0
1212	3.98495e+02	1.21200e+03	0.86723	396.0
1214	3.99529e+02	1.21400e+03	0.816229	397.0
1216	4.00591e+02	1.21600e+03	0.765824	398.0
1218	4.01626e+02	1.21800e+03	0.716006	399.0
1220	4.02648e+02	1.22000e+03	0.667319	400.0
1222	4.03684e+02	1.22200e+03	0.619632	401.0
1224	4.04725e+02	1.22400e+03	0.573788	402.0
1226	4.05750e+02	1.22600e+03	0.529408	403.0
1228	4.06803e+02	1.22800e+03	0.487607	404.0
1230	4.07847e+02	1.23000e+03	0.447543	405.0
1232	4.08849e+02	1.23200e+03	0.410404	406.0
1234	4.09888e+02	1.23400e+03	0.375034	407.0
1236	4.10908e+02	1.23600e+03	0.342652	408.0
1238	4.11955e+02	1.23800e+03	0.312036	409.0
1240	4.12990e+02	1.24000e+03	0.284349	410.0
1242	4.14055e+02	1.24200e+03	0.258279	411.0
1244	4.15106e+02	1.24400e+03	0.234897	412.0
1246	4.16144e+02	1.24600e+03	0.212977	413.0
1248	4.17164e+02	1.24800e+03	0.193466	414.0
1250	4.18206e+02	1.25000e+03	0.175228	415.0
1252	4.19235e+02	1.25200e+03	0.159103	416.0
1254	4.20268e+02	1.25400e+03	0.144105	417.0
1256	4.21269e+02	1.25600e+03	0.130958	418.0
1258	4.22296e+02	1.25800e+03	0.118765	419.0
1260	4.23309e+02	1.26000e+03	0.108152	420.0
1262	4.24323e+02	1.26200e+03	0.0983578	421.0
1264	4.25353e+02	1.26400e+03	0.0898837	422.0
1266	4.26342e+02	1.26600e+03	0.0820472	423.0
1268	4.27356e+02	1.26800e+03	0.0752674	424.0
1270	4.28374e+02	1.27000e+03	0.0690409	425.0
1272	4.29384e+02	1.27200e+03	0.0637093	426.0
1274	4.30401e+02	1.27400e+03	0.0588141	427.0
1276	4.31391e+02	1.27600e+03	0.0546284	428.0
1278	4.32395e+02	1.27800e+03	0.0507786	429.0
1280	4.33397e+02	1.28000e+03	0.0474509	430.0
1282	4.34372e+02	1.28200e+03	0.0443384	431.0
1284	4.35371e+02	1.28400e+03	0.0415871	432.0
1286	4.36358e+02	1.28600e+03	0.0390328	433.0
1288	4.37354e+02	1.28800e+03	0.0368008	434.0
1290	4.38357e+02	1.29000e+03	0.0347234	435.0
1292	4.39352e+02	1.29200e+03	0.0329047	436.0
1294	4.40355e+02	1.29400e+03	0.0312097	437.0
1296	4.41364e+02	1.29600e+03	0.0297056	438.0
1298	4.42354e+02	1.29800e+03	0.0282766	439.0
1300	4.43326e+02	1.30000e+03	0.0269747	440.0
1302	4.44296e+02	1.30200e+03	0.0257345	441.0
1304	4.45273e+02	1.30400e+03	0.0245924	442.0
1306	4.46260e+02	1.30600e+03	0.0234931	443.0
1308	4.47260e+02	1.30800e+03	0.0224741	444.0
1310	4.48248e+02	1.31000e+03	0.021532	445.0
1312	4.49224e+02	1.31200e+03	0.0207387	446.0
1314	4.50204e+02	1.31400e+03	0.020055	447.0
1316	4.51200e+02	1.31600e+03	0.0195282	448.0
1318	4.52197e+02	1.31800e+03	0.0190507	449.0
1320	4.53199e+02	1.32000e+03	0.0186529	450.0
1322	4.54205e+02	1.32200e+03	0.0182817	451.0
1324	4.55201e+02	1.32400e+03	0.0179494	452.0
1326	4.56180e+02	1.32600e+03	0.0176356	453.0
1328	4.57165e+02	1.32800e+03	0.0173837	454.0
1330	4.58145e+02	1.33000e+03	0.0171876	455.0
1332	4.59128e+02	1.33200e+03	0.0170623	456.0
1334	4.60133e+02	1.33400e+03	0.0169438	457.0
1336	4.61120e+02	1.33600e+03	0.0168526	458.0
1338	4.62143e+02	1.33800e+03	0.0167815	459.0
1340	4.63192e+02	1.34000e+03	0.016719	460.0
1342	4.64224e+02	1.34200e+03	0.0166372	461.0
1344	4.65301e+02	1.34400e+03	0.0165476	462.0
1346	4.66300e+02	1.34600e+03	0.0164745	463.0
1348	4.67287e+02	1.34800e+03	0.016418	464.0
1350	4.68259e+02	1.35000e+03	0.0163545	465.0
1352	4.69235e+02	1.35200e+03	0.0162827	466.0
1354	4.70247e+02	1.35400e+03	0.0162028	467.0
1356	4.71228e+02	1.35600e+03	0.0161023	468.0
1358	4.72217e+02	1.35800e+03	0.0159866	469.0
1360	4.73233e+02	1.36000e+03	0.0158694	470.0
1362	4.74232e+02	1.36200e+03	0.0157883	471.0
1364	4.75239e+02	1.36400e+03	0.0157525	472.0
1366	4.76273e+02	1.36600e+03	0.0157179	473.0
1368	4.77288e+02	1.36800e+03	0.0156892	474.0
1370	4.78296e+02	1.37000e+03	0.0156679	475.0
1372	4.79301e+02	1.37200e+03	0.0156533	476.0
1374	4.80319e+02	1.37400e+03	0.015633	477.0
1376	4.81356e+02	1.37600e+03	0.0156082	478.0
1378	4.82357e+02	1.37800e+03	0.0155859	479.0
1380	4.83362e+02	1.38000e+03	0.0155572	480.0
1382	4.84355e+02	1.38200e+03	0.0155145	481.0
1384	4.85333e+02	1.38400e+03	0.0154681	482.0
1386	4.86340e+02	1.38600e+03	0.0154605	483.0
1388	4.87349e+02	1.38800e+03	0.0155006	484.0
1390	4.88379e+02	1.39000e+03	0.0155314	485.0
1392	4.89368e+02	1.39200e+03	0.0155308	486.0
1394	4.90361e+02	1.39400e+03	0.0154914	487.0
1396	4.91382e+02	1.39600e+03	0.0154019	488.0
1398	4.92341e+02	1.39800e+03	0.0153094	489.0
1400	4.93306e+02	1.40000e+03	0.0152111	490.0
1402	4.94267e+02	1.40200e+03	0.0151176	491.0
1404	4.95241e+02	1.40400e+03	0.0150398	492.0
1406	4.96202e+02	1.40600e+03	0.0149714	493.0
1408	4.97100e+02	1.40800e+03	0.0149077	494.0
1410	4.98051e+02	1.41000e+03	0.0148421	495.0
1412	4.99018e+02	1.41200e+03	0.0147937	496.0
1414	5.00021e+02	1.41400e+03	0.0147791	497.0
1416	5.01019e+02	1.41600e+03	0.014801	498.0
1418	5.01984e+02	1.41800e+03	0.0148219	499.0
1420	5.02938e+02	1.42000e+03	0.0148446	500.0
1422	5.03906e+02	1.42200e+03	0.0148665	501.0
1424	5.04875e+02	1.42400e+03	0.0148734	502.0
1426	5.05854e+02	1.42600e+03	0.0148626	503.0
1428	5.06853e+02	1.42800e+03	0.0148371	504.0
1430	5.07848e+02	1.43000e+03	0.0148275	505.0
1432	5.08857e+02	1.43200e+03	0.014831	506.0
1434	5.09857e+02	1.43400e+03	0.0148268	507.0
1436	5.10838e+02	1.43600e+03	0.0148238	508.0
1438	5.11817e+02	1.43800e+03	0.014835	509.0
1440	5.12803e+02	1.44000e+03	0.0148519	510.0
1442	5.13772e+02	1.44200e+03	0.0148467	511.0
1444	5.14759e+02	1.44400e+03	0.0148128	512.0
1446	5.15741e+02	1.44600e+03	0.0147787	513.0
1448	5.16733e+02	1.44800e+03	0.0147363	514.0
1450	5.17726e+02	1.45000e+03	0.0146763	515.0
1452	5.18706e+02	1.45200e+03	0.0146054	516.0
1454	5.19700e+02	1.45400e+03	0.014556	517.0
1456	5.20674e+02	1.45600e+03	0.0145371	518.0
1458	5.21684e+02	1.45800e+03	0.0145202	519.0
1460	5.22690e+02	1.46000e+03	0.0144988	520.0
1462	5.23684e+02	1.46200e+03	0.0144674	521.0
1464	5.24679e+02	1.46400e+03	0.0144211	522.0
1466	5.25686e+02	1.46600e+03	0.0143682	523.0
1468	5.26663e+02	1.46800e+03	0.0143162	524.0
1470	5.27646e+02	1.47000e+03	0.0142858	525.0
1472	5.28631e+02	1.47200e+03	0.0142884	526.0
1474	5.29613e+02	1.47400e+03	0.0142961	527.0
1476	5.30616e+02	1.47600e+03	0.0143143	528.0
1478	5.31603e+02	1.47800e+03	0.0143435	529.0
1480	5.32604e+02	1.48000e+03	0.0143929	530.0
1482	5.33584e+02	1.48200e+03	0.0144379	531.0
1484	5.34579e+02	1.48400e+03	0.0144589	532.0
1486	5.35548e+02	1.48600e+03	0.0144422	533.0
1488	5.36516e+02	1.48800e+03	0.0143782	534.0
1490	5.37503e+02	1.49000e+03	0.0143131	535.0
1492	5.38496e+02	1.49200e+03	0.0142442	536.0
1494	5.39490e+02	1.49400e+03	0.0141817	537.0
1496	5.40516e+02	1.49600e+03	0.0141438	538.0
1498	5.41490e+02	1.49800e+03	0.0141343	539.0
1500	5.42488e+02	1.50000e+03	0.0141537	540.0
1502	5.43478e+02	1.50200e+03	0.0141668	541.0
1504	5.44507e+02	1.50400e+03	0.0141733	542.0
1506	5.45516e+02	1.50600e+03	0.0141815	543.0
1508	5.46501e+02	1.50800e+03	0.0141791	544.0
1510	5.47428e+02	1.51000e+03	0.0141536	545.0
1512	5.48371e+02	1.51200e+03	0.0141088	546.0
1514	5.49324e+02	1.51400e+03	0.0140911	547.0
1516	5.50291e+02	1.51600e+03	0.0141066	548.0
1518	5.51246e+02	1.51800e+03	0.0141207	549.0
1520	5.52226e+02	1.52000e+03	0.0141358	550.0
1522	5.53187e+02	1.52200e+03	0.0141412	551.0
1524	5.54187e+02	1.52400e+03	0.014121	552.0
1526	5.55197e+02	1.52600e+03	0.0140796	553.0
1528	5.56188e+02	1.52800e+03	0.0140309	554.0
1530	5.57168e+02	1.53000e+03	0.0140109	555.0
1532	5.58139e+02	1.53200e+03	0.0140251	556.0
1534	5.59106e+02	1.53400e+03	0.0140309	557.0
1536	5.60062e+02	1.53600e+03	0.0140219	558.0
1538	5.61032e+02	1.53800e+03	0.0139988	559.0
1540	5.61995e+02	1.54000e+03	0.0139577	560.0
1542	5.62949e+02	1.54200e+03	0.0139129	561.0
1544	5.63893e+02	1.54400e+03	0.0138662	562.0
1546	5.64864e+02	1.54600e+03	0.0138222	563.0
1548	5.65874e+02	1.54800e+03	0.0137745	564.0
1550	5.66868e+02	1.55000e+03	0.0137125	565.0
1552	5.67853e+02	1.55200e+03	0.0136363	566.0
1554	5.68827e+02	1.55400e+03	0.0135762	567.0
1556	5.69791e+02	1.55600e+03	0.0135371	568.0
1558	5.70790e+02	1.55800e+03	0.0134983	569.0
1560	5.71792e+02	1.56000e+03	0.0134535	570.0
1562	5.72781e+02	1.56200e+03	0.0134082	571.0
1564	5.73774e+02	1.56400e+03	0.0133644	572.0
1566	5.74771e+02	1.56600e+03	0.0133222	573.0
1568	5.75768e+02	1.56800e+03	0.0132729	574.0
1570	5.76759e+02	1.57000e+03	0.0132217	575.0
1572	5.77737e+02	1.57200e+03	0.0131818	576.0
1574	5.78740e+02	1.57400e+03	0.0131661	577.0
1576	5.79716e+02	1.57600e+03	0.0131775	578.0
1578	5.80711e+02	1.57800e+03	0.0131836	579.0
1580	5.81703e+02	1.58000e+03	0.0131832	580.0
1582	5.82694e+02	1.58200e+03	0.0131758	581.0
1584	5.83684e+02	1.58400e+03	0.0131559	582.0
1586	5.84701e+02	1.58600e+03	0.0131294	583.0
1588	5.85722e+02	1.58800e+03	0.0131028	584.0
1590	5.86778e+02	1.59000e+03	0.0130865	585.0
1592	5.87812e+02	1.59200e+03	0.0130758	586.0
1594	5.88838e+02	1.59400e+03	0.0130521	587.0
1596	5.89805e+02	1.59600e+03	0.0130161	588.0
1598	5.90800e+02	1.59800e+03	0.0129799	589.0
1600	5.91774e+02	1.60000e+03	0.0129386	590.0
1602	5.92757e+02	1.60200e+03	0.0128893	591.0
1604	5.93736e+02	1.60400e+03	0.0128427	592.0
1606	5.94704e+02	1.60600e+03	0.0128177	593.0
1608	5.95663e+02	1.60800e+03	0.0128188	594.0
1610	5.96619e+02	1.61000e+03	0.0128115	595.0
1612	5.97580e+02	1.61200e+03	0.0128056	596.0
1614	5.98586e+02	1.61400e+03	0.0128126	597.0
1616	5.99595e+02	1.61600e+03	0.0128264	598.0
1618	6.00572e+02	1.61800e+03	0.0128341	599.0
1620	6.01510e+02	1.62000e+03	0.0128537	600.0
1622	6.02450e+02	1.62200e+03	0.0129015	601.0
1624	6.03420e+02	1.62400e+03	0.0129704	602.0
1626	6.04412e+02	1.62600e+03	0.0129922	603.0
1628	6.05372e+02	1.62800e+03	0.0129385	604.0
1630	6.06358e+02	1.63000e+03	0.0128693	605.0
1632	6.07342e+02	1.63200e+03	0.012782	606.0
1634	6.08335e+02	1.63400e+03	0.0127	607.0
1636	6.09305e+02	1.63600e+03	0.0126157	608.0
1638	6.10300e+02	1.63800e+03	0.0125234	609.0
1640	6.11282e+02	1.64000e+03	0.0124402	610.0
1642	6.12271e+02	1.64200e+03	0.0123915	611.0
1644	6.13248e+02	1.64400e+03	0.0123983	612.0
1646	6.14234e+02	1.64600e+03	0.0124356	613.0
1648	6.15259e+02	1.64800e+03	0.0125177	614.0
1650	6.16267e+02	1.65000e+03	0.0126098	615.0
1652	6.17248e+02	1.65200e+03	0.0127046	616.0
1654	6.18245e+02	1.65400e+03	0.0127788	617.0
1656	6.19222e+02	1.65600e+03	0.012818	618.0
1658	6.20225e+02	1.65800e+03	0.0128264	619.0
1660	6.21250e+02	1.66000e+03	0.0127863	620.0
1662	6.22256e+02	1.66200e+03	0.012731	621.0
1664	6.23251e+02	1.66400e+03	0.0126646	622.0
1666	6.24279e+02	1.66600e+03	0.0126136	623.0
1668	6.25283e+02	1.66800e+03	0.0125718	624.0
1670	6.26275e+02	1.67000e+03	0.0125232	625.0
1672	6.27310e+02	1.67200e+03	0.0124616	626.0
1674	6.28357e+02	1.67400e+03	0.0123898	627.0
1676	6.29377e+02	1.67600e+03	0.0123114	628.0
1678	6.30383e+02	1.67800e+03	0.0122474	629.0
1680	6.31401e+02	1.68000e+03	0.0122178	630.0
1682	6.32394e+02	1.68200e+03	0.0122143	631.0
1684	6.33387e+02	1.68400e+03	0.0122352	632.0
1686	6.34387e+02	1.68600e+03	0.0122417	633.0
1688	6.35389e+02	1.68800e+03	0.012251	634.0
1690	6.36370e+02	1.69000e+03	0.0122835	635.0
1692	6.37395e+02	1.69200e+03	0.0123209	636.0
1694	6.38391e+02	1.69400e+03	0.0123024	637.0
1696	6.39384e+02	1.69600e+03	0.0122063	638.0
1698	6.40388e+02	1.69800e+03	0.0121046	639.0
1700	6.41422e+02	1.70000e+03	0.0120138	640.0
1702	6.42451e+02	1.70200e+03	0.0119626	641.0
1704	6.43452e+02	1.70400e+03	0.0119635	642.0
1706	6.44457e+02	1.70600e+03	0.0119599	643.0
1708	6.45434e+02	1.70800e+03	0.0119465	644.0
1710	6.46421e+02	1.71000e+03	0.0119269	645.0
1712	6.47419e+02	1.71200e+03	0.0119021	646.0
1714	6.48414e+02	1.71400e+03	0.0118733	647.0
1716	6.49430e+02	1.71600e+03	0.0118496	648.0
1718	6.50443e+02	1.71800e+03	0.011853	649.0
1720	6.51472e+02	1.72000e+03	0.0118868	650.0
1722	6.52489e+02	1.72200e+03	0.0118969	651.0
1724	6.53487e+02	1.72400e+03	0.0118637	652.0
1726	6.54542e+02	1.72600e+03	0.0118179	653.0
1728	6.55554e+02	1.72800e+03	0.0117684	654.0
1730	6.56617e+02	1.73000e+03	0.0117355	655.0
1732	6.57708e+02	1.73200e+03	0.0117199	656.0
1734	6.58834e+02	1.73400e+03	0.0116935	657.0
1736	6.59797e+02	1.73600e+03	0.0116446	658.0
1738	6.60779e+02	1.73800e+03	0.0115651	659.0
1740	6.61772e+02	1.74000e+03	0.0114362	660.0
1742	6.62802e+02	1.74200e+03	0.0112996	661.0
1744	6.63736e+02	1.74400e+03	0.011183	662.0
1746	6.64731e+02	1.74600e+03	0.0111305	663.0
1748	6.65685e+02	1.74800e+03	0.0111674	664.0
1750	6.66618e+02	1.75000e+03	0.0112329	665.0
1752	6.67601e+02	1.75200e+03	0.0113397	666.0
1754	6.68560e+02	1.75400e+03	0.0114449	667.0
1756	6.69538e+02	1.75600e+03	0.0115271	668.0
1758	6.70545e+02	1.75800e+03	0.011574	669.0
1760	6.71517e+02	1.76000e+03	0.0115865	670.0
1762	6.72492e+02	1.76200e+03	0.0116058	671.0
1764	6.73478e+02	1.76400e+03	0.0116105	672.0
1766	6.74476e+02	1.76600e+03	0.0115721	673.0
1768	6.75482e+02	1.76800e+03	0.0114981	674.0
1770	6.76517e+02	1.77000e+03	0.0114577	675.0
1772	6.77571e+02	1.77200e+03	0.0114525	676.0
1774	6.78583e+02	1.77400e+03	0.0114491	677.0
1776	6.79560e+02	1.77600e+03	0.0114557	678.0
1778	6.80542e+02	1.77800e+03	0.0114632	679.0
1780	6.81498e+02	1.78000e+03	0.0114644	680.0
1782	6.82462e+02	1.78200e+03	0.0114565	681.0
1784	6.83447e+02	1.78400e+03	0.0114545	682.0
1786	6.84432e+02	1.78600e+03	0.0114787	683.0
1788	6.85394e+02	1.78800e+03	0.0115299	684.0
1790	6.86364e+02	1.79000e+03	0.0115567	685.0
1792	6.87342e+02	1.79200e+03	0.011555	686.0
1794	6.88304e+02	1.79400e+03	0.0115552	687.0
1796	6.88722e+02	1.79600e+03	0.0115574	688.0
1798	6.89368e+02	1.79800e+03	0.0115605	689.0
1800	6.90091e+02	1.80000e+03	0.0115589	690.0
1802	6.90737e+02	1.80200e+03	0.011543	691.0
1804	6.91365e+02	1.80400e+03	0.0114992	692.0
1806	6.91963e+02	1.80600e+03	0.011438	693.0
1808	6.92509e+02	1.80800e+03	0.011353	694.0
1810	6.93008e+02	1.81000e+03	0.0112868	695.0
1812	6.93488e+02	1.81200e+03	0.0112565	696.0
1814	6.93935e+02	1.81400e+03	0.0112514	697.0
1816	6.94353e+02	1.81600e+03	0.0112738	698.0
1818	6.94735e+02	1.81800e+03	0.011299	699.0
1820	6.95097e+02	1.82000e+03	0.0113378	700.0
1822	6.95432e+02	1.82200e+03	0.0113926	700.0
1824	6.95755e+02	1.82400e+03	0.0114433	700.0
1826	6.96058e+02	1.82600e+03	0.0114607	700.0
1828	6.96340e+02	1.82800e+03	0.0114427	700.0
1830	6.96608e+02	1.83000e+03	0.011425	700.0
1832	6.96833e+02	1.83200e+03	0.0113874	700.0
1834	6.97053e+02	1.83400e+03	0.0113289	700.0
1836	6.97246e+02	1.83600e+03	0.0112685	700.0
1838	6.97439e+02	1.83800e+03	0.0112373	700.0
1840	6.97621e+02	1.84000e+03	0.0112398	700.0
1842	6.97805e+02	1.84200e+03	0.0112447	700.0
1844	6.97952e+02	1.84400e+03	0.0112539	700.0
1846	6.98103e+02	1.84600e+03	0.0112778	700.0
1848	6.98245e+02	1.84800e+03	0.0113157	700.0
1850	6.98376e+02	1.85000e+03	0.0113429	700.0
1852	6.98519e+02	1.85200e+03	0.0113614	700.0
1854	6.98613e+02	1.85400e+03	0.0113728	700.0
1856	6.98688e+02	1.85600e+03	0.011357	700.0
1858	6.98786e+02	1.85800e+03	0.0113153	700.0
1860	6.98891e+02	1.86000e+03	0.0112489	700.0
1862	6.99003e+02	1.86200e+03	0.0112011	700.0
1864	6.99104e+02	1.86400e+03	0.0111703	700.0
1866	6.99192e+02	1.86600e+03	0.0111277	700.0
1868	6.99267e+02	1.86800e+03	0.0110693	700.0
1870	6.99346e+02	1.87000e+03	0.0110225	700.0
1872	6.99422e+02	1.87200e+03	0.0109925	700.0
1874	6.99491e+02	1.87400e+03	0.0109623	700.0
1876	6.99558e+02	1.87600e+03	0.0109392	700.0
1878	6.99638e+02	1.87800e+03	0.0109271	700.0
1880	6.99701e+02	1.88000e+03	0.0109348	700.0
1882	6.99771e+02	1.88200e+03	0.0109586	700.0
1884	6.99817e+02	1.88400e+03	0.0110004	700.0
1886	6.99879e+02	1.88600e+03	0.0110359	700.0
1888	6.99933e+02	1.88800e+03	0.0110586	700.0
1890	6.99981e+02	1.89000e+03	0.0110579	700.0
1892	7.00034e+02	1.89200e+03	0.0110227	700.0
1894	7.00077e+02	1.89400e+03	0.0109848	700.0
1896	7.00120e+02	1.89600e+03	0.0109554	700.0
1898	7.00171e+02	1.89800e+03	0.0109499	700.0
1900	7.00210e+02	1.90000e+03	0.0109703	700.0
1902	7.00266e+02	1.90200e+03	0.0109863	700.0
1904	7.00300e+02	1.90400e+03	0.0110065	700.0
1906	7.00328e+02	1.90600e+03	0.0110289	700.0
1908	7.00375e+02	1.90800e+03	0.0110398	700.0
1910	7.00404e+02	1.91000e+03	0.0110382	700.0
1912	7.00442e+02	1.91200e+03	0.0110254	700.0
1914	7.00464e+02	1.91400e+03	0.011029	700.0
1916	7.00504e+02	1.91600e+03	0.011041	700.0
1918	7.00534e+02	1.91800e+03	0.0110384	700.0
1920	7.00562e+02	1.92000e+03	0.0110149	700.0
1922	7.00583e+02	1.92200e+03	0.010987	700.0
1924	7.00617e+02	1.92400e+03	0.0109565	700.0
1926	7.00643e+02	1.92600e+03	0.010935	700.0
1928	7.00671e+02	1.92800e+03	0.0109291	700.0
1930	7.00689e+02	1.93000e+03	0.0109315	700.0
1932	7.00698e+02	1.93200e+03	0.0109424	700.0
1934	7.00725e+02	1.93400e+03	0.0109488	700.0
1936	7.00750e+02	1.93600e+03	0.0109468	700.0
1938	7.00769e+02	1.93800e+03	0.0109389	700.0
1940	7.00790e+02	1.94000e+03	0.0109223	700.0
1942	7.00809e+02	1.94200e+03	0.0109034	700.0
1944	7.00821e+02	1.94400e+03	0.0108807	700.0
1946	7.00853e+02	1.94600e+03	0.0108579	700.0
1948	7.00864e+02	1.94800e+03	0.010837	700.0
1950	7.00878e+02	1.95000e+03	0.010821	700.0
1952	7.00900e+02	1.95200e+03	0.0108128	700.0
1954	7.00911e+02	1.95400e+03	0.0108116	700.0
1956	7.00926e+02	1.95600e+03	0.0108336	700.0
1958	7.00941e+02	1.95800e+03	0.0108688	700.0
1960	7.00953e+02	1.96000e+03	0.0109155	700.0
1962	7.00964e+02	1.96200e+03	0.0109464	700.0
1964	7.00980e+02	1.96400e+03	0.0109489	700.0
1966	7.00977e+02	1.96600e+03	0.010933	700.0
1968	7.01001e+02	1.96800e+03	0.0108913	700.0
1970	7.01003e+02	1.97000e+03	0.0108477	700.0
1972	7.01018e+02	1.97200e+03	0.0108046	700.0
1974	7.01022e+02	1.97400e+03	0.0107672	700.0
1976	7.01042e+02	1.97600e+03	0.0107379	700.0
1978	7.01051e+02	1.97800e+03	0.0107111	700.0
1980	7.01058e+02	1.98000e+03	0.0106899	700.0
1982	7.01058e+02	1.98200e+03	0.0106703	700.0
1984	7.01067e+02	1.98400e+03	0.010649	700.0
1986	7.01079e+02	1.98600e+03	0.0106206	700.0
1988	7.01090e+02	1.98800e+03	0.0105856	700.0
1990	7.01093e+02	1.99000e+03	0.0105555	700.0
1992	7.01099e+02	1.99200e+03	0.0105339	700.0
1994	7.01104e+02	1.99400e+03	0.010518	700.0
1996	7.01121e+02	1.99600e+03	0.0105101	700.0
1998	7.01121e+02	1.99800e+03	0.0105046	700.0
2000	7.01130e+02	2.00000e+03	0.0105025	700.0
2002	7.01125e+02	2.00200e+03	0.0105048	700.0
2004	7.01139e+02	2.00400e+03	0.0105226	700.0
2006	7.01142e+02	2.00600e+03	0.0105427	700.0
2008	7.01155e+02	2.00800e+03	0.0105614	700.0
2010	7.01150e+02	2.01000e+03	0.0105682	700.0
2012	7.01155e+02	2.01200e+03	0.0105608	700.0
2014	7.01160e+02	2.01400e+03	0.0105561	700.0
2016	7.01161e+02	2.01600e+03	0.0105505	700.0
2018	7.01165e+02	2.01800e+03	0.0105298	700.0
2020	7.01171e+02	2.02000e+03	0.0104967	700.0
2022	7.01178e+02	2.02200e+03	0.0104742	700.0
2024	7.01186e+02	2.02400e+03	0.0104578	700.0
2026	7.01187e+02	2.02600e+03	0.0104504	700.0
2028	7.01182e+02	2.02800e+03	0.0104577	700.0
2030	7.01199e+02	2.03000e+03	0.0104717	700.0
2032	7.01196e+02	2.03200e+03	0.0104897	700.0
2034	7.01212e+02	2.03400e+03	0.0104927	700.0
2036	7.01212e+02	2.03600e+03	0.0104708	700.0
2038	7.01211e+02	2.03800e+03	0.0104483	700.0
2040	7.01211e+02	2.04000e+03	0.0104233	700.0
2042	7.01225e+02	2.04200e+03	0.010401	700.0
2044	7.01217e+02	2.04400e+03	0.0103815	700.0
2046	7.01229e+02	2.04600e+03	0.0103603	700.0
2048	7.01217e+02	2.04800e+03	0.0103362	700.0
2050	7.01228e+02	2.05000e+03	0.0102984	700.0
2052	7.01227e+02	2.05200e+03	0.0102387	700.0
2054	7.01237e+02	2.05400e+03	0.0101809	700.0
2056	7.01232e+02	2.05600e+03	0.0101474	700.0
2058	7.01245e+02	2.05800e+03	0.0101413	700.0
2060	7.01245e+02	2.06000e+03	0.0101681	700.0
2062	7.01250e+02	2.06200e+03	0.0101866	700.0
2064	7.01244e+02	2.06400e+03	0.0101918	700.0
2066	7.01251e+02	2.06600e+03	0.0101904	700.0
2068	7.01250e+02	2.06800e+03	0.0101781	700.0
2070	7.01262e+02	2.07000e+03	0.0101592	700.0
2072	7.01246e+02	2.07200e+03	0.0101295	700.0
2074	7.01264e+02	2.07400e+03	0.0100918	700.0
2076	7.01260e+02	2.07600e+03	0.0100289	700.0
2078	7.01268e+02	2.07800e+03	0.00995357	700.0
2080	7.01272e+02	2.08000e+03	0.00987845	700.0
2082	7.01264e+02	2.08200e+03	0.00984128	700.0
2084	7.01272e+02	2.08400e+03	0.00985154	700.0
2086	7.01269e+02	2.08600e+03	0.00987397	700.0
2088	7.01270e+02	2.08800e+03	0.0099167	700.0
2090	7.01268e+02	2.09000e+03	0.00995338	700.0
2092	7.01271e+02	2.09200e+03	0.00997487	700.0
2094	7.01285e+02	2.09400e+03	0.00996529	700.0
2096	7.01276e+02	2.09600e+03	0.00992746	700.0
2098	7.01282e+02	2.09800e+03	0.00990647	700.0
2100	7.01275e+02	2.10000e+03	0.00990123	700.0
2102	7.01275e+02	2.10200e+03	0.00989306	700.0
2104	7.01285e+02	2.10400e+03	0.00987182	700.0
2106	7.01289e+02	2.10600e+03	0.0098343	700.0
2108	7.01283e+02	2.10800e+03	0.00978083	700.0
2110	7.01287e+02	2.11000e+03	0.00973785	700.0
2112	7.01292e+02	2.11200e+03	0.00971401	700.0
2114	7.01295e+02	2.11400e+03	0.00971468	700.0
2116	7.01288e+02	2.11600e+03	0.00973932	700.0
2118	7.01300e+02	2.11800e+03	0.00976023	700.0
2120	7.01293e+02	2.12000e+03	0.00977248	700.0
2122	7.01296e+02	2.12200e+03	0.0097741	700.0
2124	7.01295e+02	2.12400e+03	0.0097597	700.0
2126	7.01292e+02	2.12600e+03	0.00972913	700.0
2128	7.01300e+02	2.12800e+03	0.00967771	700.0
2130	7.01312e+02	2.13000e+03	0.00963749	700.0
2132	7.01300e+02	2.13200e+03	0.00961361	700.0
2134	7.01299e+02	2.13400e+03	0.00960088	700.0
2136	7.01298e+02	2.13600e+03	0.00959969	700.0
2138	7.01308e+02	2.13800e+03	0.00959912	700.0
2140	7.01313e+02	2.14000e+03	0.00959183	700.0
2142	7.01311e+02	2.14200e+03	0.00957532	700.0
2144	7.01309e+02	2.14400e+03	0.0095424	700.0
2146	7.01313e+02	2.14600e+03	0.00949593	700.0
2148	7.01313e+02	2.14800e+03	0.00943018	700.0
2150	7.01309e+02	2.15000e+03	0.00936484	700.0
2152	7.01312e+02	2.15200e+03	0.00931189	700.0
2154	7.01316e+02	2.15400e+03	0.00929355	700.0
2156	7.01308e+02	2.15600e+03	0.00932121	700.0
2158	7.01324e+02	2.15800e+03	0.00935734	700.0
2160	7.01321e+02	2.16000e+03	0.0094034	700.0
2162	7.01313e+02	2.16200e+03	0.0094463	700.0
2164	7.01311e+02	2.16400e+03	0.00949294	700.0
2166	7.01318e+02	2.16600e+03	0.00954962	700.0
2168	7.01320e+02	2.16800e+03	0.00960852	700.0
2170	7.01320e+02	2.17000e+03	0.00965128	700.0
2172	7.01325e+02	2.17200e+03	0.00966651	700.0
2174	7.01319e+02	2.17400e+03	0.00966601	700.0
2176	7.01324e+02	2.17600e+03	0.0096411	700.0
2178	7.01308e+02	2.17800e+03	0.00960632	700.0
2180	7.01317e+02	2.18000e+03	0.00955983	700.0
2182	7.01319e+02	2.18200e+03	0.00951604	700.0
2184	7.01322e+02	2.18400e+03	0.00947785	700.0
2186	7.01307e+02	2.18600e+03	0.00943673	700.0
2188	7.01316e+02	2.18800e+03	0.00939358	700.0
2190	7.01307e+02	2.19000e+03	0.00935713	700.0
2192	7.01313e+02	2.19200e+03	0.00933058	700.0
2194	7.01317e+02	2.19400e+03	0.00931249	700.0
2196	7.01311e+02	2.19600e+03	0.00930642	700.0
2198	7.01322e+02	2.19800e+03	0.00930237	700.0
2200	7.01313e+02	2.20000e+03	0.0093012	700.0
2202	7.01314e+02	2.20200e+03	0.00930154	700.0
2204	7.01315e+02	2.20400e+03	0.00931541	700.0
2206	7.01310e+02	2.20600e+03	0.00933734	700.0
2208	7.01322e+02	2.20800e+03	0.00936393	700.0
2210	7.01327e+02	2.21000e+03	0.00936735	700.0
2212	7.01325e+02	2.21200e+03	0.00934613	700.0
2214	7.01320e+02	2.21400e+03	0.00932239	700.0
2216	7.01319e+02	2.21600e+03	0.00929447	700.0
2218	7.01320e+02	2.21800e+03	0.0092676	700.0
2220	7.01315e+02	2.22000e+03	0.00924453	700.0
2222	7.01323e+02	2.22200e+03	0.00922688	700.0
2224	7.01319e+02	2.22400e+03	0.00922659	700.0
2226	7.01323e+02	2.22600e+03	0.00923937	700.0
2228	7.01325e+02	2.22800e+03	0.00926022	700.0
2230	7.01322e+02	2.23000e+03	0.00927204	700.0
2232	7.01309e+02	2.23200e+03	0.00928074	700.0
2234	7.01315e+02	2.23400e+03	0.00928202	700.0
2236	7.01309e+02	2.23600e+03	0.00925519	700.0
2238	7.01313e+02	2.23800e+03	0.00920361	700.0
2240	7.01316e+02	2.24000e+03	0.00912411	700.0
2242	7.01307e+02	2.24200e+03	0.00905481	700.0
2244	7.01313e+02	2.24400e+03	0.00900246	700.0
2246	7.01310e+02	2.24600e+03	0.00895667	700.0
2248	7.01307e+02	2.24800e+03	0.00892023	700.0
2250	7.01302e+02	2.25000e+03	0.00888618	700.0
2252	7.01307e+02	2.25200e+03	0.00885744	700.0
2254	7.01309e+02	2.25400e+03	0.00883202	700.0
2256	7.01303e+02	2.25600e+03	0.00880989	700.0
2258	7.01310e+02	2.25800e+03	0.00878713	700.0
2260	7.01307e+02	2.26000e+03	0.00876672	700.0
2262	7.01304e+02	2.26200e+03	0.00875373	700.0
2264	7.01302e+02	2.26400e+03	0.00875639	700.0
2266	7.01302e+02	2.26600e+03	0.00877965	700.0
2268	7.01300e+02	2.26800e+03	0.00881826	700.0
2270	7.01306e+02	2.27000e+03	0.0088433	700.0
2272	7.01302e+02	2.27200e+03	0.00884852	700.0
2274	7.01300e+02	2.27400e+03	0.00884783	700.0
2276	7.01297e+02	2.27600e+03	0.00882804	700.0
2278	7.01290e+02	2.27800e+03	0.0087859	700.0
2280	7.01298e+02	2.28000e+03	0.00872605	700.0
2282	7.01297e+02	2.28200e+03	0.0086788	700.0
2284	7.01288e+02	2.28400e+03	0.00865301	700.0
2286	7.01299e+02	2.28600e+03	0.00864248	700.0
2288	7.01297e+02	2.28800e+03	0.00865989	700.0
2290	7.01294e+02	2.29000e+03	0.00868765	700.0
2292	7.01294e+02	2.29200e+03	0.00871764	700.0
2294	7.01290e+02	2.29400e+03	0.00873244	700.0
2296	7.01294e+02	2.29600e+03	0.00872721	700.0
2298	7.01289e+02	2.29800e+03	0.00872541	700.0
2300	7.01294e+02	2.30000e+03	0.00874104	700.0
2302	7.01287e+02	2.30200e+03	0.00876736	700.0
2304	7.01287e+02	2.30400e+03	0.0088071	700.0
2306	7.01279e+02	2.30600e+03	0.00884411	700.0
2308	7.01281e+02	2.30800e+03	0.00888231	700.0
2310	7.01282e+02	2.31000e+03	0.00891107	700.0
2312	7.01287e+02	2.31200e+03	0.00891917	700.0
2314	7.01285e+02	2.31400e+03	0.00890401	700.0
2316	7.01292e+02	2.31600e+03	0.00885842	700.0
2318	7.01285e+02	2.31800e+03	0.00881301	700.0
2320	7.01289e+02	2.32000e+03	0.0087718	700.0
2322	7.01282e+02	2.32200e+03	0.00874058	700.0
2324	7.01281e+02	2.32400e+03	0.00873303	700.0
2326	7.01290e+02	2.32600e+03	0.00874655	700.0
2328	7.01288e+02	2.32800e+03	0.00878104	700.0
2330	7.01281e+02	2.33000e+03	0.00880692	700.0
2332	7.01273e+02	2.33200e+03	0.00881165	700.0
2334	7.01278e+02	2.33400e+03	0.00879651	700.0
2336	7.01274e+02	2.33600e+03	0.00875476	700.0
2338	7.01275e+02	2.33800e+03	0.00871181	700.0
2340	7.01281e+02	2.34000e+03	0.00867128	700.0
2342	7.01272e+02	2.34200e+03	0.00863995	700.0
2344	7.01274e+02	2.34400e+03	0.00862008	700.0
2346	7.01272e+02	2.34600e+03	0.00860085	700.0
2348	7.01274e+02	2.34800e+03	0.00859176	700.0
2350	7.01271e+02	2.35000e+03	0.00859598	700.0
2352	7.01270e+02	2.35200e+03	0.00861344	700.0
2354	7.01267e+02	2.35400e+03	0.00862298	700.0
2356	7.01278e+02	2.35600e+03	0.00861938	700.0
2358	7.01264e+02	2.35800e+03	0.00861788	700.0
2360	7.01269e+02	2.36000e+03	0.00862667	700.0
2362	7.01272e+02	2.36200e+03	0.00864979	700.0
2364	7.01259e+02	2.36400e+03	0.00868494	700.0
2366	7.01271e+02	2.36600e+03	0.00871691	700.0
2368	7.01265e+02	2.36800e+03	0.00875101	700.0
2370	7.01267e+02	2.37000e+03	0.00878342	700.0
2372	7.01261e+02	2.37200e+03	0.00880853	700.0
2374	7.01259e+02	2.37400e+03	0.00881448	700.0
2376	7.01263e+02	2.37600e+03	0.00878917	700.0
2378	7.01255e+02	2.37800e+03	0.00874144	700.0
2380	7.01258e+02	2.38000e+03	0.008668	700.0
2382	7.01265e+02	2.38200e+03	0.00860511	700.0
2384	7.01250e+02	2.38400e+03	0.00854786	700.0
2386	7.01249e+02	2.38600e+03	0.00849869	700.0
2388	7.01250e+02	2.38800e+03	0.00847052	700.0
2390	7.01249e+02	2.39000e+03	0.00845856	700.0
2392	7.01254e+02	2.39200e+03	0.00846054	700.0
2394	7.01256e+02	2.39400e+03	0.0084496	700.0
2396	7.01256e+02	2.39600e+03	0.00842108	700.0
2398	7.01249e+02	2.39800e+03	0.00839046	700.0
2400	7.01250e+02	2.40000e+03	0.00837228	700.0
2402	7.01254e+02	2.40200e+03	0.00838846	700.0
2404	7.01248e+02	2.40400e+03	0.0084431	700.0
2406	7.01250e+02	2.40600e+03	0.00849369	700.0
2408	7.01250e+02	2.40800e+03	0.00852909	700.0
2410	7.01247e+02	2.41000e+03	0.00854919	700.0
2412	7.01251e+02	2.41200e+03	0.00854573	700.0
2414	7.01255e+02	2.41400e+03	0.00855141	700.0
2416	7.01246e+02	2.41600e+03	0.00856386	700.0
2418	7.01248e+02	2.41800e+03	0.00855769	700.0
2420	7.01251e+02	2.42000e+03	0.00849981	700.0
2422	7.01249e+02	2.42200e+03	0.0083872	700.0
2424	7.01243e+02	2.42400e+03	0.00822194	700.0
2426	7.01251e+02	2.42600e+03	0.00808603	700.0
2428	7.01249e+02	2.42800e+03	0.0080188	700.0
2430	7.01250e+02	2.43000e+03	0.00801444	700.0
2432	7.01230e+02	2.43200e+03	0.00809835	700.0
2434	7.01235e+02	2.43400e+03	0.00820712	700.0
2436	7.01242e+02	2.43600e+03	0.00833263	700.0
2438	7.01249e+02	2.43800e+03	0.0084336	700.0
2440	7.01240e+02	2.44000e+03	0.00849346	700.0
2442	7.01241e+02	2.44200e+03	0.00852993	700.0
2444	7.01246e+02	2.44400e+03	0.00853549	700.0
2446	7.01237e+02	2.44600e+03	0.00853943	700.0
2448	7.01233e+02	2.44800e+03	0.00854361	700.0
2450	7.01240e+02	2.45000e+03	0.008559	700.0
2452	7.01236e+02	2.45200e+03	0.00857407	700.0
2454	7.01239e+02	2.45400e+03	0.00856021	700.0
2456	7.01233e+02	2.45600e+03	0.00851513	700.0
2458	7.01240e+02	2.45800e+03	0.00848096	700.0
2460	7.01244e+02	2.46000e+03	0.0084529	700.0
2462	7.01244e+02	2.46200e+03	0.00841914	700.0
2464	7.01240e+02	2.46400e+03	0.0083712	700.0
2466	7.01245e+02	2.46600e+03	0.00832349	700.0
2468	7.01235e+02	2.46800e+03	0.0082932	700.0
2470	7.01240e+02	2.47000e+03	0.00829222	700.0
2472	7.01243e+02	2.47200e+03	0.00834526	700.0
2474	7.01240e+02	2.47400e+03	0.00842136	700.0
2476	7.01233e+02	2.47600e+03	0.00851518	700.0
2478	7.01240e+02	2.47800e+03	0.00858798	700.0
2480	7.01235e+02	2.48000e+03	0.00862607	700.0
2482	7.01236e+02	2.48200e+03	0.00864301	700.0
2484	7.01241e+02	2.48400e+03	0.00862854	700.0
2486	7.01229e+02	2.48600e+03	0.00860648	700.0
2488	7.01222e+02	2.48800e+03	0.00857604	700.0
2490	7.01226e+02	2.49000e+03	0.00854994	700.0
2492	7.01234e+02	2.49200e+03	0.00853936	700.0
2494	7.01235e+02	2.49400e+03	0.0085437	700.0
2496	7.01229e+02	2.49600e+03	0.00854549	700.0
2498	7.01226e+02	2.49800e+03	0.00852709	700.0
2500	7.01223e+02	2.50000e+03	0.00849466	700.0
2502	7.01222e+02	2.50200e+03	0.00848193	700.0
2504	7.01228e+02	2.50400e+03	0.00849695	700.0
2506	7.01231e+02	2.50600e+03	0.0085155	700.0
2508	7.01223e+02	2.50800e+03	0.0085325	700.0
2510	7.01223e+02	2.51000e+03	0.00853729	700.0
2512	7.01221e+02	2.51200e+03	0.00852745	700.0
2514	7.01226e+02	2.51400e+03	0.00851987	700.0
2516	7.01229e+02	2.51600e+03	0.00852847	700.0
2518	7.01225e+02	2.51800e+03	0.00854674	700.0
2520	7.01222e+02	2.52000e+03	0.00857478	700.0
2522	7.01222e+02	2.52200e+03	0.00858679	700.0
2524	7.01223e+02	2.52400e+03	0.00857572	700.0
2526	7.01221e+02	2.52600e+03	0.00856546	700.0
2528	7.01225e+02	2.52800e+03	0.00856631	700.0
2530	7.01224e+02	2.53000e+03	0.00858479	700.0
2532	7.01220e+02	2.53200e+03	0.00862061	700.0
2534	7.01219e+02	2.53400e+03	0.00865688	700.0
2536	7.01211e+02	2.53600e+03	0.00868289	700.0
2538	7.01224e+02	2.53800e+03	0.0086867	700.0
2540	7.01222e+02	2.54000e+03	0.00866141	700.0
2542	7.01219e+02	2.54200e+03	0.00863057	700.0
2544	7.01214e+02	2.54400e+03	0.00859213	700.0
2546	7.01227e+02	2.54600e+03	0.00855677	700.0
2548	7.01212e+02	2.54800e+03	0.00852229	700.0
2550	7.01220e+02	2.55000e+03	0.00848763	700.0
2552	7.01221e+02	2.55200e+03	0.00847272	700.0
2554	7.01219e+02	2.55400e+03	0.00847844	700.0
2556	7.01215e+02	2.55600e+03	0.00850953	700.0
2558	7.01211e+02	2.55800e+03	0.00853188	700.0
2560	7.01214e+02	2.56000e+03	0.00853403	700.0
2562	7.01210e+02	2.56200e+03	0.00852164	700.0
2564	7.01217e+02	2.56400e+03	0.00849515	700.0
2566	7.01212e+02	2.56600e+03	0.00848371	700.0
2568	7.01214e+02	2.56800e+03	0.00849351	700.0
2570	7.01209e+02	2.57000e+03	0.0085014	700.0
2572	7.01206e+02	2.57200e+03	0.008508	700.0
2574	7.01208e+02	2.57400e+03	0.00851052	700.0
2576	7.01212e+02	2.57600e+03	0.00850884	700.0
2578	7.01208e+02	2.57800e+03	0.0085021	700.0
2580	7.01206e+02	2.58000e+03	0.00848892	700.0
2582	7.01207e+02	2.58200e+03	0.00847777	700.0
2584	7.01196e+02	2.58400e+03	0.00847677	700.0
2586	7.01213e+02	2.58600e+03	0.00848681	700.0
2588	7.01202e+02	2.58800e+03	0.00850773	700.0
2590	7.01209e+02	2.59000e+03	0.00850883	700.0
2592	7.01211e+02	2.59200e+03	0.00848491	700.0
2594	7.01205e+02	2.59400e+03	0.00846634	700.0
2596	7.01213e+02	2.59600e+03	0.00844883	700.0
2598	7.01206e+02	2.59800e+03	0.00843708	700.0
2600	7.01208e+02	2.60000e+03	0.0084454	700.0
2602	7.01210e+02	2.60200e+03	0.00845946	700.0
2604	7.01206e+02	2.60400e+03	0.00847965	700.0
2606	7.01205e+02	2.60600e+03	0.00849306	700.0
2608	7.01202e+02	2.60800e+03	0.00849733	700.0
2610	7.01201e+02	2.61000e+03	0.00851038	700.0
2612	7.01198e+02	2.61200e+03	0.00853468	700.0
2614	7.01208e+02	2.61400e+03	0.00855465	700.0
2616	7.01204e+02	2.61600e+03	0.00856361	700.0
2618	7.01196e+02	2.61800e+03	0.00855687	700.0
2620	7.01208e+02	2.62000e+03	0.0085298	700.0
2622	7.01196e+02	2.62200e+03	0.00849472	700.0
2624	7.01198e+02	2.62400e+03	0.00845339	700.0
2626	7.01193e+02	2.62600e+03	0.00842328	700.0
2628	7.01194e+02	2.62800e+03	0.00840463	700.0
2630	7.01199e+02	2.63000e+03	0.00838245	700.0
2632	7.01204e+02	2.63200e+03	0.00837317	700.0
2634	7.01189e+02	2.63400e+03	0.00839761	700.0
2636	7.01194e+02	2.63600e+03	0.0084578	700.0
2638	7.01193e+02	2.63800e+03	0.0085104	700.0
2640	7.01199e+02	2.64000e+03	0.00855088	700.0
2642	7.01193e+02	2.64200e+03	0.00857892	700.0
2644	7.01191e+02	2.64400e+03	0.00859056	700.0
2646	7.01181e+02	2.64600e+03	0.00860296	700.0
2648	7.01192e+02	2.64800e+03	0.00861531	700.0
2650	7.01186e+02	2.65000e+03	0.00862333	700.0
2652	7.01194e+02	2.65200e+03	0.00862	700.0
2654	7.01190e+02	2.65400e+03	0.00860517	700.0
2656	7.01191e+02	2.65600e+03	0.00857642	700.0
2658	7.01190e+02	2.65800e+03	0.00854751	700.0
2660	7.01190e+02	2.66000e+03	0.00851796	700.0
2662	7.01193e+02	2.66200e+03	0.00848868	700.0
2664	7.01192e+02	2.66400e+03	0.00845985	700.0
2666	7.01186e+02	2.66600e+03	0.00843089	700.0
2668	7.01181e+02	2.66800e+03	0.00840173	700.0
2670	7.01180e+02	2.67000e+03	0.008367	700.0
2672	7.01186e+02	2.67200e+03	0.00831395	700.0
2674	7.01190e+02	2.67400e+03	0.00825314	700.0
2676	7.01189e+02	2.67600e+03	0.00820908	700.0
2678	7.01187e+02	2.67800e+03	0.00820084	700.0
2680	7.01188e+02	2.68000e+03	0.00824425	700.0
2682	7.01179e+02	2.68200e+03	0.00830043	700.0
2684	7.01187e+02	2.68400e+03	0.00837407	700.0
2686	7.01190e+02	2.68600e+03	0.00843587	700.0
2688	7.01189e+02	2.68800e+03	0.00847789	700.0
2690	7.01180e+02	2.69000e+03	0.00850339	700.0
2692	7.01189e+02	2.69200e+03	0.00850794	700.0
2694	7.01185e+02	2.69400e+03	0.00850874	700.0
2696	7.01190e+02	2.69600e+03	0.00850348	700.0
2698	7.01183e+02	2.69800e+03	0.00850233	700.0
2700	7.01184e+02	2.70000e+03	0.00851429	700.0
2702	7.01180e+02	2.70200e+03	0.00854673	700.0
2704	7.01183e+02	2.70400e+03	0.00858998	700.0
2706	7.01180e+02	2.70600e+03	0.00860167	700.0
2708	7.01187e+02	2.70800e+03	0.00857266	700.0
2710	7.01181e+02	2.71000e+03	0.00854657	700.0
2712	7.01184e+02	2.71200e+03	0.00851638	700.0
2714	7.01181e+02	2.71400e+03	0.00847633	700.0
2716	7.01178e+02	2.71600e+03	0.00844925	700.0
2718	7.01183e+02	2.71800e+03	0.00842569	700.0
2720	7.01177e+02	2.72000e+03	0.00840058	700.0