File: Experiments/TUBS/tga_nonisotherm/tga_dynamic_n2_dyn60_piece_1mg_r2.txt
index	ts	t	weight	tr
[#]	[°C]	[s]	[mg]	[°C]
643	1.30362e+02	6.43000e+02	1.03369e+00	1.33000e+02
644	1.31377e+02	6.44000e+02	1.03367e+00	1.34000e+02
645	1.32377e+02	6.45000e+02	1.03364e+00	1.35000e+02
646	1.33379e+02	6.46000e+02	1.03361e+00	1.36000e+02
647	1.34387e+02	6.47000e+02	1.03359e+00	1.37000e+02
648	1.35385e+02	6.48000e+02	1.03359e+00	1.38000e+02
649	1.36389e+02	6.49000e+02	1.03358e+00	1.39000e+02
650	1.37384e+02	6.50000e+02	1.03358e+00	1.40000e+02
651	1.38394e+02	6.51000e+02	1.03357e+00	1.41000e+02
652	1.39376e+02	6.52000e+02	1.03359e+00	1.42000e+02
653	1.40398e+02	6.53000e+02	1.03360e+00	1.43000e+02
654	1.41390e+02	6.54000e+02	1.03361e+00	1.44000e+02
655	1.42381e+02	6.55000e+02	1.03362e+00	1.45000e+02
656	1.43383e+02	6.56000e+02	1.03363e+00	1.46000e+02
657	1.44391e+02	6.57000e+02	1.03364e+00	1.47000e+02
658	1.45372e+02	6.58000e+02	1.03365e+00	1.48000e+02
659	1.46362e+02	6.59000e+02	1.03365e+00	1.49000e+02
660	1.47358e+02	6.60000e+02	1.03366e+00	1.50000e+02
661	1.48359e+02	6.61000e+02	1.03366e+00	1.51000e+02
662	1.49356e+02	6.62000e+02	1.03367e+00	1.52000e+02
663	1.50351e+02	6.63000e+02	1.03367e+00	1.53000e+02
664	1.51337e+02	6.64000e+02	1.03367e+00	1.54000e+02
665	1.52333e+02	6.65000e+02	1.03366e+00	1.55000e+02
666	1.53322e+02	6.66000e+02	1.03365e+00	1.56000e+02
667	1.54331e+02	6.67000e+02	1.03364e+00	1.57000e+02
668	1.55317e+02	6.68000e+02	1.03362e+00	1.58000e+02
669	1.56316e+02	6.69000e+02	1.03360e+00	1.59000e+02
670	1.57307e+02	6.70000e+02	1.03359e+00	1.60000e+02
671	1.58285e+02	6.71000e+02	1.03357e+00	1.61000e+02
672	1.59283e+02	6.72000e+02	1.03356e+00	1.62000e+02
673	1.60289e+02	6.73000e+02	1.03354e+00	1.63000e+02
674	1.61270e+02	6.74000e+02	1.03352e+00	1.64000e+02
675	1.62270e+02	6.75000e+02	1.03350e+00	1.65000e+02
676	1.63254e+02	6.76000e+02	1.03349e+00	1.66000e+02
677	1.64251e+02	6.77000e+02	1.03347e+00	1.67000e+02
678	1.65245e+02	6.78000e+02	1.03345e+00	1.68000e+02
679	1.66228e+02	6.79000e+02	1.03344e+00	1.69000e+02
680	1.67225e+02	6.80000e+02	1.03343e+00	1.70000e+02
681	1.68210e+02	6.81000e+02	1.03342e+00	1.71000e+02
682	1.69211e+02	6.82000e+02	1.03341e+00	1.72000e+02
683	1.70193e+02	6.83000e+02	1.03341e+00	1.73000e+02
684	1.71192e+02	6.84000e+02	1.03341e+00	1.74000e+02
685	1.72178e+02	6.85000e+02	1.03341e+00	1.75000e+02
686	1.73173e+02	6.86000e+02	1.03340e+00	1.76000e+02
687	1.74169e+02	6.87000e+02	1.03339e+00	1.77000e+02
688	1.75163e+02	6.88000e+02	1.03337e+00	1.78000e+02
689	1.76164e+02	6.89000e+02	1.03334e+00	1.79000e+02
690	1.77147e+02	6.90000e+02	1.03330e+00	1.80000e+02
691	1.78139e+02	6.91000e+02	1.03327e+00	1.81000e+02
692	1.79141e+02	6.92000e+02	1.03321e+00	1.82000e+02
693	1.80128e+02	6.93000e+02	1.03317e+00	1.83000e+02
694	1.81125e+02	6.94000e+02	1.03313e+00	1.84000e+02
695	1.82097e+02	6.95000e+02	1.03310e+00	1.85000e+02
696	1.83098e+02	6.96000e+02	1.03308e+00	1.86000e+02
697	1.84090e+02	6.97000e+02	1.03306e+00	1.87000e+02
698	1.85088e+02	6.98000e+02	1.03303e+00	1.88000e+02
699	1.86072e+02	6.99000e+02	1.03301e+00	1.89000e+02
700	1.87061e+02	7.00000e+02	1.03298e+00	1.90000e+02
701	1.88062e+02	7.01000e+02	1.03294e+00	1.91000e+02
702	1.89057e+02	7.02000e+02	1.03290e+00	1.92000e+02
703	1.90042e+02	7.03000e+02	1.03286e+00	1.93000e+02
704	1.91039e+02	7.04000e+02	1.03280e+00	1.94000e+02
705	1.92038e+02	7.05000e+02	1.03274e+00	1.95000e+02
706	1.93032e+02	7.06000e+02	1.03268e+00	1.96000e+02
707	1.94022e+02	7.07000e+02	1.03262e+00	1.97000e+02
708	1.95023e+02	7.08000e+02	1.03254e+00	1.98000e+02
709	1.96015e+02	7.09000e+02	1.03247e+00	1.99000e+02
710	1.97005e+02	7.10000e+02	1.03239e+00	2.00000e+02
711	1.98007e+02	7.11000e+02	1.03232e+00	2.01000e+02
712	1.99002e+02	7.12000e+02	1.03222e+00	2.02000e+02
713	1.99996e+02	7.13000e+02	1.03213e+00	2.03000e+02
714	2.01001e+02	7.14000e+02	1.03204e+00	2.04000e+02
715	2.01990e+02	7.15000e+02	1.03194e+00	2.05000e+02
716	2.02986e+02	7.16000e+02	1.03182e+00	2.06000e+02
717	2.03994e+02	7.17000e+02	1.03169e+00	2.07000e+02
718	2.04980e+02	7.18000e+02	1.03156e+00	2.08000e+02
719	2.05979e+02	7.19000e+02	1.03141e+00	2.09000e+02
720	2.06982e+02	7.20000e+02	1.03123e+00	2.10000e+02
721	2.07973e+02	7.21000e+02	1.03105e+00	2.11000e+02
722	2.08965e+02	7.22000e+02	1.03086e+00	2.12000e+02
723	2.09977e+02	7.23000e+02	1.03067e+00	2.13000e+02
724	2.10961e+02	7.24000e+02	1.03045e+00	2.14000e+02
725	2.11958e+02	7.25000e+02	1.03024e+00	2.15000e+02
726	2.12955e+02	7.26000e+02	1.03004e+00	2.16000e+02
727	2.13951e+02	7.27000e+02	1.02983e+00	2.17000e+02
728	2.14941e+02	7.28000e+02	1.02962e+00	2.18000e+02
729	2.15928e+02	7.29000e+02	1.02940e+00	2.19000e+02
730	2.16930e+02	7.30000e+02	1.02918e+00	2.20000e+02
731	2.17931e+02	7.31000e+02	1.02895e+00	2.21000e+02
732	2.18919e+02	7.32000e+02	1.02870e+00	2.22000e+02
733	2.19917e+02	7.33000e+02	1.02846e+00	2.23000e+02
734	2.20916e+02	7.34000e+02	1.02821e+00	2.24000e+02
735	2.21904e+02	7.35000e+02	1.02796e+00	2.25000e+02
736	2.22904e+02	7.36000e+02	1.02769e+00	2.26000e+02
737	2.23903e+02	7.37000e+02	1.02743e+00	2.27000e+02
738	2.24898e+02	7.38000e+02	1.02717e+00	2.28000e+02
739	2.25896e+02	7.39000e+02	1.02691e+00	2.29000e+02
740	2.26888e+02	7.40000e+02	1.02667e+00	2.30000e+02
741	2.27870e+02	7.41000e+02	1.02642e+00	2.31000e+02
742	2.28875e+02	7.42000e+02	1.02618e+00	2.32000e+02
743	2.29869e+02	7.43000e+02	1.02594e+00	2.33000e+02
744	2.30872e+02	7.44000e+02	1.02570e+00	2.34000e+02
745	2.31878e+02	7.45000e+02	1.02546e+00	2.35000e+02
746	2.32871e+02	7.46000e+02	1.02522e+00	2.36000e+02
747	2.33872e+02	7.47000e+02	1.02497e+00	2.37000e+02
748	2.34876e+02	7.48000e+02	1.02472e+00	2.38000e+02
749	2.35886e+02	7.49000e+02	1.02447e+00	2.39000e+02
750	2.36882e+02	7.50000e+02	1.02421e+00	2.40000e+02
751	2.37884e+02	7.51000e+02	1.02394e+00	2.41000e+02
752	2.38896e+02	7.52000e+02	1.02365e+00	2.42000e+02
753	2.39901e+02	7.53000e+02	1.02336e+00	2.43000e+02
754	2.40910e+02	7.54000e+02	1.02306e+00	2.44000e+02
755	2.41905e+02	7.55000e+02	1.02275e+00	2.45000e+02
756	2.42900e+02	7.56000e+02	1.02244e+00	2.46000e+02
757	2.43904e+02	7.57000e+02	1.02217e+00	2.47000e+02
758	2.44899e+02	7.58000e+02	1.02192e+00	2.48000e+02
759	2.45899e+02	7.59000e+02	1.02169e+00	2.49000e+02
760	2.46900e+02	7.60000e+02	1.02153e+00	2.50000e+02
761	2.47905e+02	7.61000e+02	1.02133e+00	2.51000e+02
762	2.48910e+02	7.62000e+02	1.02111e+00	2.52000e+02
763	2.49916e+02	7.63000e+02	1.02088e+00	2.53000e+02
764	2.50934e+02	7.64000e+02	1.02062e+00	2.54000e+02
765	2.51929e+02	7.65000e+02	1.02034e+00	2.55000e+02
766	2.52950e+02	7.66000e+02	1.02005e+00	2.56000e+02
767	2.53973e+02	7.67000e+02	1.01975e+00	2.57000e+02
768	2.54998e+02	7.68000e+02	1.01939e+00	2.58000e+02
769	2.56020e+02	7.69000e+02	1.01905e+00	2.59000e+02
770	2.57064e+02	7.70000e+02	1.01873e+00	2.60000e+02
771	2.58100e+02	7.71000e+02	1.01840e+00	2.61000e+02
772	2.59114e+02	7.72000e+02	1.01808e+00	2.62000e+02
773	2.60147e+02	7.73000e+02	1.01776e+00	2.63000e+02
774	2.61171e+02	7.74000e+02	1.01744e+00	2.64000e+02
775	2.62183e+02	7.75000e+02	1.01711e+00	2.65000e+02
776	2.63205e+02	7.76000e+02	1.01679e+00	2.66000e+02
777	2.64231e+02	7.77000e+02	1.01646e+00	2.67000e+02
778	2.65248e+02	7.78000e+02	1.01613e+00	2.68000e+02
779	2.66263e+02	7.79000e+02	1.01580e+00	2.69000e+02
780	2.67299e+02	7.80000e+02	1.01547e+00	2.70000e+02
781	2.68344e+02	7.81000e+02	1.01514e+00	2.71000e+02
782	2.69369e+02	7.82000e+02	1.01480e+00	2.72000e+02
783	2.70398e+02	7.83000e+02	1.01446e+00	2.73000e+02
784	2.71414e+02	7.84000e+02	1.01411e+00	2.74000e+02
785	2.72434e+02	7.85000e+02	1.01376e+00	2.75000e+02
786	2.73443e+02	7.86000e+02	1.01341e+00	2.76000e+02
787	2.74436e+02	7.87000e+02	1.01306e+00	2.77000e+02
788	2.75435e+02	7.88000e+02	1.01270e+00	2.78000e+02
789	2.76442e+02	7.89000e+02	1.01235e+00	2.79000e+02
790	2.77461e+02	7.90000e+02	1.01200e+00	2.80000e+02
791	2.78460e+02	7.91000e+02	1.01166e+00	2.81000e+02
792	2.79476e+02	7.92000e+02	1.01132e+00	2.82000e+02
793	2.80494e+02	7.93000e+02	1.01098e+00	2.83000e+02
794	2.81527e+02	7.94000e+02	1.01064e+00	2.84000e+02
795	2.82579e+02	7.95000e+02	1.01029e+00	2.85000e+02
796	2.83614e+02	7.96000e+02	1.00992e+00	2.86000e+02
797	2.84631e+02	7.97000e+02	1.00956e+00	2.87000e+02
798	2.85644e+02	7.98000e+02	1.00918e+00	2.88000e+02
799	2.86660e+02	7.99000e+02	1.00879e+00	2.89000e+02
800	2.87690e+02	8.00000e+02	1.00837e+00	2.90000e+02
801	2.88713e+02	8.01000e+02	1.00794e+00	2.91000e+02
802	2.89728e+02	8.02000e+02	1.00750e+00	2.92000e+02
803	2.90751e+02	8.03000e+02	1.00705e+00	2.93000e+02
804	2.91751e+02	8.04000e+02	1.00655e+00	2.94000e+02
805	2.92745e+02	8.05000e+02	1.00605e+00	2.95000e+02
806	2.93766e+02	8.06000e+02	1.00554e+00	2.96000e+02
807	2.94787e+02	8.07000e+02	1.00501e+00	2.97000e+02
808	2.95798e+02	8.08000e+02	1.00443e+00	2.98000e+02
809	2.96809e+02	8.09000e+02	1.00387e+00	2.99000e+02
810	2.97827e+02	8.10000e+02	1.00330e+00	3.00000e+02
811	2.98832e+02	8.11000e+02	1.00274e+00	3.01000e+02
812	2.99857e+02	8.12000e+02	1.00216e+00	3.02000e+02
813	3.00875e+02	8.13000e+02	1.00159e+00	3.03000e+02
814	3.01892e+02	8.14000e+02	1.00103e+00	3.04000e+02
815	3.02933e+02	8.15000e+02	1.00047e+00	3.05000e+02
816	3.03944e+02	8.16000e+02	9.99910e-01	3.06000e+02
817	3.04973e+02	8.17000e+02	9.99339e-01	3.07000e+02
818	3.05995e+02	8.18000e+02	9.98757e-01	3.08000e+02
819	3.07009e+02	8.19000e+02	9.98166e-01	3.09000e+02
820	3.08024e+02	8.20000e+02	9.97535e-01	3.10000e+02
821	3.09040e+02	8.21000e+02	9.96893e-01	3.11000e+02
822	3.10044e+02	8.22000e+02	9.96229e-01	3.12000e+02
823	3.11059e+02	8.23000e+02	9.95548e-01	3.13000e+02
824	3.12068e+02	8.24000e+02	9.94785e-01	3.14000e+02
825	3.13076e+02	8.25000e+02	9.94034e-01	3.15000e+02
826	3.14075e+02	8.26000e+02	9.93270e-01	3.16000e+02
827	3.15073e+02	8.27000e+02	9.92493e-01	3.17000e+02
828	3.16091e+02	8.28000e+02	9.91645e-01	3.18000e+02
829	3.17075e+02	8.29000e+02	9.90813e-01	3.19000e+02
830	3.18092e+02	8.30000e+02	9.89969e-01	3.20000e+02
831	3.19102e+02	8.31000e+02	9.89113e-01	3.21000e+02
832	3.20108e+02	8.32000e+02	9.88202e-01	3.22000e+02
833	3.21134e+02	8.33000e+02	9.87295e-01	3.23000e+02
834	3.22143e+02	8.34000e+02	9.86374e-01	3.24000e+02
835	3.23145e+02	8.35000e+02	9.85441e-01	3.25000e+02
836	3.24158e+02	8.36000e+02	9.84443e-01	3.26000e+02
837	3.25199e+02	8.37000e+02	9.83456e-01	3.27000e+02
838	3.26201e+02	8.38000e+02	9.82456e-01	3.28000e+02
839	3.27238e+02	8.39000e+02	9.81446e-01	3.29000e+02
840	3.28269e+02	8.40000e+02	9.80377e-01	3.30000e+02
841	3.29281e+02	8.41000e+02	9.79321e-01	3.31000e+02
842	3.30329e+02	8.42000e+02	9.78259e-01	3.32000e+02
843	3.31328e+02	8.43000e+02	9.77190e-01	3.33000e+02
844	3.32344e+02	8.44000e+02	9.76081e-01	3.34000e+02
845	3.33354e+02	8.45000e+02	9.74979e-01	3.35000e+02
846	3.34355e+02	8.46000e+02	9.73869e-01	3.36000e+02
847	3.35380e+02	8.47000e+02	9.72751e-01	3.37000e+02
848	3.36390e+02	8.48000e+02	9.71589e-01	3.38000e+02
849	3.37377e+02	8.49000e+02	9.70419e-01	3.39000e+02
850	3.38400e+02	8.50000e+02	9.69225e-01	3.40000e+02
851	3.39438e+02	8.51000e+02	9.68012e-01	3.41000e+02
852	3.40478e+02	8.52000e+02	9.66701e-01	3.42000e+02
853	3.41482e+02	8.53000e+02	9.65385e-01	3.43000e+02
854	3.42494e+02	8.54000e+02	9.64032e-01	3.44000e+02
855	3.43516e+02	8.55000e+02	9.62649e-01	3.45000e+02
856	3.44534e+02	8.56000e+02	9.61107e-01	3.46000e+02
857	3.45558e+02	8.57000e+02	9.59576e-01	3.47000e+02
858	3.46571e+02	8.58000e+02	9.57998e-01	3.48000e+02
859	3.47589e+02	8.59000e+02	9.56379e-01	3.49000e+02
860	3.48609e+02	8.60000e+02	9.54545e-01	3.50000e+02
861	3.49604e+02	8.61000e+02	9.52714e-01	3.51000e+02
862	3.50628e+02	8.62000e+02	9.50808e-01	3.52000e+02
863	3.51639e+02	8.63000e+02	9.48838e-01	3.53000e+02
864	3.52669e+02	8.64000e+02	9.46550e-01	3.54000e+02
865	3.53681e+02	8.65000e+02	9.44268e-01	3.55000e+02
866	3.54699e+02	8.66000e+02	9.41883e-01	3.56000e+02
867	3.55687e+02	8.67000e+02	9.39406e-01	3.57000e+02
868	3.56708e+02	8.68000e+02	9.36459e-01	3.58000e+02
869	3.57717e+02	8.69000e+02	9.33520e-01	3.59000e+02
870	3.58746e+02	8.70000e+02	9.30427e-01	3.60000e+02
871	3.59776e+02	8.71000e+02	9.27199e-01	3.61000e+02
872	3.60792e+02	8.72000e+02	9.23303e-01	3.62000e+02
873	3.61801e+02	8.73000e+02	9.19445e-01	3.63000e+02
874	3.62797e+02	8.74000e+02	9.15396e-01	3.64000e+02
875	3.63809e+02	8.75000e+02	9.11179e-01	3.65000e+02
876	3.64854e+02	8.76000e+02	9.06089e-01	3.66000e+02
877	3.65848e+02	8.77000e+02	9.01054e-01	3.67000e+02
878	3.66890e+02	8.78000e+02	8.95765e-01	3.68000e+02
879	3.67907e+02	8.79000e+02	8.90253e-01	3.69000e+02
880	3.68916e+02	8.80000e+02	8.83625e-01	3.70000e+02
881	3.69892e+02	8.81000e+02	8.77074e-01	3.71000e+02
882	3.70874e+02	8.82000e+02	8.70232e-01	3.72000e+02
883	3.71886e+02	8.83000e+02	8.63131e-01	3.73000e+02
884	3.72948e+02	8.84000e+02	8.54691e-01	3.74000e+02
885	3.73988e+02	8.85000e+02	8.46394e-01	3.75000e+02
886	3.75020e+02	8.86000e+02	8.37773e-01	3.76000e+02
887	3.76082e+02	8.87000e+02	8.28855e-01	3.77000e+02
888	3.77180e+02	8.88000e+02	8.18458e-01	3.78000e+02
889	3.78379e+02	8.89000e+02	8.08214e-01	3.79000e+02
890	3.79421e+02	8.90000e+02	7.97630e-01	3.80000e+02
891	3.80488e+02	8.91000e+02	7.86743e-01	3.81000e+02
892	3.81494e+02	8.92000e+02	7.74285e-01	3.82000e+02
893	3.82505e+02	8.93000e+02	7.62065e-01	3.83000e+02
894	3.83532e+02	8.94000e+02	7.49541e-01	3.84000e+02
895	3.84550e+02	8.95000e+02	7.36729e-01	3.85000e+02
896	3.85487e+02	8.96000e+02	7.22437e-01	3.86000e+02
897	3.86420e+02	8.97000e+02	7.08369e-01	3.87000e+02
898	3.87372e+02	8.98000e+02	6.94024e-01	3.88000e+02
899	3.88333e+02	8.99000e+02	6.79419e-01	3.89000e+02
900	3.89315e+02	9.00000e+02	6.63470e-01	3.90000e+02
901	3.90219e+02	9.01000e+02	6.47755e-01	3.91000e+02
902	3.91132e+02	9.02000e+02	6.31810e-01	3.92000e+02
903	3.92118e+02	9.03000e+02	6.15636e-01	3.93000e+02
904	3.93066e+02	9.04000e+02	5.98289e-01	3.94000e+02
905	3.94046e+02	9.05000e+02	5.81129e-01	3.95000e+02
906	3.95025e+02	9.06000e+02	5.63782e-01	3.96000e+02
907	3.96009e+02	9.07000e+02	5.46259e-01	3.97000e+02
908	3.96995e+02	9.08000e+02	5.27815e-01	3.98000e+02
909	3.97980e+02	9.09000e+02	5.09655e-01	3.99000e+02
910	3.98986e+02	9.10000e+02	4.91469e-01	4.00000e+02
911	3.99974e+02	9.11000e+02	4.73231e-01	4.01000e+02
912	4.00995e+02	9.12000e+02	4.54671e-01	4.02000e+02
913	4.02000e+02	9.13000e+02	4.36311e-01	4.03000e+02
914	4.03005e+02	9.14000e+02	4.18015e-01	4.04000e+02
915	4.04002e+02	9.15000e+02	3.99752e-01	4.05000e+02
916	4.05023e+02	9.16000e+02	3.81666e-01	4.06000e+02
917	4.06068e+02	9.17000e+02	3.63622e-01	4.07000e+02
918	4.07073e+02	9.18000e+02	3.45692e-01	4.08000e+02
919	4.08115e+02	9.19000e+02	3.27856e-01	4.09000e+02
920	4.09145e+02	9.20000e+02	3.10502e-01	4.10000e+02
921	4.10243e+02	9.21000e+02	2.93206e-01	4.11000e+02
922	4.11277e+02	9.22000e+02	2.76138e-01	4.12000e+02
923	4.12247e+02	9.23000e+02	2.59261e-01	4.13000e+02
924	4.13223e+02	9.24000e+02	2.43371e-01	4.14000e+02
925	4.14110e+02	9.25000e+02	2.27516e-01	4.15000e+02
926	4.15061e+02	9.26000e+02	2.12031e-01	4.16000e+02
927	4.16035e+02	9.27000e+02	1.96857e-01	4.17000e+02
928	4.17016e+02	9.28000e+02	1.83250e-01	4.18000e+02
929	4.17988e+02	9.29000e+02	1.69560e-01	4.19000e+02
930	4.18907e+02	9.30000e+02	1.56305e-01	4.20000e+02
931	4.19856e+02	9.31000e+02	1.43427e-01	4.21000e+02
932	4.20841e+02	9.32000e+02	1.32504e-01	4.22000e+02
933	4.21851e+02	9.33000e+02	1.21364e-01	4.23000e+02
934	4.22884e+02	9.34000e+02	1.10670e-01	4.24000e+02
935	4.23868e+02	9.35000e+02	1.00376e-01	4.25000e+02
936	4.24872e+02	9.36000e+02	9.21327e-02	4.26000e+02
937	4.25879e+02	9.37000e+02	8.35909e-02	4.27000e+02
938	4.26852e+02	9.38000e+02	7.54439e-02	4.28000e+02
939	4.27834e+02	9.39000e+02	6.76631e-02	4.29000e+02
940	4.28797e+02	9.40000e+02	6.17772e-02	4.30000e+02
941	4.29783e+02	9.41000e+02	5.55511e-02	4.31000e+02
942	4.30771e+02	9.42000e+02	4.96380e-02	4.32000e+02
943	4.31788e+02	9.43000e+02	4.40295e-02	4.33000e+02
944	4.32834e+02	9.44000e+02	3.99849e-02	4.34000e+02
945	4.33875e+02	9.45000e+02	3.56423e-02	4.35000e+02
946	4.34870e+02	9.46000e+02	3.15380e-02	4.36000e+02
947	4.35793e+02	9.47000e+02	2.76710e-02	4.37000e+02
948	4.36731e+02	9.48000e+02	2.50335e-02	4.38000e+02
949	4.37777e+02	9.49000e+02	2.21431e-02	4.39000e+02
950	4.38717e+02	9.50000e+02	1.94231e-02	4.40000e+02
951	4.39975e+02	9.51000e+02	1.68769e-02	4.41000e+02
952	4.41216e+02	9.52000e+02	1.52281e-02	4.42000e+02
953	4.42514e+02	9.53000e+02	1.33765e-02	4.43000e+02
954	4.43938e+02	9.54000e+02	1.16336e-02	4.44000e+02
955	4.44987e+02	9.55000e+02	1.00068e-02	4.45000e+02
956	4.45951e+02	9.56000e+02	8.98180e-03	4.46000e+02
957	4.47013e+02	9.57000e+02	7.81221e-03	4.47000e+02
958	4.48350e+02	9.58000e+02	6.70724e-03	4.48000e+02
959	4.49500e+02	9.59000e+02	5.67454e-03	4.49000e+02
960	4.50669e+02	9.60000e+02	5.01473e-03	4.50000e+02
961	4.51881e+02	9.61000e+02	4.25725e-03	4.51000e+02
962	4.52982e+02	9.62000e+02	3.53512e-03	4.52000e+02
963	4.53973e+02	9.63000e+02	2.85568e-03	4.53000e+02
964	4.54891e+02	9.64000e+02	2.39581e-03	4.54000e+02
965	4.55870e+02	9.65000e+02	1.88516e-03	4.55000e+02
966	4.56901e+02	9.66000e+02	1.40055e-03	4.56000e+02
967	4.57912e+02	9.67000e+02	9.43727e-04	4.57000e+02
968	4.58862e+02	9.68000e+02	6.28070e-04	4.58000e+02
969	4.59871e+02	9.69000e+02	2.77992e-04	4.59000e+02
970	4.60913e+02	9.70000e+02	-5.73865e-05	4.60000e+02
971	4.61928e+02	9.71000e+02	-3.75571e-04	4.61000e+02
972	4.62871e+02	9.72000e+02	-5.97680e-04	4.62000e+02
973	4.63743e+02	9.73000e+02	-8.35968e-04	4.63000e+02
974	4.64633e+02	9.74000e+02	-1.05749e-03	4.64000e+02
975	4.65720e+02	9.75000e+02	-1.26298e-03	4.65000e+02
976	4.66795e+02	9.76000e+02	-1.39133e-03	4.66000e+02
977	4.67581e+02	9.77000e+02	-1.53614e-03	4.67000e+02
978	4.68382e+02	9.78000e+02	-1.67324e-03	4.68000e+02
979	4.69231e+02	9.79000e+02	-1.80237e-03	4.69000e+02
980	4.70118e+02	9.80000e+02	-1.88052e-03	4.70000e+02
981	4.71083e+02	9.81000e+02	-1.97254e-03	4.71000e+02
982	4.72044e+02	9.82000e+02	-2.05771e-03	4.72000e+02
983	4.73038e+02	9.83000e+02	-2.13470e-03	4.73000e+02
984	4.74011e+02	9.84000e+02	-2.18006e-03	4.74000e+02
985	4.74911e+02	9.85000e+02	-2.22949e-03	4.75000e+02
986	4.75816e+02	9.86000e+02	-2.27504e-03	4.76000e+02
987	4.76731e+02	9.87000e+02	-2.31742e-03	4.77000e+02
988	4.77789e+02	9.88000e+02	-2.33623e-03	4.78000e+02
989	4.78857e+02	9.89000e+02	-2.36710e-03	4.79000e+02
990	4.79890e+02	9.90000e+02	-2.39948e-03	4.80000e+02
991	4.80863e+02	9.91000e+02	-2.43105e-03	4.81000e+02
992	4.81927e+02	9.92000e+02	-2.46188e-03	4.82000e+02
993	4.82905e+02	9.93000e+02	-2.49179e-03	4.83000e+02
994	4.83863e+02	9.94000e+02	-2.52106e-03	4.84000e+02
995	4.84844e+02	9.95000e+02	-2.55016e-03	4.85000e+02
996	4.86075e+02	9.96000e+02	-2.57608e-03	4.86000e+02
997	4.86801e+02	9.97000e+02	-2.60248e-03	4.87000e+02
998	4.87654e+02	9.98000e+02	-2.62831e-03	4.88000e+02
999	4.88508e+02	9.99000e+02	-2.65377e-03	4.89000e+02
1000	4.89400e+02	1.00000e+03	-2.67768e-03	4.90000e+02
1001	4.90365e+02	1.00100e+03	-2.70124e-03	4.91000e+02
1002	4.91299e+02	1.00200e+03	-2.72298e-03	4.92000e+02
1003	4.92240e+02	1.00300e+03	-2.74281e-03	4.93000e+02
1004	4.93239e+02	1.00400e+03	-2.75631e-03	4.94000e+02
1005	4.94144e+02	1.00500e+03	-2.77094e-03	4.95000e+02
1006	4.94921e+02	1.00600e+03	-2.78861e-03	4.96000e+02
1007	4.95897e+02	1.00700e+03	-2.81019e-03	4.97000e+02
1008	4.96879e+02	1.00800e+03	-2.84490e-03	4.98000e+02
1009	4.97881e+02	1.00900e+03	-2.89170e-03	4.99000e+02
1010	4.98905e+02	1.01000e+03	-2.94424e-03	5.00000e+02
1011	4.99952e+02	1.01100e+03	-2.99647e-03	5.01000e+02
1012	5.01057e+02	1.01200e+03	-3.06241e-03	5.02000e+02
1013	5.02251e+02	1.01300e+03	-3.09893e-03	5.03000e+02
1014	5.03173e+02	1.01400e+03	-3.11769e-03	5.04000e+02
1015	5.04189e+02	1.01500e+03	-3.12706e-03	5.05000e+02
1016	5.05245e+02	1.01600e+03	-3.08928e-03	5.06000e+02
1017	5.06257e+02	1.01700e+03	-3.06947e-03	5.07000e+02
1018	5.07142e+02	1.01800e+03	-3.05372e-03	5.08000e+02
1019	5.08039e+02	1.01900e+03	-3.03981e-03	5.09000e+02
1020	5.08862e+02	1.02000e+03	-3.02151e-03	5.10000e+02
1021	5.09667e+02	1.02100e+03	-3.01702e-03	5.11000e+02
1022	5.10555e+02	1.02200e+03	-3.01858e-03	5.12000e+02
1023	5.11453e+02	1.02300e+03	-3.02163e-03	5.13000e+02
1024	5.12311e+02	1.02400e+03	-3.04224e-03	5.14000e+02
1025	5.13128e+02	1.02500e+03	-3.04836e-03	5.15000e+02
1026	5.14091e+02	1.02600e+03	-3.04903e-03	5.16000e+02
1027	5.15016e+02	1.02700e+03	-3.04679e-03	5.17000e+02
1028	5.15980e+02	1.02800e+03	-3.03328e-03	5.18000e+02
1029	5.16963e+02	1.02900e+03	-3.02918e-03	5.19000e+02
1030	5.17981e+02	1.03000e+03	-3.03235e-03	5.20000e+02
1031	5.19000e+02	1.03100e+03	-3.04020e-03	5.21000e+02
1032	5.20021e+02	1.03200e+03	-3.06112e-03	5.22000e+02
1033	5.21027e+02	1.03300e+03	-3.08550e-03	5.23000e+02
1034	5.22012e+02	1.03400e+03	-3.11466e-03	5.24000e+02
1035	5.23003e+02	1.03500e+03	-3.14680e-03	5.25000e+02
1036	5.23967e+02	1.03600e+03	-3.19797e-03	5.26000e+02
1037	5.24951e+02	1.03700e+03	-3.23557e-03	5.27000e+02
1038	5.25975e+02	1.03800e+03	-3.26757e-03	5.28000e+02
1039	5.26957e+02	1.03900e+03	-3.29683e-03	5.29000e+02
1040	5.27928e+02	1.04000e+03	-3.31455e-03	5.30000e+02
1041	5.28900e+02	1.04100e+03	-3.33270e-03	5.31000e+02
1042	5.29915e+02	1.04200e+03	-3.34907e-03	5.32000e+02
1043	5.30954e+02	1.04300e+03	-3.36492e-03	5.33000e+02
1044	5.32030e+02	1.04400e+03	-3.37133e-03	5.34000e+02
1045	5.33026e+02	1.04500e+03	-3.38243e-03	5.35000e+02
1046	5.34717e+02	1.04600e+03	-3.39396e-03	5.36000e+02
1047	5.35843e+02	1.04700e+03	-3.40538e-03	5.37000e+02
1048	5.36706e+02	1.04800e+03	-3.41869e-03	5.38000e+02
1049	5.37615e+02	1.04900e+03	-3.43058e-03	5.39000e+02
1050	5.38540e+02	1.05000e+03	-3.44128e-03	5.40000e+02
1051	5.39513e+02	1.05100e+03	-3.45096e-03	5.41000e+02
1052	5.40716e+02	1.05200e+03	-3.45899e-03	5.42000e+02
1053	5.41496e+02	1.05300e+03	-3.46749e-03	5.43000e+02
1054	5.42285e+02	1.05400e+03	-3.47609e-03	5.44000e+02
1055	5.43238e+02	1.05500e+03	-3.48505e-03	5.45000e+02
1056	5.44158e+02	1.05600e+03	-3.49624e-03	5.46000e+02
1057	5.45157e+02	1.05700e+03	-3.50945e-03	5.47000e+02
1058	5.46110e+02	1.05800e+03	-3.52348e-03	5.48000e+02
1059	5.47062e+02	1.05900e+03	-3.53803e-03	5.49000e+02
1060	5.48048e+02	1.06000e+03	-3.55357e-03	5.50000e+02
1061	5.49014e+02	1.06100e+03	-3.56170e-03	5.51000e+02
1062	5.49953e+02	1.06200e+03	-3.56254e-03	5.52000e+02
1063	5.50869e+02	1.06300e+03	-3.55799e-03	5.53000e+02
1064	5.51795e+02	1.06400e+03	-3.53234e-03	5.54000e+02
1065	5.52733e+02	1.06500e+03	-3.51011e-03	5.55000e+02
1066	5.53693e+02	1.06600e+03	-3.48694e-03	5.56000e+02
1067	5.54632e+02	1.06700e+03	-3.46305e-03	5.57000e+02
1068	5.55581e+02	1.06800e+03	-3.43035e-03	5.58000e+02
1069	5.56536e+02	1.06900e+03	-3.40953e-03	5.59000e+02
1070	5.57525e+02	1.07000e+03	-3.39265e-03	5.60000e+02
1071	5.58486e+02	1.07100e+03	-3.37716e-03	5.61000e+02
1072	5.59440e+02	1.07200e+03	-3.38001e-03	5.62000e+02
1073	5.60402e+02	1.07300e+03	-3.37901e-03	5.63000e+02
1074	5.61386e+02	1.07400e+03	-3.38036e-03	5.64000e+02
1075	5.62388e+02	1.07500e+03	-3.38386e-03	5.65000e+02
1076	5.63375e+02	1.07600e+03	-3.39840e-03	5.66000e+02
1077	5.64375e+02	1.07700e+03	-3.41050e-03	5.67000e+02
1078	5.65364e+02	1.07800e+03	-3.42299e-03	5.68000e+02
1079	5.66342e+02	1.07900e+03	-3.43588e-03	5.69000e+02
1080	5.67319e+02	1.08000e+03	-3.45446e-03	5.70000e+02
1081	5.68302e+02	1.08100e+03	-3.47002e-03	5.71000e+02
1082	5.69282e+02	1.08200e+03	-3.48502e-03	5.72000e+02
1083	5.70249e+02	1.08300e+03	-3.50036e-03	5.73000e+02
1084	5.71248e+02	1.08400e+03	-3.51403e-03	5.74000e+02
1085	5.72228e+02	1.08500e+03	-3.52612e-03	5.75000e+02
1086	5.73192e+02	1.08600e+03	-3.53556e-03	5.76000e+02
1087	5.74146e+02	1.08700e+03	-3.54276e-03	5.77000e+02
1088	5.75069e+02	1.08800e+03	-3.54490e-03	5.78000e+02
1089	5.76014e+02	1.08900e+03	-3.55004e-03	5.79000e+02
1090	5.76977e+02	1.09000e+03	-3.55827e-03	5.80000e+02
1091	5.77987e+02	1.09100e+03	-3.56858e-03	5.81000e+02
1092	5.79031e+02	1.09200e+03	-3.57930e-03	5.82000e+02
1093	5.80104e+02	1.09300e+03	-3.59108e-03	5.83000e+02
1094	5.81148e+02	1.09400e+03	-3.60292e-03	5.84000e+02
1095	5.82168e+02	1.09500e+03	-3.61488e-03	5.85000e+02
1096	5.83138e+02	1.09600e+03	-3.62980e-03	5.86000e+02
1097	5.84161e+02	1.09700e+03	-3.64021e-03	5.87000e+02
1098	5.85171e+02	1.09800e+03	-3.64829e-03	5.88000e+02
1099	5.86174e+02	1.09900e+03	-3.65485e-03	5.89000e+02
1100	5.87178e+02	1.10000e+03	-3.65231e-03	5.90000e+02
1101	5.88197e+02	1.10100e+03	-3.65203e-03	5.91000e+02
1102	5.89251e+02	1.10200e+03	-3.65126e-03	5.92000e+02
1103	5.90470e+02	1.10300e+03	-3.64933e-03	5.93000e+02
1104	5.91594e+02	1.10400e+03	-3.64358e-03	5.94000e+02
1105	5.92598e+02	1.10500e+03	-3.64135e-03	5.95000e+02
1106	5.93648e+02	1.10600e+03	-3.64078e-03	5.96000e+02
1107	5.94479e+02	1.10700e+03	-3.64137e-03	5.97000e+02
1108	5.95276e+02	1.10800e+03	-3.64723e-03	5.98000e+02
1109	5.96022e+02	1.10900e+03	-3.65304e-03	5.99000e+02
1110	5.96851e+02	1.11000e+03	-3.65963e-03	6.00000e+02
1111	5.97759e+02	1.11100e+03	-3.66680e-03	6.01000e+02
1112	5.98688e+02	1.11200e+03	-3.67870e-03	6.02000e+02
1113	5.99567e+02	1.11300e+03	-3.68872e-03	6.03000e+02
1114	6.00487e+02	1.11400e+03	-3.69982e-03	6.04000e+02
1115	6.01465e+02	1.11500e+03	-3.71205e-03	6.05000e+02
1116	6.02418e+02	1.11600e+03	-3.72615e-03	6.06000e+02
1117	6.03394e+02	1.11700e+03	-3.74124e-03	6.07000e+02
1118	6.04369e+02	1.11800e+03	-3.75829e-03	6.08000e+02
1119	6.05334e+02	1.11900e+03	-3.77712e-03	6.09000e+02
1120	6.06318e+02	1.12000e+03	-3.80201e-03	6.10000e+02
1121	6.07304e+02	1.12100e+03	-3.82394e-03	6.11000e+02
1122	6.08284e+02	1.12200e+03	-3.84383e-03	6.12000e+02
1123	6.09266e+02	1.12300e+03	-3.86204e-03	6.13000e+02
1124	6.10262e+02	1.12400e+03	-3.87626e-03	6.14000e+02
1125	6.11248e+02	1.12500e+03	-3.88653e-03	6.15000e+02
1126	6.12231e+02	1.12600e+03	-3.89372e-03	6.16000e+02
1127	6.13230e+02	1.12700e+03	-3.89957e-03	6.17000e+02
1128	6.14208e+02	1.12800e+03	-3.89673e-03	6.18000e+02
1129	6.15202e+02	1.12900e+03	-3.90511e-03	6.19000e+02
1130	6.16183e+02	1.13000e+03	-3.92444e-03	6.20000e+02
1131	6.17179e+02	1.13100e+03	-3.95242e-03	6.21000e+02
1132	6.18165e+02	1.13200e+03	-3.99928e-03	6.22000e+02
1133	6.19152e+02	1.13300e+03	-4.03196e-03	6.23000e+02
1134	6.20130e+02	1.13400e+03	-4.04899e-03	6.24000e+02
1135	6.21080e+02	1.13500e+03	-4.05418e-03	6.25000e+02
1136	6.22059e+02	1.13600e+03	-4.03036e-03	6.26000e+02
1137	6.23042e+02	1.13700e+03	-3.98571e-03	6.27000e+02
1138	6.24026e+02	1.13800e+03	-3.91863e-03	6.28000e+02
1139	6.25015e+02	1.13900e+03	-3.83707e-03	6.29000e+02
1140	6.26027e+02	1.14000e+03	-3.69417e-03	6.30000e+02
1141	6.27026e+02	1.14100e+03	-3.61147e-03	6.31000e+02
1142	6.28019e+02	1.14200e+03	-3.56815e-03	6.32000e+02
1143	6.29014e+02	1.14300e+03	-3.54925e-03	6.33000e+02
1144	6.30025e+02	1.14400e+03	-3.61451e-03	6.34000e+02
1145	6.31034e+02	1.14500e+03	-3.67491e-03	6.35000e+02
1146	6.32088e+02	1.14600e+03	-3.73922e-03	6.36000e+02
1147	6.33152e+02	1.14700e+03	-3.80478e-03	6.37000e+02
1148	6.34267e+02	1.14800e+03	-3.93042e-03	6.38000e+02
1149	6.35377e+02	1.14900e+03	-3.99920e-03	6.39000e+02
1150	6.36439e+02	1.15000e+03	-4.04707e-03	6.40000e+02
1151	6.37489e+02	1.15100e+03	-4.08649e-03	6.41000e+02
1152	6.38480e+02	1.15200e+03	-4.06417e-03	6.42000e+02
1153	6.39486e+02	1.15300e+03	-4.06896e-03	6.43000e+02
1154	6.40499e+02	1.15400e+03	-4.07606e-03	6.44000e+02
1155	6.41510e+02	1.15500e+03	-4.08133e-03	6.45000e+02
1156	6.42547e+02	1.15600e+03	-4.07444e-03	6.46000e+02
1157	6.43508e+02	1.15700e+03	-4.06973e-03	6.47000e+02
1158	6.44504e+02	1.15800e+03	-4.06327e-03	6.48000e+02
1159	6.45442e+02	1.15900e+03	-4.05525e-03	6.49000e+02
1160	6.46435e+02	1.16000e+03	-4.04141e-03	6.50000e+02
1161	6.47410e+02	1.16100e+03	-4.03099e-03	6.51000e+02
1162	6.48423e+02	1.16200e+03	-4.02260e-03	6.52000e+02
1163	6.49417e+02	1.16300e+03	-4.01537e-03	6.53000e+02
1164	6.50372e+02	1.16400e+03	-4.00987e-03	6.54000e+02
1165	6.51346e+02	1.16500e+03	-4.00451e-03	6.55000e+02
1166	6.52302e+02	1.16600e+03	-3.99989e-03	6.56000e+02
1167	6.53288e+02	1.16700e+03	-3.99647e-03	6.57000e+02
1168	6.54285e+02	1.16800e+03	-4.00005e-03	6.58000e+02
1169	6.55289e+02	1.16900e+03	-4.00333e-03	6.59000e+02
1170	6.56319e+02	1.17000e+03	-4.00824e-03	6.60000e+02
1171	6.57337e+02	1.17100e+03	-4.01431e-03	6.61000e+02
1172	6.58356e+02	1.17200e+03	-4.02587e-03	6.62000e+02
1173	6.59369e+02	1.17300e+03	-4.03453e-03	6.63000e+02
1174	6.60346e+02	1.17400e+03	-4.04204e-03	6.64000e+02
1175	6.61327e+02	1.17500e+03	-4.04854e-03	6.65000e+02
1176	6.62298e+02	1.17600e+03	-4.05311e-03	6.66000e+02
1177	6.63287e+02	1.17700e+03	-4.05659e-03	6.67000e+02
1178	6.64274e+02	1.17800e+03	-4.05824e-03	6.68000e+02
1179	6.65268e+02	1.17900e+03	-4.05841e-03	6.69000e+02
1180	6.66224e+02	1.18000e+03	-4.05035e-03	6.70000e+02
1181	6.67188e+02	1.18100e+03	-4.04304e-03	6.71000e+02
1182	6.68189e+02	1.18200e+03	-4.03386e-03	6.72000e+02
1183	6.69187e+02	1.18300e+03	-4.02259e-03	6.73000e+02
1184	6.70206e+02	1.18400e+03	-3.99675e-03	6.74000e+02
1185	6.70649e+02	1.18500e+03	-3.96807e-03	6.75000e+02
1186	6.71060e+02	1.18600e+03	-3.93353e-03	6.76000e+02
1187	6.71690e+02	1.18700e+03	-3.89595e-03	6.77000e+02
1188	6.72420e+02	1.18800e+03	-3.83387e-03	6.78000e+02
1189	6.73209e+02	1.18900e+03	-3.78390e-03	6.79000e+02
1190	6.73982e+02	1.19000e+03	-3.74779e-03	6.80000e+02
1191	6.74652e+02	1.19100e+03	-3.72386e-03	6.81000e+02
1192	6.75319e+02	1.19200e+03	-3.71535e-03	6.82000e+02
1193	6.75940e+02	1.19300e+03	-3.71957e-03	6.83000e+02
1194	6.76549e+02	1.19400e+03	-3.73479e-03	6.84000e+02
1195	6.77124e+02	1.19500e+03	-3.75531e-03	6.85000e+02
1196	6.77684e+02	1.19600e+03	-3.80837e-03	6.86000e+02
1197	6.78247e+02	1.19700e+03	-3.83487e-03	6.87000e+02
1198	6.78805e+02	1.19800e+03	-3.85381e-03	6.88000e+02
1199	6.79340e+02	1.19900e+03	-3.87010e-03	6.89000e+02
1200	6.79859e+02	1.20000e+03	-3.86804e-03	6.90000e+02
1201	6.80378e+02	1.20100e+03	-3.87527e-03	6.91000e+02
1202	6.80867e+02	1.20200e+03	-3.88381e-03	6.92000e+02
1203	6.81353e+02	1.20300e+03	-3.89205e-03	6.93000e+02
1204	6.81825e+02	1.20400e+03	-3.90241e-03	6.94000e+02
1205	6.82257e+02	1.20500e+03	-3.91199e-03	6.95000e+02
1206	6.82698e+02	1.20600e+03	-3.91840e-03	6.96000e+02
1207	6.83136e+02	1.20700e+03	-3.92200e-03	6.97000e+02
1208	6.83568e+02	1.20800e+03	-3.92519e-03	6.98000e+02
1209	6.83970e+02	1.20900e+03	-3.92714e-03	6.99000e+02
1210	6.84339e+02	1.21000e+03	-3.92770e-03	7.00000e+02