File: Experiments/TUBS/tga_nonisotherm/tga_dynamic_n2_dyn10_powder_2mg_r1.txt
index	ts	t	weight	tr
[#]	[°C]	[s]	[mg]	[°C]
843	1.30694e+02	8.43000e+02	2.01748e+00	1.30500e+02
847	1.31392e+02	8.47000e+02	2.01738e+00	1.31167e+02
851	1.32045e+02	8.51000e+02	2.01730e+00	1.31833e+02
855	1.32732e+02	8.55000e+02	2.01728e+00	1.32500e+02
859	1.33397e+02	8.59000e+02	2.01723e+00	1.33167e+02
863	1.34066e+02	8.63000e+02	2.01711e+00	1.33833e+02
867	1.34742e+02	8.67000e+02	2.01694e+00	1.34500e+02
871	1.35418e+02	8.71000e+02	2.01672e+00	1.35167e+02
875	1.36092e+02	8.75000e+02	2.01649e+00	1.35833e+02
879	1.36758e+02	8.79000e+02	2.01628e+00	1.36500e+02
883	1.37442e+02	8.83000e+02	2.01614e+00	1.37167e+02
887	1.38117e+02	8.87000e+02	2.01612e+00	1.37833e+02
891	1.38786e+02	8.91000e+02	2.01611e+00	1.38500e+02
895	1.39473e+02	8.95000e+02	2.01604e+00	1.39167e+02
899	1.40139e+02	8.99000e+02	2.01592e+00	1.39833e+02
903	1.40812e+02	9.03000e+02	2.01573e+00	1.40500e+02
907	1.41505e+02	9.07000e+02	2.01547e+00	1.41167e+02
911	1.42170e+02	9.11000e+02	2.01528e+00	1.41833e+02
915	1.42857e+02	9.15000e+02	2.01520e+00	1.42500e+02
919	1.43526e+02	9.19000e+02	2.01505e+00	1.43167e+02
923	1.44217e+02	9.23000e+02	2.01465e+00	1.43833e+02
927	1.44887e+02	9.27000e+02	2.01432e+00	1.44500e+02
931	1.45553e+02	9.31000e+02	2.01451e+00	1.45167e+02
935	1.46230e+02	9.35000e+02	2.01462e+00	1.45833e+02
939	1.46903e+02	9.39000e+02	2.01417e+00	1.46500e+02
943	1.47581e+02	9.43000e+02	2.01371e+00	1.47167e+02
947	1.48254e+02	9.47000e+02	2.01346e+00	1.47833e+02
951	1.48931e+02	9.51000e+02	2.01319e+00	1.48500e+02
955	1.49613e+02	9.55000e+02	2.01298e+00	1.49167e+02
959	1.50282e+02	9.59000e+02	2.01271e+00	1.49833e+02
963	1.50961e+02	9.63000e+02	2.01228e+00	1.50500e+02
967	1.51634e+02	9.67000e+02	2.01193e+00	1.51167e+02
971	1.52322e+02	9.71000e+02	2.01175e+00	1.51833e+02
975	1.52997e+02	9.75000e+02	2.01158e+00	1.52500e+02
979	1.53665e+02	9.79000e+02	2.01129e+00	1.53167e+02
983	1.54354e+02	9.83000e+02	2.01097e+00	1.53833e+02
987	1.55031e+02	9.87000e+02	2.01064e+00	1.54500e+02
991	1.55711e+02	9.91000e+02	2.01036e+00	1.55167e+02
995	1.56379e+02	9.95000e+02	2.01015e+00	1.55833e+02
999	1.57055e+02	9.99000e+02	2.00979e+00	1.56500e+02
1003	1.57733e+02	1.00300e+03	2.00933e+00	1.57167e+02
1007	1.58397e+02	1.00700e+03	2.00903e+00	1.57833e+02
1011	1.59082e+02	1.01100e+03	2.00879e+00	1.58500e+02
1015	1.59758e+02	1.01500e+03	2.00837e+00	1.59167e+02
1019	1.60441e+02	1.01900e+03	2.00796e+00	1.59833e+02
1023	1.61104e+02	1.02300e+03	2.00764e+00	1.60500e+02
1027	1.61807e+02	1.02700e+03	2.00734e+00	1.61167e+02
1031	1.62468e+02	1.03100e+03	2.00692e+00	1.61833e+02
1035	1.63138e+02	1.03500e+03	2.00635e+00	1.62500e+02
1039	1.63827e+02	1.03900e+03	2.00580e+00	1.63167e+02
1043	1.64492e+02	1.04300e+03	2.00535e+00	1.63833e+02
1047	1.65177e+02	1.04700e+03	2.00493e+00	1.64500e+02
1051	1.65863e+02	1.05100e+03	2.00445e+00	1.65167e+02
1055	1.66533e+02	1.05500e+03	2.00390e+00	1.65833e+02
1059	1.67215e+02	1.05900e+03	2.00328e+00	1.66500e+02
1063	1.67880e+02	1.06300e+03	2.00261e+00	1.67167e+02
1067	1.68563e+02	1.06700e+03	2.00196e+00	1.67833e+02
1071	1.69236e+02	1.07100e+03	2.00134e+00	1.68500e+02
1075	1.69928e+02	1.07500e+03	2.00059e+00	1.69167e+02
1079	1.70589e+02	1.07900e+03	1.99975e+00	1.69833e+02
1083	1.71286e+02	1.08300e+03	1.99898e+00	1.70500e+02
1087	1.71958e+02	1.08700e+03	1.99818e+00	1.71167e+02
1091	1.72632e+02	1.09100e+03	1.99679e+00	1.71833e+02
1095	1.73311e+02	1.09500e+03	1.99533e+00	1.72500e+02
1099	1.73979e+02	1.09900e+03	1.99445e+00	1.73167e+02
1103	1.74660e+02	1.10300e+03	1.99356e+00	1.73833e+02
1107	1.75335e+02	1.10700e+03	1.99241e+00	1.74500e+02
1111	1.76008e+02	1.11100e+03	1.99114e+00	1.75167e+02
1115	1.76700e+02	1.11500e+03	1.98978e+00	1.75833e+02
1119	1.77365e+02	1.11900e+03	1.98831e+00	1.76500e+02
1123	1.78044e+02	1.12300e+03	1.98687e+00	1.77167e+02
1127	1.78726e+02	1.12700e+03	1.98541e+00	1.77833e+02
1131	1.79411e+02	1.13100e+03	1.98386e+00	1.78500e+02
1135	1.80075e+02	1.13500e+03	1.98234e+00	1.79167e+02
1139	1.80760e+02	1.13900e+03	1.98087e+00	1.79833e+02
1143	1.81435e+02	1.14300e+03	1.97932e+00	1.80500e+02
1147	1.82114e+02	1.14700e+03	1.97769e+00	1.81167e+02
1151	1.82799e+02	1.15100e+03	1.97604e+00	1.81833e+02
1155	1.83466e+02	1.15500e+03	1.97437e+00	1.82500e+02
1159	1.84158e+02	1.15900e+03	1.97272e+00	1.83167e+02
1163	1.84824e+02	1.16300e+03	1.97100e+00	1.83833e+02
1167	1.85502e+02	1.16700e+03	1.96954e+00	1.84500e+02
1171	1.86174e+02	1.17100e+03	1.96813e+00	1.85167e+02
1175	1.86854e+02	1.17500e+03	1.96625e+00	1.85833e+02
1179	1.87539e+02	1.17900e+03	1.96462e+00	1.86500e+02
1183	1.88207e+02	1.18300e+03	1.96342e+00	1.87167e+02
1187	1.88879e+02	1.18700e+03	1.96212e+00	1.87833e+02
1191	1.89553e+02	1.19100e+03	1.96067e+00	1.88500e+02
1195	1.90238e+02	1.19500e+03	1.95929e+00	1.89167e+02
1199	1.90908e+02	1.19900e+03	1.95819e+00	1.89833e+02
1203	1.91591e+02	1.20300e+03	1.95721e+00	1.90500e+02
1207	1.92275e+02	1.20700e+03	1.95621e+00	1.91167e+02
1211	1.92957e+02	1.21100e+03	1.95516e+00	1.91833e+02
1215	1.93637e+02	1.21500e+03	1.95402e+00	1.92500e+02
1219	1.94320e+02	1.21900e+03	1.95302e+00	1.93167e+02
1223	1.95000e+02	1.22300e+03	1.95225e+00	1.93833e+02
1227	1.95671e+02	1.22700e+03	1.95152e+00	1.94500e+02
1231	1.96346e+02	1.23100e+03	1.95065e+00	1.95167e+02
1235	1.97020e+02	1.23500e+03	1.94976e+00	1.95833e+02
1239	1.97691e+02	1.23900e+03	1.94927e+00	1.96500e+02
1243	1.98373e+02	1.24300e+03	1.94906e+00	1.97167e+02
1247	1.99057e+02	1.24700e+03	1.94862e+00	1.97833e+02
1251	1.99731e+02	1.25100e+03	1.94801e+00	1.98500e+02
1255	2.00401e+02	1.25500e+03	1.94742e+00	1.99167e+02
1259	2.01078e+02	1.25900e+03	1.94688e+00	1.99833e+02
1263	2.01744e+02	1.26300e+03	1.94639e+00	2.00500e+02
1267	2.02428e+02	1.26700e+03	1.94605e+00	2.01167e+02
1271	2.03101e+02	1.27100e+03	1.94585e+00	2.01833e+02
1275	2.03779e+02	1.27500e+03	1.94558e+00	2.02500e+02
1279	2.04463e+02	1.27900e+03	1.94520e+00	2.03167e+02
1283	2.05116e+02	1.28300e+03	1.94481e+00	2.03833e+02
1287	2.05808e+02	1.28700e+03	1.94447e+00	2.04500e+02
1291	2.06476e+02	1.29100e+03	1.94411e+00	2.05167e+02
1295	2.07153e+02	1.29500e+03	1.94377e+00	2.05833e+02
1299	2.07826e+02	1.29900e+03	1.94351e+00	2.06500e+02
1303	2.08500e+02	1.30300e+03	1.94331e+00	2.07167e+02
1307	2.09176e+02	1.30700e+03	1.94306e+00	2.07833e+02
1311	2.09857e+02	1.31100e+03	1.94260e+00	2.08500e+02
1315	2.10534e+02	1.31500e+03	1.94200e+00	2.09167e+02
1319	2.11203e+02	1.31900e+03	1.94174e+00	2.09833e+02
1323	2.11883e+02	1.32300e+03	1.94189e+00	2.10500e+02
1327	2.12561e+02	1.32700e+03	1.94171e+00	2.11167e+02
1331	2.13232e+02	1.33100e+03	1.94111e+00	2.11833e+02
1335	2.13914e+02	1.33500e+03	1.94063e+00	2.12500e+02
1339	2.14581e+02	1.33900e+03	1.94034e+00	2.13167e+02
1343	2.15265e+02	1.34300e+03	1.94006e+00	2.13833e+02
1347	2.15933e+02	1.34700e+03	1.93973e+00	2.14500e+02
1351	2.16600e+02	1.35100e+03	1.93933e+00	2.15167e+02
1355	2.17289e+02	1.35500e+03	1.93896e+00	2.15833e+02
1359	2.17949e+02	1.35900e+03	1.93858e+00	2.16500e+02
1363	2.18623e+02	1.36300e+03	1.93814e+00	2.17167e+02
1367	2.19295e+02	1.36700e+03	1.93781e+00	2.17833e+02
1371	2.19980e+02	1.37100e+03	1.93756e+00	2.18500e+02
1375	2.20655e+02	1.37500e+03	1.93729e+00	2.19167e+02
1379	2.21309e+02	1.37900e+03	1.93702e+00	2.19833e+02
1383	2.21990e+02	1.38300e+03	1.93682e+00	2.20500e+02
1387	2.22668e+02	1.38700e+03	1.93671e+00	2.21167e+02
1391	2.23334e+02	1.39100e+03	1.93652e+00	2.21833e+02
1395	2.24008e+02	1.39500e+03	1.93617e+00	2.22500e+02
1399	2.24674e+02	1.39900e+03	1.93572e+00	2.23167e+02
1403	2.25356e+02	1.40300e+03	1.93534e+00	2.23833e+02
1407	2.26014e+02	1.40700e+03	1.93515e+00	2.24500e+02
1411	2.26683e+02	1.41100e+03	1.93499e+00	2.25167e+02
1415	2.27356e+02	1.41500e+03	1.93475e+00	2.25833e+02
1419	2.28041e+02	1.41900e+03	1.93453e+00	2.26500e+02
1423	2.28700e+02	1.42300e+03	1.93432e+00	2.27167e+02
1427	2.29385e+02	1.42700e+03	1.93415e+00	2.27833e+02
1431	2.30053e+02	1.43100e+03	1.93401e+00	2.28500e+02
1435	2.30711e+02	1.43500e+03	1.93384e+00	2.29167e+02
1439	2.31379e+02	1.43900e+03	1.93370e+00	2.29833e+02
1443	2.32057e+02	1.44300e+03	1.93362e+00	2.30500e+02
1447	2.32724e+02	1.44700e+03	1.93344e+00	2.31167e+02
1451	2.33398e+02	1.45100e+03	1.93324e+00	2.31833e+02
1455	2.34052e+02	1.45500e+03	1.93315e+00	2.32500e+02
1459	2.34722e+02	1.45900e+03	1.93298e+00	2.33167e+02
1463	2.35396e+02	1.46300e+03	1.93275e+00	2.33833e+02
1467	2.36074e+02	1.46700e+03	1.93260e+00	2.34500e+02
1471	2.36731e+02	1.47100e+03	1.93246e+00	2.35167e+02
1475	2.37399e+02	1.47500e+03	1.93230e+00	2.35833e+02
1479	2.38065e+02	1.47900e+03	1.93221e+00	2.36500e+02
1483	2.38747e+02	1.48300e+03	1.93214e+00	2.37167e+02
1487	2.39396e+02	1.48700e+03	1.93196e+00	2.37833e+02
1491	2.40077e+02	1.49100e+03	1.93185e+00	2.38500e+02
1495	2.40748e+02	1.49500e+03	1.93188e+00	2.39167e+02
1499	2.41406e+02	1.49900e+03	1.93186e+00	2.39833e+02
1503	2.42081e+02	1.50300e+03	1.93165e+00	2.40500e+02
1507	2.42747e+02	1.50700e+03	1.93139e+00	2.41167e+02
1511	2.43415e+02	1.51100e+03	1.93121e+00	2.41833e+02
1515	2.44087e+02	1.51500e+03	1.93106e+00	2.42500e+02
1519	2.44769e+02	1.51900e+03	1.93083e+00	2.43167e+02
1523	2.45437e+02	1.52300e+03	1.93074e+00	2.43833e+02
1527	2.46100e+02	1.52700e+03	1.93082e+00	2.44500e+02
1531	2.46750e+02	1.53100e+03	1.93072e+00	2.45167e+02
1535	2.47429e+02	1.53500e+03	1.93053e+00	2.45833e+02
1539	2.48098e+02	1.53900e+03	1.93042e+00	2.46500e+02
1543	2.48760e+02	1.54300e+03	1.93025e+00	2.47167e+02
1547	2.49434e+02	1.54700e+03	1.93003e+00	2.47833e+02
1551	2.50093e+02	1.55100e+03	1.92982e+00	2.48500e+02
1555	2.50770e+02	1.55500e+03	1.92966e+00	2.49167e+02
1559	2.51442e+02	1.55900e+03	1.92950e+00	2.49833e+02
1563	2.52114e+02	1.56300e+03	1.92930e+00	2.50500e+02
1567	2.52777e+02	1.56700e+03	1.92913e+00	2.51167e+02
1571	2.53457e+02	1.57100e+03	1.92896e+00	2.51833e+02
1575	2.54116e+02	1.57500e+03	1.92874e+00	2.52500e+02
1579	2.54783e+02	1.57900e+03	1.92851e+00	2.53167e+02
1583	2.55459e+02	1.58300e+03	1.92833e+00	2.53833e+02
1587	2.56130e+02	1.58700e+03	1.92819e+00	2.54500e+02
1591	2.56796e+02	1.59100e+03	1.92801e+00	2.55167e+02
1595	2.57468e+02	1.59500e+03	1.92786e+00	2.55833e+02
1599	2.58138e+02	1.59900e+03	1.92774e+00	2.56500e+02
1603	2.58808e+02	1.60300e+03	1.92750e+00	2.57167e+02
1607	2.59469e+02	1.60700e+03	1.92727e+00	2.57833e+02
1611	2.60137e+02	1.61100e+03	1.92713e+00	2.58500e+02
1615	2.60813e+02	1.61500e+03	1.92683e+00	2.59167e+02
1619	2.61475e+02	1.61900e+03	1.92647e+00	2.59833e+02
1623	2.62150e+02	1.62300e+03	1.92621e+00	2.60500e+02
1627	2.62811e+02	1.62700e+03	1.92599e+00	2.61167e+02
1631	2.63486e+02	1.63100e+03	1.92571e+00	2.61833e+02
1635	2.64159e+02	1.63500e+03	1.92539e+00	2.62500e+02
1639	2.64816e+02	1.63900e+03	1.92507e+00	2.63167e+02
1643	2.65475e+02	1.64300e+03	1.92477e+00	2.63833e+02
1647	2.66150e+02	1.64700e+03	1.92442e+00	2.64500e+02
1651	2.66816e+02	1.65100e+03	1.92404e+00	2.65167e+02
1655	2.67483e+02	1.65500e+03	1.92371e+00	2.65833e+02
1659	2.68144e+02	1.65900e+03	1.92333e+00	2.66500e+02
1663	2.68813e+02	1.66300e+03	1.92288e+00	2.67167e+02
1667	2.69480e+02	1.66700e+03	1.92242e+00	2.67833e+02
1671	2.70162e+02	1.67100e+03	1.92198e+00	2.68500e+02
1675	2.70817e+02	1.67500e+03	1.92153e+00	2.69167e+02
1679	2.71491e+02	1.67900e+03	1.92105e+00	2.69833e+02
1683	2.72165e+02	1.68300e+03	1.92063e+00	2.70500e+02
1687	2.72825e+02	1.68700e+03	1.92018e+00	2.71167e+02
1691	2.73482e+02	1.69100e+03	1.91969e+00	2.71833e+02
1695	2.74165e+02	1.69500e+03	1.91923e+00	2.72500e+02
1699	2.74832e+02	1.69900e+03	1.91871e+00	2.73167e+02
1703	2.75489e+02	1.70300e+03	1.91806e+00	2.73833e+02
1707	2.76162e+02	1.70700e+03	1.91735e+00	2.74500e+02
1711	2.76833e+02	1.71100e+03	1.91655e+00	2.75167e+02
1715	2.77498e+02	1.71500e+03	1.91568e+00	2.75833e+02
1719	2.78165e+02	1.71900e+03	1.91481e+00	2.76500e+02
1723	2.78837e+02	1.72300e+03	1.91402e+00	2.77167e+02
1727	2.79498e+02	1.72700e+03	1.91335e+00	2.77833e+02
1731	2.80164e+02	1.73100e+03	1.91263e+00	2.78500e+02
1735	2.80830e+02	1.73500e+03	1.91175e+00	2.79167e+02
1739	2.81499e+02	1.73900e+03	1.91077e+00	2.79833e+02
1743	2.82176e+02	1.74300e+03	1.90982e+00	2.80500e+02
1747	2.82845e+02	1.74700e+03	1.90889e+00	2.81167e+02
1751	2.83512e+02	1.75100e+03	1.90788e+00	2.81833e+02
1755	2.84176e+02	1.75500e+03	1.90678e+00	2.82500e+02
1759	2.84851e+02	1.75900e+03	1.90561e+00	2.83167e+02
1763	2.85523e+02	1.76300e+03	1.90443e+00	2.83833e+02
1767	2.86194e+02	1.76700e+03	1.90326e+00	2.84500e+02
1771	2.86857e+02	1.77100e+03	1.90202e+00	2.85167e+02
1775	2.87526e+02	1.77500e+03	1.90068e+00	2.85833e+02
1779	2.88190e+02	1.77900e+03	1.89929e+00	2.86500e+02
1783	2.88858e+02	1.78300e+03	1.89784e+00	2.87167e+02
1787	2.89532e+02	1.78700e+03	1.89633e+00	2.87833e+02
1791	2.90202e+02	1.79100e+03	1.89488e+00	2.88500e+02
1795	2.90865e+02	1.79500e+03	1.89339e+00	2.89167e+02
1799	2.91516e+02	1.79900e+03	1.89173e+00	2.89833e+02
1803	2.92173e+02	1.80300e+03	1.89000e+00	2.90500e+02
1807	2.92836e+02	1.80700e+03	1.88828e+00	2.91167e+02
1811	2.93489e+02	1.81100e+03	1.88648e+00	2.91833e+02
1815	2.94154e+02	1.81500e+03	1.88468e+00	2.92500e+02
1819	2.94823e+02	1.81900e+03	1.88298e+00	2.93167e+02
1823	2.95488e+02	1.82300e+03	1.88125e+00	2.93833e+02
1827	2.96151e+02	1.82700e+03	1.87933e+00	2.94500e+02
1831	2.96800e+02	1.83100e+03	1.87734e+00	2.95167e+02
1835	2.97472e+02	1.83500e+03	1.87537e+00	2.95833e+02
1839	2.98127e+02	1.83900e+03	1.87338e+00	2.96500e+02
1843	2.98787e+02	1.84300e+03	1.87137e+00	2.97167e+02
1847	2.99441e+02	1.84700e+03	1.86938e+00	2.97833e+02
1851	3.00102e+02	1.85100e+03	1.86731e+00	2.98500e+02
1855	3.00767e+02	1.85500e+03	1.86518e+00	2.99167e+02
1859	3.01425e+02	1.85900e+03	1.86299e+00	2.99833e+02
1863	3.02078e+02	1.86300e+03	1.86074e+00	3.00500e+02
1867	3.02736e+02	1.86700e+03	1.85855e+00	3.01167e+02
1871	3.03406e+02	1.87100e+03	1.85644e+00	3.01833e+02
1875	3.04053e+02	1.87500e+03	1.85429e+00	3.02500e+02
1879	3.04713e+02	1.87900e+03	1.85214e+00	3.03167e+02
1883	3.05382e+02	1.88300e+03	1.84998e+00	3.03833e+02
1887	3.06021e+02	1.88700e+03	1.84778e+00	3.04500e+02
1891	3.06676e+02	1.89100e+03	1.84557e+00	3.05167e+02
1895	3.07342e+02	1.89500e+03	1.84337e+00	3.05833e+02
1899	3.07996e+02	1.89900e+03	1.84113e+00	3.06500e+02
1903	3.08648e+02	1.90300e+03	1.83898e+00	3.07167e+02
1907	3.09311e+02	1.90700e+03	1.83692e+00	3.07833e+02
1911	3.09966e+02	1.91100e+03	1.83460e+00	3.08500e+02
1915	3.10616e+02	1.91500e+03	1.83214e+00	3.09167e+02
1919	3.11278e+02	1.91900e+03	1.82990e+00	3.09833e+02
1923	3.11942e+02	1.92300e+03	1.82769e+00	3.10500e+02
1927	3.12599e+02	1.92700e+03	1.82535e+00	3.11167e+02
1931	3.13261e+02	1.93100e+03	1.82295e+00	3.11833e+02
1935	3.13928e+02	1.93500e+03	1.82062e+00	3.12500e+02
1939	3.14585e+02	1.93900e+03	1.81833e+00	3.13167e+02
1943	3.15253e+02	1.94300e+03	1.81580e+00	3.13833e+02
1947	3.15902e+02	1.94700e+03	1.81308e+00	3.14500e+02
1951	3.16569e+02	1.95100e+03	1.81043e+00	3.15167e+02
1955	3.17231e+02	1.95500e+03	1.80772e+00	3.15833e+02
1959	3.17899e+02	1.95900e+03	1.80477e+00	3.16500e+02
1963	3.18571e+02	1.96300e+03	1.80179e+00	3.17167e+02
1967	3.19233e+02	1.96700e+03	1.79882e+00	3.17833e+02
1971	3.19896e+02	1.97100e+03	1.79571e+00	3.18500e+02
1975	3.20560e+02	1.97500e+03	1.79250e+00	3.19167e+02
1979	3.21226e+02	1.97900e+03	1.78915e+00	3.19833e+02
1983	3.21899e+02	1.98300e+03	1.78552e+00	3.20500e+02
1987	3.22554e+02	1.98700e+03	1.78167e+00	3.21167e+02
1991	3.23216e+02	1.99100e+03	1.77791e+00	3.21833e+02
1995	3.23887e+02	1.99500e+03	1.77411e+00	3.22500e+02
1999	3.24547e+02	1.99900e+03	1.76995e+00	3.23167e+02
2003	3.25208e+02	2.00300e+03	1.76560e+00	3.23833e+02
2007	3.25870e+02	2.00700e+03	1.76117e+00	3.24500e+02
2011	3.26545e+02	2.01100e+03	1.75643e+00	3.25167e+02
2015	3.27206e+02	2.01500e+03	1.75145e+00	3.25833e+02
2019	3.27857e+02	2.01900e+03	1.74642e+00	3.26500e+02
2023	3.28518e+02	2.02300e+03	1.74114e+00	3.27167e+02
2027	3.29184e+02	2.02700e+03	1.73552e+00	3.27833e+02
2031	3.29852e+02	2.03100e+03	1.72972e+00	3.28500e+02
2035	3.30515e+02	2.03500e+03	1.72358e+00	3.29167e+02
2039	3.31184e+02	2.03900e+03	1.71713e+00	3.29833e+02
2043	3.31844e+02	2.04300e+03	1.71067e+00	3.30500e+02
2047	3.32506e+02	2.04700e+03	1.70399e+00	3.31167e+02
2051	3.33176e+02	2.05100e+03	1.69657e+00	3.31833e+02
2055	3.33841e+02	2.05500e+03	1.68849e+00	3.32500e+02
2059	3.34510e+02	2.05900e+03	1.68031e+00	3.33167e+02
2063	3.35176e+02	2.06300e+03	1.67244e+00	3.33833e+02
2067	3.35823e+02	2.06700e+03	1.66435e+00	3.34500e+02
2071	3.36493e+02	2.07100e+03	1.65547e+00	3.35167e+02
2075	3.37154e+02	2.07500e+03	1.64589e+00	3.35833e+02
2079	3.37809e+02	2.07900e+03	1.63595e+00	3.36500e+02
2083	3.38467e+02	2.08300e+03	1.62579e+00	3.37167e+02
2087	3.39138e+02	2.08700e+03	1.61533e+00	3.37833e+02
2091	3.39799e+02	2.09100e+03	1.60446e+00	3.38500e+02
2095	3.40459e+02	2.09500e+03	1.59319e+00	3.39167e+02
2099	3.41130e+02	2.09900e+03	1.58144e+00	3.39833e+02
2103	3.41786e+02	2.10300e+03	1.56924e+00	3.40500e+02
2107	3.42443e+02	2.10700e+03	1.55667e+00	3.41167e+02
2111	3.43102e+02	2.11100e+03	1.54375e+00	3.41833e+02
2115	3.43763e+02	2.11500e+03	1.53032e+00	3.42500e+02
2119	3.44436e+02	2.11900e+03	1.51639e+00	3.43167e+02
2123	3.45079e+02	2.12300e+03	1.50214e+00	3.43833e+02
2127	3.45752e+02	2.12700e+03	1.48747e+00	3.44500e+02
2131	3.46412e+02	2.13100e+03	1.47234e+00	3.45167e+02
2135	3.47080e+02	2.13500e+03	1.45697e+00	3.45833e+02
2139	3.47742e+02	2.13900e+03	1.44144e+00	3.46500e+02
2143	3.48398e+02	2.14300e+03	1.42533e+00	3.47167e+02
2147	3.49059e+02	2.14700e+03	1.40843e+00	3.47833e+02
2151	3.49723e+02	2.15100e+03	1.39118e+00	3.48500e+02
2155	3.50385e+02	2.15500e+03	1.37381e+00	3.49167e+02
2159	3.51044e+02	2.15900e+03	1.35602e+00	3.49833e+02
2163	3.51699e+02	2.16300e+03	1.33770e+00	3.50500e+02
2167	3.52357e+02	2.16700e+03	1.31911e+00	3.51167e+02
2171	3.53023e+02	2.17100e+03	1.30025e+00	3.51833e+02
2175	3.53676e+02	2.17500e+03	1.28103e+00	3.52500e+02
2179	3.54351e+02	2.17900e+03	1.26150e+00	3.53167e+02
2183	3.55013e+02	2.18300e+03	1.24168e+00	3.53833e+02
2187	3.55676e+02	2.18700e+03	1.22158e+00	3.54500e+02
2191	3.56328e+02	2.19100e+03	1.20114e+00	3.55167e+02
2195	3.56992e+02	2.19500e+03	1.18034e+00	3.55833e+02
2199	3.57650e+02	2.19900e+03	1.15927e+00	3.56500e+02
2203	3.58317e+02	2.20300e+03	1.13792e+00	3.57167e+02
2207	3.58989e+02	2.20700e+03	1.11625e+00	3.57833e+02
2211	3.59655e+02	2.21100e+03	1.09444e+00	3.58500e+02
2215	3.60318e+02	2.21500e+03	1.07263e+00	3.59167e+02
2219	3.60987e+02	2.21900e+03	1.05075e+00	3.59833e+02
2223	3.61661e+02	2.22300e+03	1.02873e+00	3.60500e+02
2227	3.62329e+02	2.22700e+03	1.00663e+00	3.61167e+02
2231	3.62998e+02	2.23100e+03	9.84377e-01	3.61833e+02
2235	3.63672e+02	2.23500e+03	9.61928e-01	3.62500e+02
2239	3.64324e+02	2.23900e+03	9.39316e-01	3.63167e+02
2243	3.64992e+02	2.24300e+03	9.16683e-01	3.63833e+02
2247	3.65663e+02	2.24700e+03	8.93979e-01	3.64500e+02
2251	3.66342e+02	2.25100e+03	8.70870e-01	3.65167e+02
2255	3.67024e+02	2.25500e+03	8.47464e-01	3.65833e+02
2259	3.67699e+02	2.25900e+03	8.24201e-01	3.66500e+02
2263	3.68363e+02	2.26300e+03	8.01358e-01	3.67167e+02
2267	3.69031e+02	2.26700e+03	7.78737e-01	3.67833e+02
2271	3.69709e+02	2.27100e+03	7.55788e-01	3.68500e+02
2275	3.70374e+02	2.27500e+03	7.32538e-01	3.69167e+02
2279	3.71049e+02	2.27900e+03	7.09554e-01	3.69833e+02
2283	3.71748e+02	2.28300e+03	6.86938e-01	3.70500e+02
2287	3.72438e+02	2.28700e+03	6.64469e-01	3.71167e+02
2291	3.73115e+02	2.29100e+03	6.42169e-01	3.71833e+02
2295	3.73802e+02	2.29500e+03	6.20206e-01	3.72500e+02
2299	3.74494e+02	2.29900e+03	5.98626e-01	3.73167e+02
2303	3.75194e+02	2.30300e+03	5.77376e-01	3.73833e+02
2307	3.75903e+02	2.30700e+03	5.56488e-01	3.74500e+02
2311	3.76569e+02	2.31100e+03	5.35916e-01	3.75167e+02
2315	3.77253e+02	2.31500e+03	5.15737e-01	3.75833e+02
2319	3.77955e+02	2.31900e+03	4.96046e-01	3.76500e+02
2323	3.78620e+02	2.32300e+03	4.76798e-01	3.77167e+02
2327	3.79310e+02	2.32700e+03	4.57974e-01	3.77833e+02
2331	3.79989e+02	2.33100e+03	4.39536e-01	3.78500e+02
2335	3.80648e+02	2.33500e+03	4.21520e-01	3.79167e+02
2339	3.81327e+02	2.33900e+03	4.03994e-01	3.79833e+02
2343	3.82010e+02	2.34300e+03	3.86986e-01	3.80500e+02
2347	3.82679e+02	2.34700e+03	3.70525e-01	3.81167e+02
2351	3.83351e+02	2.35100e+03	3.54575e-01	3.81833e+02
2355	3.84013e+02	2.35500e+03	3.39235e-01	3.82500e+02
2359	3.84689e+02	2.35900e+03	3.24442e-01	3.83167e+02
2363	3.85347e+02	2.36300e+03	3.09900e-01	3.83833e+02
2367	3.86017e+02	2.36700e+03	2.95640e-01	3.84500e+02
2371	3.86676e+02	2.37100e+03	2.82075e-01	3.85167e+02
2375	3.87345e+02	2.37500e+03	2.69502e-01	3.85833e+02
2379	3.88024e+02	2.37900e+03	2.57411e-01	3.86500e+02
2383	3.88682e+02	2.38300e+03	2.45403e-01	3.87167e+02
2387	3.89358e+02	2.38700e+03	2.33929e-01	3.87833e+02
2391	3.90018e+02	2.39100e+03	2.23115e-01	3.88500e+02
2395	3.90680e+02	2.39500e+03	2.12669e-01	3.89167e+02
2399	3.91361e+02	2.39900e+03	2.02589e-01	3.89833e+02
2403	3.92021e+02	2.40300e+03	1.92966e-01	3.90500e+02
2407	3.92690e+02	2.40700e+03	1.83763e-01	3.91167e+02
2411	3.93353e+02	2.41100e+03	1.74996e-01	3.91833e+02
2415	3.94027e+02	2.41500e+03	1.66666e-01	3.92500e+02
2419	3.94692e+02	2.41900e+03	1.58746e-01	3.93167e+02
2423	3.95346e+02	2.42300e+03	1.51285e-01	3.93833e+02
2427	3.96029e+02	2.42700e+03	1.44222e-01	3.94500e+02
2431	3.96689e+02	2.43100e+03	1.37426e-01	3.95167e+02
2435	3.97349e+02	2.43500e+03	1.30942e-01	3.95833e+02
2439	3.98035e+02	2.43900e+03	1.24838e-01	3.96500e+02
2443	3.98704e+02	2.44300e+03	1.19075e-01	3.97167e+02
2447	3.99362e+02	2.44700e+03	1.13636e-01	3.97833e+02
2451	4.00020e+02	2.45100e+03	1.08486e-01	3.98500e+02
2455	4.00687e+02	2.45500e+03	1.03737e-01	3.99167e+02
2459	4.01345e+02	2.45900e+03	9.93799e-02	3.99833e+02
2463	4.02032e+02	2.46300e+03	9.51404e-02	4.00500e+02
2467	4.02700e+02	2.46700e+03	9.09171e-02	4.01167e+02
2471	4.03363e+02	2.47100e+03	8.69432e-02	4.01833e+02
2475	4.04028e+02	2.47500e+03	8.34828e-02	4.02500e+02
2479	4.04705e+02	2.47900e+03	8.03868e-02	4.03167e+02
2483	4.05362e+02	2.48300e+03	7.73958e-02	4.03833e+02
2487	4.06023e+02	2.48700e+03	7.45254e-02	4.04500e+02
2491	4.06685e+02	2.49100e+03	7.18672e-02	4.05167e+02
2495	4.07347e+02	2.49500e+03	6.94780e-02	4.05833e+02
2499	4.08010e+02	2.49900e+03	6.72901e-02	4.06500e+02
2503	4.08666e+02	2.50300e+03	6.51416e-02	4.07167e+02
2507	4.09345e+02	2.50700e+03	6.30504e-02	4.07833e+02
2511	4.10007e+02	2.51100e+03	6.10835e-02	4.08500e+02
2515	4.10663e+02	2.51500e+03	5.93175e-02	4.09167e+02
2519	4.11331e+02	2.51900e+03	5.77384e-02	4.09833e+02
2523	4.11999e+02	2.52300e+03	5.62473e-02	4.10500e+02
2527	4.12664e+02	2.52700e+03	5.48924e-02	4.11167e+02
2531	4.13342e+02	2.53100e+03	5.37006e-02	4.11833e+02
2535	4.13991e+02	2.53500e+03	5.26254e-02	4.12500e+02
2539	4.14657e+02	2.53900e+03	5.16343e-02	4.13167e+02
2543	4.15320e+02	2.54300e+03	5.06918e-02	4.13833e+02
2547	4.15976e+02	2.54700e+03	4.97732e-02	4.14500e+02
2551	4.16656e+02	2.55100e+03	4.89939e-02	4.15167e+02
2555	4.17308e+02	2.55500e+03	4.83243e-02	4.15833e+02
2559	4.17977e+02	2.55900e+03	4.75451e-02	4.16500e+02
2563	4.18640e+02	2.56300e+03	4.67396e-02	4.17167e+02
2567	4.19307e+02	2.56700e+03	4.61461e-02	4.17833e+02
2571	4.19962e+02	2.57100e+03	4.56852e-02	4.18500e+02
2575	4.20635e+02	2.57500e+03	4.52187e-02	4.19167e+02
2579	4.21303e+02	2.57900e+03	4.47887e-02	4.19833e+02
2583	4.21957e+02	2.58300e+03	4.44118e-02	4.20500e+02
2587	4.22621e+02	2.58700e+03	4.40282e-02	4.21167e+02
2591	4.23298e+02	2.59100e+03	4.36538e-02	4.21833e+02
2595	4.23947e+02	2.59500e+03	4.32741e-02	4.22500e+02
2599	4.24630e+02	2.59900e+03	4.28536e-02	4.23167e+02
2603	4.25297e+02	2.60300e+03	4.24594e-02	4.23833e+02
2607	4.25978e+02	2.60700e+03	4.21495e-02	4.24500e+02
2611	4.26627e+02	2.61100e+03	4.19128e-02	4.25167e+02
2615	4.27283e+02	2.61500e+03	4.17660e-02	4.25833e+02
2619	4.27952e+02	2.61900e+03	4.17024e-02	4.26500e+02
2623	4.28600e+02	2.62300e+03	4.16253e-02	4.27167e+02
2627	4.29247e+02	2.62700e+03	4.15164e-02	4.27833e+02
2631	4.29873e+02	2.63100e+03	4.14152e-02	4.28500e+02
2635	4.30476e+02	2.63500e+03	4.13258e-02	4.29167e+02
2639	4.31086e+02	2.63900e+03	4.12020e-02	4.29833e+02
2643	4.31709e+02	2.64300e+03	4.10053e-02	4.30500e+02
2647	4.32346e+02	2.64700e+03	4.07995e-02	4.31167e+02
2651	4.32969e+02	2.65100e+03	4.06710e-02	4.31833e+02
2655	4.33631e+02	2.65500e+03	4.05610e-02	4.32500e+02
2659	4.34286e+02	2.65900e+03	4.04679e-02	4.33167e+02
2663	4.34935e+02	2.66300e+03	4.04572e-02	4.33833e+02
2667	4.35589e+02	2.66700e+03	4.04313e-02	4.34500e+02
2671	4.36251e+02	2.67100e+03	4.03343e-02	4.35167e+02
2675	4.36907e+02	2.67500e+03	4.02843e-02	4.35833e+02
2679	4.37569e+02	2.67900e+03	4.03124e-02	4.36500e+02
2683	4.38216e+02	2.68300e+03	4.03172e-02	4.37167e+02
2687	4.38869e+02	2.68700e+03	4.02626e-02	4.37833e+02
2691	4.39543e+02	2.69100e+03	4.01960e-02	4.38500e+02
2695	4.40180e+02	2.69500e+03	4.01499e-02	4.39167e+02
2699	4.40848e+02	2.69900e+03	4.01064e-02	4.39833e+02
2703	4.41507e+02	2.70300e+03	4.00557e-02	4.40500e+02
2707	4.42159e+02	2.70700e+03	4.00153e-02	4.41167e+02
2711	4.42821e+02	2.71100e+03	3.99685e-02	4.41833e+02
2715	4.43478e+02	2.71500e+03	3.98886e-02	4.42500e+02
2719	4.44133e+02	2.71900e+03	3.98682e-02	4.43167e+02
2723	4.44798e+02	2.72300e+03	3.99005e-02	4.43833e+02
2727	4.45468e+02	2.72700e+03	3.98653e-02	4.44500e+02
2731	4.46114e+02	2.73100e+03	3.98929e-02	4.45167e+02
2735	4.46781e+02	2.73500e+03	4.00062e-02	4.45833e+02
2739	4.47443e+02	2.73900e+03	3.99962e-02	4.46500e+02
2743	4.48100e+02	2.74300e+03	3.98989e-02	4.47167e+02
2747	4.48764e+02	2.74700e+03	3.99021e-02	4.47833e+02
2751	4.49414e+02	2.75100e+03	3.99916e-02	4.48500e+02
2755	4.50086e+02	2.75500e+03	3.99993e-02	4.49167e+02
2759	4.50735e+02	2.75900e+03	3.99203e-02	4.49833e+02
2763	4.51401e+02	2.76300e+03	3.98892e-02	4.50500e+02
2767	4.52053e+02	2.76700e+03	3.98403e-02	4.51167e+02
2771	4.52716e+02	2.77100e+03	3.97370e-02	4.51833e+02
2775	4.53374e+02	2.77500e+03	3.96439e-02	4.52500e+02
2779	4.54029e+02	2.77900e+03	3.95272e-02	4.53167e+02
2783	4.54695e+02	2.78300e+03	3.94606e-02	4.53833e+02
2787	4.55353e+02	2.78700e+03	3.95856e-02	4.54500e+02
2791	4.56009e+02	2.79100e+03	3.97533e-02	4.55167e+02
2795	4.56662e+02	2.79500e+03	3.97504e-02	4.55833e+02
2799	4.57318e+02	2.79900e+03	3.96597e-02	4.56500e+02
2803	4.57982e+02	2.80300e+03	3.95840e-02	4.57167e+02
2807	4.58643e+02	2.80700e+03	3.95404e-02	4.57833e+02
2811	4.59302e+02	2.81100e+03	3.95578e-02	4.58500e+02
2815	4.59964e+02	2.81500e+03	3.95769e-02	4.59167e+02
2819	4.60620e+02	2.81900e+03	3.95358e-02	4.59833e+02
2823	4.61272e+02	2.82300e+03	3.95183e-02	4.60500e+02
2827	4.61935e+02	2.82700e+03	3.94854e-02	4.61167e+02
2831	4.62595e+02	2.83100e+03	3.93943e-02	4.61833e+02
2835	4.63253e+02	2.83500e+03	3.93131e-02	4.62500e+02
2839	4.63903e+02	2.83900e+03	3.92638e-02	4.63167e+02
2843	4.64572e+02	2.84300e+03	3.93200e-02	4.63833e+02
2847	4.65230e+02	2.84700e+03	3.94522e-02	4.64500e+02
2851	4.65883e+02	2.85100e+03	3.95557e-02	4.65167e+02
2855	4.66536e+02	2.85500e+03	3.95581e-02	4.65833e+02
2859	4.67195e+02	2.85900e+03	3.94903e-02	4.66500e+02
2863	4.67857e+02	2.86300e+03	3.94926e-02	4.67167e+02
2867	4.68517e+02	2.86700e+03	3.95821e-02	4.67833e+02
2871	4.69177e+02	2.87100e+03	3.95724e-02	4.68500e+02
2875	4.69834e+02	2.87500e+03	3.94502e-02	4.69167e+02
2879	4.70504e+02	2.87900e+03	3.94072e-02	4.69833e+02
2883	4.71168e+02	2.88300e+03	3.94066e-02	4.70500e+02
2887	4.71817e+02	2.88700e+03	3.93129e-02	4.71167e+02
2891	4.72477e+02	2.89100e+03	3.92027e-02	4.71833e+02
2895	4.73147e+02	2.89500e+03	3.92277e-02	4.72500e+02
2899	4.73806e+02	2.89900e+03	3.92755e-02	4.73167e+02
2903	4.74465e+02	2.90300e+03	3.92452e-02	4.73833e+02
2907	4.75130e+02	2.90700e+03	3.92599e-02	4.74500e+02
2911	4.75779e+02	2.91100e+03	3.93466e-02	4.75167e+02
2915	4.76439e+02	2.91500e+03	3.94800e-02	4.75833e+02
2919	4.77100e+02	2.91900e+03	3.95572e-02	4.76500e+02
2923	4.77764e+02	2.92300e+03	3.94410e-02	4.77167e+02
2927	4.78424e+02	2.92700e+03	3.93256e-02	4.77833e+02
2931	4.79071e+02	2.93100e+03	3.94009e-02	4.78500e+02
2935	4.79732e+02	2.93500e+03	3.94915e-02	4.79167e+02
2939	4.80400e+02	2.93900e+03	3.94509e-02	4.79833e+02
2943	4.81055e+02	2.94300e+03	3.94841e-02	4.80500e+02
2947	4.81714e+02	2.94700e+03	3.95433e-02	4.81167e+02
2951	4.82373e+02	2.95100e+03	3.94726e-02	4.81833e+02
2955	4.83032e+02	2.95500e+03	3.94364e-02	4.82500e+02
2959	4.83684e+02	2.95900e+03	3.94100e-02	4.83167e+02
2963	4.84347e+02	2.96300e+03	3.93270e-02	4.83833e+02
2967	4.85011e+02	2.96700e+03	3.92726e-02	4.84500e+02
2971	4.85658e+02	2.97100e+03	3.92623e-02	4.85167e+02
2975	4.86324e+02	2.97500e+03	3.92850e-02	4.85833e+02
2979	4.86986e+02	2.97900e+03	3.92326e-02	4.86500e+02
2983	4.87644e+02	2.98300e+03	3.91062e-02	4.87167e+02
2987	4.88294e+02	2.98700e+03	3.90917e-02	4.87833e+02
2991	4.88964e+02	2.99100e+03	3.91448e-02	4.88500e+02
2995	4.89621e+02	2.99500e+03	3.92080e-02	4.89167e+02
2999	4.90286e+02	2.99900e+03	3.92874e-02	4.89833e+02
3003	4.90949e+02	3.00300e+03	3.93478e-02	4.90500e+02
3007	4.91614e+02	3.00700e+03	3.93883e-02	4.91167e+02
3011	4.92270e+02	3.01100e+03	3.94267e-02	4.91833e+02
3015	4.92920e+02	3.01500e+03	3.95040e-02	4.92500e+02
3019	4.93600e+02	3.01900e+03	3.95459e-02	4.93167e+02
3023	4.94249e+02	3.02300e+03	3.95148e-02	4.93833e+02
3027	4.94899e+02	3.02700e+03	3.95545e-02	4.94500e+02
3031	4.95569e+02	3.03100e+03	3.96307e-02	4.95167e+02
3035	4.96231e+02	3.03500e+03	3.95229e-02	4.95833e+02
3039	4.96893e+02	3.03900e+03	3.93450e-02	4.96500e+02
3043	4.97554e+02	3.04300e+03	3.93061e-02	4.97167e+02
3047	4.98212e+02	3.04700e+03	3.93063e-02	4.97833e+02
3051	4.98869e+02	3.05100e+03	3.92522e-02	4.98500e+02
3055	4.99528e+02	3.05500e+03	3.91768e-02	4.99167e+02
3059	5.00183e+02	3.05900e+03	3.92087e-02	4.99833e+02
3063	5.00841e+02	3.06300e+03	3.93275e-02	5.00500e+02
3067	5.01506e+02	3.06700e+03	3.93957e-02	5.01167e+02
3071	5.02164e+02	3.07100e+03	3.94200e-02	5.01833e+02
3075	5.02822e+02	3.07500e+03	3.93673e-02	5.02500e+02
3079	5.03483e+02	3.07900e+03	3.92440e-02	5.03167e+02
3083	5.04140e+02	3.08300e+03	3.92022e-02	5.03833e+02
3087	5.04794e+02	3.08700e+03	3.92627e-02	5.04500e+02
3091	5.05467e+02	3.09100e+03	3.92824e-02	5.05167e+02
3095	5.06128e+02	3.09500e+03	3.92386e-02	5.05833e+02
3099	5.06785e+02	3.09900e+03	3.92349e-02	5.06500e+02
3103	5.07450e+02	3.10300e+03	3.92605e-02	5.07167e+02
3107	5.08102e+02	3.10700e+03	3.92813e-02	5.07833e+02
3111	5.08754e+02	3.11100e+03	3.92801e-02	5.08500e+02
3115	5.09427e+02	3.11500e+03	3.91937e-02	5.09167e+02
3119	5.10080e+02	3.11900e+03	3.91600e-02	5.09833e+02
3123	5.10755e+02	3.12300e+03	3.92266e-02	5.10500e+02
3127	5.11399e+02	3.12700e+03	3.93497e-02	5.11167e+02
3131	5.12067e+02	3.13100e+03	3.96755e-02	5.11833e+02
3135	5.12743e+02	3.13500e+03	3.98206e-02	5.12500e+02
3139	5.13392e+02	3.13900e+03	3.94600e-02	5.13167e+02
3143	5.14044e+02	3.14300e+03	3.91727e-02	5.13833e+02
3147	5.14707e+02	3.14700e+03	3.91450e-02	5.14500e+02
3151	5.15359e+02	3.15100e+03	3.93670e-02	5.15167e+02
3155	5.16015e+02	3.15500e+03	3.96182e-02	5.15833e+02
3159	5.16684e+02	3.15900e+03	3.95718e-02	5.16500e+02
3163	5.17339e+02	3.16300e+03	3.94685e-02	5.17167e+02
3167	5.17992e+02	3.16700e+03	3.93929e-02	5.17833e+02
3171	5.18654e+02	3.17100e+03	3.92984e-02	5.18500e+02
3175	5.19326e+02	3.17500e+03	3.92366e-02	5.19167e+02
3179	5.19988e+02	3.17900e+03	3.93118e-02	5.19833e+02
3183	5.20646e+02	3.18300e+03	3.94236e-02	5.20500e+02
3187	5.21306e+02	3.18700e+03	3.93942e-02	5.21167e+02
3191	5.21961e+02	3.19100e+03	3.93015e-02	5.21833e+02
3195	5.22631e+02	3.19500e+03	3.93622e-02	5.22500e+02
3199	5.23292e+02	3.19900e+03	3.93770e-02	5.23167e+02
3203	5.23951e+02	3.20300e+03	3.93464e-02	5.23833e+02
3207	5.24610e+02	3.20700e+03	3.94873e-02	5.24500e+02
3211	5.25260e+02	3.21100e+03	3.96033e-02	5.25167e+02
3215	5.25915e+02	3.21500e+03	3.95563e-02	5.25833e+02
3219	5.26581e+02	3.21900e+03	3.94258e-02	5.26500e+02
3223	5.27237e+02	3.22300e+03	3.93668e-02	5.27167e+02
3227	5.27898e+02	3.22700e+03	3.93360e-02	5.27833e+02
3231	5.28554e+02	3.23100e+03	3.92849e-02	5.28500e+02
3235	5.29225e+02	3.23500e+03	3.92951e-02	5.29167e+02
3239	5.29868e+02	3.23900e+03	3.93201e-02	5.29833e+02
3243	5.30529e+02	3.24300e+03	3.93336e-02	5.30500e+02
3247	5.31201e+02	3.24700e+03	3.94319e-02	5.31167e+02
3251	5.31854e+02	3.25100e+03	3.94624e-02	5.31833e+02
3255	5.32522e+02	3.25500e+03	3.93675e-02	5.32500e+02
3259	5.33185e+02	3.25900e+03	3.94157e-02	5.33167e+02
3263	5.33849e+02	3.26300e+03	3.95072e-02	5.33833e+02
3267	5.34512e+02	3.26700e+03	3.94599e-02	5.34500e+02
3271	5.35175e+02	3.27100e+03	3.93075e-02	5.35167e+02
3275	5.35847e+02	3.27500e+03	3.91206e-02	5.35833e+02
3279	5.36507e+02	3.27900e+03	3.90279e-02	5.36500e+02
3283	5.37175e+02	3.28300e+03	3.90412e-02	5.37167e+02
3287	5.37831e+02	3.28700e+03	3.90808e-02	5.37833e+02
3291	5.38500e+02	3.29100e+03	3.91887e-02	5.38500e+02
3295	5.39150e+02	3.29500e+03	3.93123e-02	5.39167e+02
3299	5.39822e+02	3.29900e+03	3.93464e-02	5.39833e+02
3303	5.40478e+02	3.30300e+03	3.93600e-02	5.40500e+02
3307	5.41150e+02	3.30700e+03	3.93989e-02	5.41167e+02
3311	5.41808e+02	3.31100e+03	3.93797e-02	5.41833e+02
3315	5.42467e+02	3.31500e+03	3.91879e-02	5.42500e+02
3319	5.43136e+02	3.31900e+03	3.89566e-02	5.43167e+02
3323	5.43799e+02	3.32300e+03	3.89438e-02	5.43833e+02
3327	5.44455e+02	3.32700e+03	3.91685e-02	5.44500e+02
3331	5.45128e+02	3.33100e+03	3.93793e-02	5.45167e+02
3335	5.45788e+02	3.33500e+03	3.94392e-02	5.45833e+02
3339	5.46439e+02	3.33900e+03	3.93754e-02	5.46500e+02
3343	5.47109e+02	3.34300e+03	3.93532e-02	5.47167e+02
3347	5.47753e+02	3.34700e+03	3.94279e-02	5.47833e+02
3351	5.48430e+02	3.35100e+03	3.94226e-02	5.48500e+02
3355	5.49085e+02	3.35500e+03	3.93954e-02	5.49167e+02
3359	5.49744e+02	3.35900e+03	3.93916e-02	5.49833e+02
3363	5.50406e+02	3.36300e+03	3.93822e-02	5.50500e+02
3367	5.51090e+02	3.36700e+03	3.93591e-02	5.51167e+02
3371	5.51740e+02	3.37100e+03	3.92448e-02	5.51833e+02
3375	5.52406e+02	3.37500e+03	3.94648e-02	5.52500e+02
3379	5.53080e+02	3.37900e+03	3.95737e-02	5.53167e+02
3383	5.53753e+02	3.38300e+03	3.91034e-02	5.53833e+02
3387	5.54425e+02	3.38700e+03	3.89934e-02	5.54500e+02
3391	5.55092e+02	3.39100e+03	3.91796e-02	5.55167e+02
3395	5.55758e+02	3.39500e+03	3.91224e-02	5.55833e+02
3399	5.56423e+02	3.39900e+03	3.89833e-02	5.56500e+02
3403	5.57089e+02	3.40300e+03	3.88790e-02	5.57167e+02
3407	5.57747e+02	3.40700e+03	3.89827e-02	5.57833e+02
3411	5.58429e+02	3.41100e+03	3.92122e-02	5.58500e+02
3415	5.59104e+02	3.41500e+03	3.92601e-02	5.59167e+02
3419	5.59770e+02	3.41900e+03	3.92062e-02	5.59833e+02
3423	5.60438e+02	3.42300e+03	3.91985e-02	5.60500e+02
3427	5.61084e+02	3.42700e+03	3.91483e-02	5.61167e+02
3431	5.61755e+02	3.43100e+03	3.89631e-02	5.61833e+02
3435	5.62415e+02	3.43500e+03	3.88135e-02	5.62500e+02
3439	5.63079e+02	3.43900e+03	3.88277e-02	5.63167e+02
3443	5.63742e+02	3.44300e+03	3.89162e-02	5.63833e+02
3447	5.64407e+02	3.44700e+03	3.90653e-02	5.64500e+02
3451	5.65065e+02	3.45100e+03	3.92440e-02	5.65167e+02
3455	5.65721e+02	3.45500e+03	3.92691e-02	5.65833e+02
3459	5.66393e+02	3.45900e+03	3.91514e-02	5.66500e+02
3463	5.67052e+02	3.46300e+03	3.90983e-02	5.67167e+02
3467	5.67712e+02	3.46700e+03	3.91420e-02	5.67833e+02
3471	5.68368e+02	3.47100e+03	3.90985e-02	5.68500e+02
3475	5.69032e+02	3.47500e+03	3.90201e-02	5.69167e+02
3479	5.69687e+02	3.47900e+03	3.90112e-02	5.69833e+02
3483	5.70339e+02	3.48300e+03	3.89789e-02	5.70500e+02
3487	5.70976e+02	3.48700e+03	3.90022e-02	5.71167e+02
3491	5.71639e+02	3.49100e+03	3.90933e-02	5.71833e+02
3495	5.72297e+02	3.49500e+03	3.90902e-02	5.72500e+02
3499	5.72958e+02	3.49900e+03	3.90162e-02	5.73167e+02
3503	5.73614e+02	3.50300e+03	3.89816e-02	5.73833e+02
3507	5.74270e+02	3.50700e+03	3.89670e-02	5.74500e+02
3511	5.74914e+02	3.51100e+03	3.88792e-02	5.75167e+02
3515	5.75587e+02	3.51500e+03	3.87947e-02	5.75833e+02
3519	5.76233e+02	3.51900e+03	3.88150e-02	5.76500e+02
3523	5.76890e+02	3.52300e+03	3.88445e-02	5.77167e+02
3527	5.77557e+02	3.52700e+03	3.88866e-02	5.77833e+02
3531	5.78209e+02	3.53100e+03	3.89628e-02	5.78500e+02
3535	5.78869e+02	3.53500e+03	3.89761e-02	5.79167e+02
3539	5.79535e+02	3.53900e+03	3.89223e-02	5.79833e+02
3543	5.80203e+02	3.54300e+03	3.88634e-02	5.80500e+02
3547	5.80860e+02	3.54700e+03	3.88986e-02	5.81167e+02
3551	5.81523e+02	3.55100e+03	3.89597e-02	5.81833e+02
3555	5.82187e+02	3.55500e+03	3.89435e-02	5.82500e+02
3559	5.82844e+02	3.55900e+03	3.89124e-02	5.83167e+02
3563	5.83500e+02	3.56300e+03	3.88801e-02	5.83833e+02
3567	5.84170e+02	3.56700e+03	3.89568e-02	5.84500e+02
3571	5.84828e+02	3.57100e+03	3.91071e-02	5.85167e+02
3575	5.85483e+02	3.57500e+03	3.90757e-02	5.85833e+02
3579	5.86136e+02	3.57900e+03	3.89382e-02	5.86500e+02
3583	5.86802e+02	3.58300e+03	3.88762e-02	5.87167e+02
3587	5.87460e+02	3.58700e+03	3.88737e-02	5.87833e+02
3591	5.88115e+02	3.59100e+03	3.89139e-02	5.88500e+02
3595	5.88783e+02	3.59500e+03	3.88644e-02	5.89167e+02
3599	5.89441e+02	3.59900e+03	3.87331e-02	5.89833e+02
3603	5.90100e+02	3.60300e+03	3.86770e-02	5.90500e+02
3607	5.90758e+02	3.60700e+03	3.87716e-02	5.91167e+02
3611	5.91405e+02	3.61100e+03	3.90005e-02	5.91833e+02
3615	5.92066e+02	3.61500e+03	3.91410e-02	5.92500e+02
3619	5.92725e+02	3.61900e+03	3.90856e-02	5.93167e+02
3623	5.93383e+02	3.62300e+03	3.90001e-02	5.93833e+02
3627	5.94027e+02	3.62700e+03	3.89998e-02	5.94500e+02
3631	5.94674e+02	3.63100e+03	3.90257e-02	5.95167e+02
3635	5.95326e+02	3.63500e+03	3.90313e-02	5.95833e+02
3639	5.95984e+02	3.63900e+03	3.90224e-02	5.96500e+02
3643	5.96636e+02	3.64300e+03	3.90093e-02	5.97167e+02
3647	5.97311e+02	3.64700e+03	3.89688e-02	5.97833e+02
3651	5.97965e+02	3.65100e+03	3.89065e-02	5.98500e+02
3655	5.98625e+02	3.65500e+03	3.89284e-02	5.99167e+02
3659	5.99279e+02	3.65900e+03	3.89833e-02	5.99833e+02
3663	5.99943e+02	3.66300e+03	3.89267e-02	6.00500e+02
3667	6.00607e+02	3.66700e+03	3.88531e-02	6.01167e+02
3671	6.01269e+02	3.67100e+03	3.88751e-02	6.01833e+02
3675	6.01929e+02	3.67500e+03	3.89233e-02	6.02500e+02
3679	6.02591e+02	3.67900e+03	3.89248e-02	6.03167e+02
3683	6.03251e+02	3.68300e+03	3.88504e-02	6.03833e+02
3687	6.03916e+02	3.68700e+03	3.88209e-02	6.04500e+02
3691	6.04589e+02	3.69100e+03	3.88770e-02	6.05167e+02
3695	6.05245e+02	3.69500e+03	3.88704e-02	6.05833e+02
3699	6.05920e+02	3.69900e+03	3.87656e-02	6.06500e+02
3703	6.06586e+02	3.70300e+03	3.87107e-02	6.07167e+02
3707	6.07253e+02	3.70700e+03	3.88108e-02	6.07833e+02
3711	6.07927e+02	3.71100e+03	3.89071e-02	6.08500e+02
3715	6.08595e+02	3.71500e+03	3.89401e-02	6.09167e+02
3719	6.09261e+02	3.71900e+03	3.90232e-02	6.09833e+02
3723	6.09926e+02	3.72300e+03	3.91162e-02	6.10500e+02
3727	6.10597e+02	3.72700e+03	3.91390e-02	6.11167e+02
3731	6.11255e+02	3.73100e+03	3.91110e-02	6.11833e+02
3735	6.11908e+02	3.73500e+03	3.90402e-02	6.12500e+02
3739	6.12567e+02	3.73900e+03	3.90002e-02	6.13167e+02
3743	6.13226e+02	3.74300e+03	3.90289e-02	6.13833e+02
3747	6.13886e+02	3.74700e+03	3.89940e-02	6.14500e+02
3751	6.14552e+02	3.75100e+03	3.88350e-02	6.15167e+02
3755	6.15207e+02	3.75500e+03	3.87242e-02	6.15833e+02
3759	6.15871e+02	3.75900e+03	3.87254e-02	6.16500e+02
3763	6.16540e+02	3.76300e+03	3.87265e-02	6.17167e+02
3767	6.17210e+02	3.76700e+03	3.87300e-02	6.17833e+02
3771	6.17880e+02	3.77100e+03	3.87622e-02	6.18500e+02
3775	6.18541e+02	3.77500e+03	3.87990e-02	6.19167e+02
3779	6.19203e+02	3.77900e+03	3.87779e-02	6.19833e+02
3783	6.19880e+02	3.78300e+03	3.87697e-02	6.20500e+02
3787	6.20540e+02	3.78700e+03	3.89262e-02	6.21167e+02
3791	6.21211e+02	3.79100e+03	3.90948e-02	6.21833e+02
3795	6.21883e+02	3.79500e+03	3.91005e-02	6.22500e+02
3799	6.22557e+02	3.79900e+03	3.90160e-02	6.23167e+02
3803	6.23214e+02	3.80300e+03	3.89270e-02	6.23833e+02
3807	6.23869e+02	3.80700e+03	3.88456e-02	6.24500e+02
3811	6.24542e+02	3.81100e+03	3.87935e-02	6.25167e+02
3815	6.25213e+02	3.81500e+03	3.88607e-02	6.25833e+02
3819	6.25875e+02	3.81900e+03	3.90028e-02	6.26500e+02
3823	6.26542e+02	3.82300e+03	3.90738e-02	6.27167e+02
3827	6.27209e+02	3.82700e+03	3.90233e-02	6.27833e+02
3831	6.27874e+02	3.83100e+03	3.89374e-02	6.28500e+02
3835	6.28528e+02	3.83500e+03	3.88999e-02	6.29167e+02
3839	6.29196e+02	3.83900e+03	3.88993e-02	6.29833e+02
3843	6.29860e+02	3.84300e+03	3.88837e-02	6.30500e+02
3847	6.30528e+02	3.84700e+03	3.88225e-02	6.31167e+02
3851	6.31210e+02	3.85100e+03	3.87357e-02	6.31833e+02
3855	6.31870e+02	3.85500e+03	3.87434e-02	6.32500e+02
3859	6.32548e+02	3.85900e+03	3.88862e-02	6.33167e+02
3863	6.33224e+02	3.86300e+03	3.89132e-02	6.33833e+02
3867	6.33883e+02	3.86700e+03	3.87810e-02	6.34500e+02
3871	6.34547e+02	3.87100e+03	3.86346e-02	6.35167e+02
3875	6.35210e+02	3.87500e+03	3.85683e-02	6.35833e+02
3879	6.35888e+02	3.87900e+03	3.86172e-02	6.36500e+02
3883	6.36549e+02	3.88300e+03	3.86821e-02	6.37167e+02
3887	6.37232e+02	3.88700e+03	3.86721e-02	6.37833e+02
3891	6.37898e+02	3.89100e+03	3.86540e-02	6.38500e+02
3895	6.38557e+02	3.89500e+03	3.86613e-02	6.39167e+02
3899	6.39221e+02	3.89900e+03	3.86329e-02	6.39833e+02
3903	6.39881e+02	3.90300e+03	3.86281e-02	6.40500e+02
3907	6.40549e+02	3.90700e+03	3.86511e-02	6.41167e+02
3911	6.41209e+02	3.91100e+03	3.86658e-02	6.41833e+02
3915	6.41867e+02	3.91500e+03	3.86769e-02	6.42500e+02
3919	6.42527e+02	3.91900e+03	3.86565e-02	6.43167e+02
3923	6.43214e+02	3.92300e+03	3.86399e-02	6.43833e+02
3927	6.43870e+02	3.92700e+03	3.86572e-02	6.44500e+02
3931	6.44535e+02	3.93100e+03	3.86377e-02	6.45167e+02
3935	6.45203e+02	3.93500e+03	3.85848e-02	6.45833e+02
3939	6.45858e+02	3.93900e+03	3.85365e-02	6.46500e+02
3943	6.46529e+02	3.94300e+03	3.84863e-02	6.47167e+02
3947	6.47194e+02	3.94700e+03	3.85160e-02	6.47833e+02
3951	6.47867e+02	3.95100e+03	3.86860e-02	6.48500e+02
3955	6.48522e+02	3.95500e+03	3.88290e-02	6.49167e+02
3959	6.49185e+02	3.95900e+03	3.88405e-02	6.49833e+02
3963	6.49863e+02	3.96300e+03	3.87842e-02	6.50500e+02
3967	6.50521e+02	3.96700e+03	3.86893e-02	6.51167e+02
3971	6.51188e+02	3.97100e+03	3.86308e-02	6.51833e+02
3975	6.51852e+02	3.97500e+03	3.86853e-02	6.52500e+02
3979	6.52512e+02	3.97900e+03	3.87832e-02	6.53167e+02
3983	6.53165e+02	3.98300e+03	3.87830e-02	6.53833e+02
3987	6.53826e+02	3.98700e+03	3.87409e-02	6.54500e+02
3991	6.54483e+02	3.99100e+03	3.87878e-02	6.55167e+02
3995	6.55149e+02	3.99500e+03	3.88512e-02	6.55833e+02
3999	6.55808e+02	3.99900e+03	3.88416e-02	6.56500e+02
4003	6.56464e+02	4.00300e+03	3.87872e-02	6.57167e+02
4007	6.57121e+02	4.00700e+03	3.87644e-02	6.57833e+02
4011	6.57782e+02	4.01100e+03	3.87412e-02	6.58500e+02
4015	6.58449e+02	4.01500e+03	3.86530e-02	6.59167e+02
4019	6.59105e+02	4.01900e+03	3.85698e-02	6.59833e+02
4023	6.59765e+02	4.02300e+03	3.85527e-02	6.60500e+02
4027	6.60437e+02	4.02700e+03	3.85907e-02	6.61167e+02
4031	6.61099e+02	4.03100e+03	3.86497e-02	6.61833e+02
4035	6.61758e+02	4.03500e+03	3.86642e-02	6.62500e+02
4039	6.62426e+02	4.03900e+03	3.86615e-02	6.63167e+02
4043	6.63088e+02	4.04300e+03	3.86907e-02	6.63833e+02
4047	6.63759e+02	4.04700e+03	3.86727e-02	6.64500e+02
4051	6.64410e+02	4.05100e+03	3.86215e-02	6.65167e+02
4055	6.65066e+02	4.05500e+03	3.86247e-02	6.65833e+02
4059	6.65740e+02	4.05900e+03	3.86337e-02	6.66500e+02
4063	6.66412e+02	4.06300e+03	3.86198e-02	6.67167e+02
4067	6.67075e+02	4.06700e+03	3.85962e-02	6.67833e+02
4071	6.67737e+02	4.07100e+03	3.85564e-02	6.68500e+02
4075	6.68397e+02	4.07500e+03	3.85369e-02	6.69167e+02
4079	6.69060e+02	4.07900e+03	3.85131e-02	6.69833e+02
4083	6.69727e+02	4.08300e+03	3.84855e-02	6.70500e+02
4087	6.70390e+02	4.08700e+03	3.85118e-02	6.71167e+02
4091	6.71054e+02	4.09100e+03	3.85593e-02	6.71833e+02
4095	6.71705e+02	4.09500e+03	3.85936e-02	6.72500e+02
4099	6.72367e+02	4.09900e+03	3.86226e-02	6.73167e+02
4103	6.73027e+02	4.10300e+03	3.86259e-02	6.73833e+02
4107	6.73690e+02	4.10700e+03	3.86045e-02	6.74500e+02
4111	6.74352e+02	4.11100e+03	3.85736e-02	6.75167e+02
4115	6.75011e+02	4.11500e+03	3.85043e-02	6.75833e+02
4119	6.75684e+02	4.11900e+03	3.84764e-02	6.76500e+02
4123	6.76339e+02	4.12300e+03	3.85298e-02	6.77167e+02
4127	6.77018e+02	4.12700e+03	3.85419e-02	6.77833e+02
4131	6.77675e+02	4.13100e+03	3.84908e-02	6.78500e+02
4135	6.78332e+02	4.13500e+03	3.84090e-02	6.79167e+02
4139	6.79000e+02	4.13900e+03	3.82615e-02	6.79833e+02
4143	6.79662e+02	4.14300e+03	3.80919e-02	6.80500e+02
4147	6.80341e+02	4.14700e+03	3.80660e-02	6.81167e+02
4151	6.81000e+02	4.15100e+03	3.82305e-02	6.81833e+02
4155	6.81647e+02	4.15500e+03	3.84116e-02	6.82500e+02
4159	6.82309e+02	4.15900e+03	3.84423e-02	6.83167e+02
4163	6.82977e+02	4.16300e+03	3.83666e-02	6.83833e+02
4167	6.83627e+02	4.16700e+03	3.83269e-02	6.84500e+02
4171	6.84291e+02	4.17100e+03	3.83040e-02	6.85167e+02
4175	6.84957e+02	4.17500e+03	3.82841e-02	6.85833e+02
4179	6.85614e+02	4.17900e+03	3.82943e-02	6.86500e+02
4183	6.86276e+02	4.18300e+03	3.82539e-02	6.87167e+02
4187	6.86935e+02	4.18700e+03	3.81421e-02	6.87833e+02
4191	6.87604e+02	4.19100e+03	3.80491e-02	6.88500e+02
4195	6.88266e+02	4.19500e+03	3.80125e-02	6.89167e+02
4199	6.88927e+02	4.19900e+03	3.80534e-02	6.89833e+02
4203	6.89592e+02	4.20300e+03	3.81867e-02	6.90500e+02
4207	6.90262e+02	4.20700e+03	3.83327e-02	6.91167e+02
4211	6.90911e+02	4.21100e+03	3.83980e-02	6.91833e+02
4215	6.91584e+02	4.21500e+03	3.83864e-02	6.92500e+02
4219	6.92252e+02	4.21900e+03	3.83713e-02	6.93167e+02
4223	6.92910e+02	4.22300e+03	3.83283e-02	6.93833e+02
4227	6.93579e+02	4.22700e+03	3.82393e-02	6.94500e+02
4231	6.94240e+02	4.23100e+03	3.81518e-02	6.95167e+02
4235	6.94809e+02	4.23500e+03	3.81445e-02	6.95833e+02
4239	6.95259e+02	4.23900e+03	3.82034e-02	6.96500e+02
4243	6.95737e+02	4.24300e+03	3.82620e-02	6.97167e+02
4247	6.96150e+02	4.24700e+03	3.82812e-02	6.97833e+02
4251	6.96515e+02	4.25100e+03	3.82775e-02	6.98500e+02
4255	6.96849e+02	4.25500e+03	3.83089e-02	6.99167e+02
4259	6.97132e+02	4.25900e+03	3.82906e-02	6.99833e+02
4260	6.97194e+02	4.26000e+03	3.82583e-02	7.00000e+02