File: Experiments/TUBS/tga_nonisotherm/tga_dynamic_n2_dyn5_piece_3mg_r3.txt
index	ts	t	weight	tr
[#]	[°C]	[s]	[mg]	[°C]
1083	1.31043e+02	1.08300e+03	3.02856e+00	1.30250e+02
1091	1.31700e+02	1.09100e+03	3.02856e+00	1.30917e+02
1099	1.32391e+02	1.09900e+03	3.02840e+00	1.31583e+02
1107	1.33055e+02	1.10700e+03	3.02846e+00	1.32250e+02
1115	1.33740e+02	1.11500e+03	3.02832e+00	1.32917e+02
1123	1.34414e+02	1.12300e+03	3.02833e+00	1.33583e+02
1131	1.35072e+02	1.13100e+03	3.02818e+00	1.34250e+02
1139	1.35751e+02	1.13900e+03	3.02811e+00	1.34917e+02
1147	1.36429e+02	1.14700e+03	3.02812e+00	1.35583e+02
1155	1.37093e+02	1.15500e+03	3.02792e+00	1.36250e+02
1163	1.37772e+02	1.16300e+03	3.02796e+00	1.36917e+02
1171	1.38455e+02	1.17100e+03	3.02779e+00	1.37583e+02
1179	1.39124e+02	1.17900e+03	3.02780e+00	1.38250e+02
1187	1.39812e+02	1.18700e+03	3.02776e+00	1.38917e+02
1195	1.40477e+02	1.19500e+03	3.02775e+00	1.39583e+02
1203	1.41146e+02	1.20300e+03	3.02765e+00	1.40250e+02
1211	1.41819e+02	1.21100e+03	3.02754e+00	1.40917e+02
1219	1.42511e+02	1.21900e+03	3.02748e+00	1.41583e+02
1227	1.43171e+02	1.22700e+03	3.02732e+00	1.42250e+02
1235	1.43842e+02	1.23500e+03	3.02719e+00	1.42917e+02
1243	1.44515e+02	1.24300e+03	3.02722e+00	1.43583e+02
1251	1.45187e+02	1.25100e+03	3.02708e+00	1.44250e+02
1259	1.45869e+02	1.25900e+03	3.02727e+00	1.44917e+02
1267	1.46551e+02	1.26700e+03	3.02697e+00	1.45583e+02
1275	1.47237e+02	1.27500e+03	3.02687e+00	1.46250e+02
1283	1.47895e+02	1.28300e+03	3.02677e+00	1.46917e+02
1291	1.48566e+02	1.29100e+03	3.02672e+00	1.47583e+02
1299	1.49266e+02	1.29900e+03	3.02663e+00	1.48250e+02
1307	1.49936e+02	1.30700e+03	3.02657e+00	1.48917e+02
1315	1.50605e+02	1.31500e+03	3.02665e+00	1.49583e+02
1323	1.51275e+02	1.32300e+03	3.02644e+00	1.50250e+02
1331	1.51943e+02	1.33100e+03	3.02633e+00	1.50917e+02
1339	1.52615e+02	1.33900e+03	3.02620e+00	1.51583e+02
1347	1.53289e+02	1.34700e+03	3.02623e+00	1.52250e+02
1355	1.53964e+02	1.35500e+03	3.02619e+00	1.52917e+02
1363	1.54633e+02	1.36300e+03	3.02612e+00	1.53583e+02
1371	1.55326e+02	1.37100e+03	3.02600e+00	1.54250e+02
1379	1.55996e+02	1.37900e+03	3.02591e+00	1.54917e+02
1387	1.56654e+02	1.38700e+03	3.02591e+00	1.55583e+02
1395	1.57335e+02	1.39500e+03	3.02572e+00	1.56250e+02
1403	1.58009e+02	1.40300e+03	3.02570e+00	1.56917e+02
1411	1.58677e+02	1.41100e+03	3.02566e+00	1.57583e+02
1419	1.59362e+02	1.41900e+03	3.02566e+00	1.58250e+02
1427	1.60044e+02	1.42700e+03	3.02552e+00	1.58917e+02
1435	1.60702e+02	1.43500e+03	3.02546e+00	1.59583e+02
1443	1.61378e+02	1.44300e+03	3.02544e+00	1.60250e+02
1451	1.62035e+02	1.45100e+03	3.02525e+00	1.60917e+02
1459	1.62721e+02	1.45900e+03	3.02509e+00	1.61583e+02
1467	1.63377e+02	1.46700e+03	3.02494e+00	1.62250e+02
1475	1.64071e+02	1.47500e+03	3.02485e+00	1.62917e+02
1483	1.64738e+02	1.48300e+03	3.02472e+00	1.63583e+02
1491	1.65410e+02	1.49100e+03	3.02464e+00	1.64250e+02
1499	1.66080e+02	1.49900e+03	3.02449e+00	1.64917e+02
1507	1.66762e+02	1.50700e+03	3.02429e+00	1.65583e+02
1515	1.67430e+02	1.51500e+03	3.02400e+00	1.66250e+02
1523	1.68107e+02	1.52300e+03	3.02380e+00	1.66917e+02
1531	1.68766e+02	1.53100e+03	3.02349e+00	1.67583e+02
1539	1.69448e+02	1.53900e+03	3.02325e+00	1.68250e+02
1547	1.70119e+02	1.54700e+03	3.02293e+00	1.68917e+02
1555	1.70784e+02	1.55500e+03	3.02272e+00	1.69583e+02
1563	1.71485e+02	1.56300e+03	3.02223e+00	1.70250e+02
1571	1.72159e+02	1.57100e+03	3.02190e+00	1.70917e+02
1579	1.72822e+02	1.57900e+03	3.02162e+00	1.71583e+02
1587	1.73488e+02	1.58700e+03	3.02113e+00	1.72250e+02
1595	1.74170e+02	1.59500e+03	3.02061e+00	1.72917e+02
1603	1.74853e+02	1.60300e+03	3.02022e+00	1.73583e+02
1611	1.75513e+02	1.61100e+03	3.01968e+00	1.74250e+02
1619	1.76187e+02	1.61900e+03	3.01913e+00	1.74917e+02
1627	1.76879e+02	1.62700e+03	3.01870e+00	1.75583e+02
1635	1.77535e+02	1.63500e+03	3.01823e+00	1.76250e+02
1643	1.78212e+02	1.64300e+03	3.01769e+00	1.76917e+02
1651	1.78886e+02	1.65100e+03	3.01720e+00	1.77583e+02
1659	1.79565e+02	1.65900e+03	3.01675e+00	1.78250e+02
1667	1.80231e+02	1.66700e+03	3.01620e+00	1.78917e+02
1675	1.80902e+02	1.67500e+03	3.01561e+00	1.79583e+02
1683	1.81579e+02	1.68300e+03	3.01490e+00	1.80250e+02
1691	1.82240e+02	1.69100e+03	3.01415e+00	1.80917e+02
1699	1.82904e+02	1.69900e+03	3.01347e+00	1.81583e+02
1707	1.83587e+02	1.70700e+03	3.01303e+00	1.82250e+02
1715	1.84259e+02	1.71500e+03	3.01232e+00	1.82917e+02
1723	1.84933e+02	1.72300e+03	3.01160e+00	1.83583e+02
1731	1.85598e+02	1.73100e+03	3.01093e+00	1.84250e+02
1739	1.86275e+02	1.73900e+03	3.01018e+00	1.84917e+02
1747	1.86927e+02	1.74700e+03	3.00950e+00	1.85583e+02
1755	1.87607e+02	1.75500e+03	3.00878e+00	1.86250e+02
1763	1.88281e+02	1.76300e+03	3.00804e+00	1.86917e+02
1771	1.88954e+02	1.77100e+03	3.00727e+00	1.87583e+02
1779	1.89612e+02	1.77900e+03	3.00647e+00	1.88250e+02
1787	1.90283e+02	1.78700e+03	3.00569e+00	1.88917e+02
1795	1.90946e+02	1.79500e+03	3.00503e+00	1.89583e+02
1803	1.91628e+02	1.80300e+03	3.00445e+00	1.90250e+02
1811	1.92302e+02	1.81100e+03	3.00348e+00	1.90917e+02
1819	1.92964e+02	1.81900e+03	3.00286e+00	1.91583e+02
1827	1.93645e+02	1.82700e+03	3.00216e+00	1.92250e+02
1835	1.94317e+02	1.83500e+03	3.00144e+00	1.92917e+02
1843	1.94978e+02	1.84300e+03	3.00064e+00	1.93583e+02
1851	1.95659e+02	1.85100e+03	2.99985e+00	1.94250e+02
1859	1.96325e+02	1.85900e+03	2.99913e+00	1.94917e+02
1867	1.96993e+02	1.86700e+03	2.99839e+00	1.95583e+02
1875	1.97679e+02	1.87500e+03	2.99746e+00	1.96250e+02
1883	1.98336e+02	1.88300e+03	2.99667e+00	1.96917e+02
1891	1.99017e+02	1.89100e+03	2.99585e+00	1.97583e+02
1899	1.99680e+02	1.89900e+03	2.99501e+00	1.98250e+02
1907	2.00355e+02	1.90700e+03	2.99429e+00	1.98917e+02
1915	2.01015e+02	1.91500e+03	2.99358e+00	1.99583e+02
1923	2.01674e+02	1.92300e+03	2.99274e+00	2.00250e+02
1931	2.02361e+02	1.93100e+03	2.99190e+00	2.00917e+02
1939	2.03026e+02	1.93900e+03	2.99121e+00	2.01583e+02
1947	2.03696e+02	1.94700e+03	2.99044e+00	2.02250e+02
1955	2.04375e+02	1.95500e+03	2.98958e+00	2.02917e+02
1963	2.05061e+02	1.96300e+03	2.98874e+00	2.03583e+02
1971	2.05708e+02	1.97100e+03	2.98803e+00	2.04250e+02
1979	2.06381e+02	1.97900e+03	2.98715e+00	2.04917e+02
1987	2.07068e+02	1.98700e+03	2.98628e+00	2.05583e+02
1995	2.07734e+02	1.99500e+03	2.98553e+00	2.06250e+02
2003	2.08385e+02	2.00300e+03	2.98476e+00	2.06917e+02
2011	2.09058e+02	2.01100e+03	2.98382e+00	2.07583e+02
2019	2.09741e+02	2.01900e+03	2.98312e+00	2.08250e+02
2027	2.10401e+02	2.02700e+03	2.98234e+00	2.08917e+02
2035	2.11066e+02	2.03500e+03	2.98139e+00	2.09583e+02
2043	2.11737e+02	2.04300e+03	2.98058e+00	2.10250e+02
2051	2.12415e+02	2.05100e+03	2.97976e+00	2.10917e+02
2059	2.13083e+02	2.05900e+03	2.97893e+00	2.11583e+02
2067	2.13734e+02	2.06700e+03	2.97799e+00	2.12250e+02
2075	2.14412e+02	2.07500e+03	2.97711e+00	2.12917e+02
2083	2.15078e+02	2.08300e+03	2.97622e+00	2.13583e+02
2091	2.15752e+02	2.09100e+03	2.97532e+00	2.14250e+02
2099	2.16424e+02	2.09900e+03	2.97443e+00	2.14917e+02
2107	2.17088e+02	2.10700e+03	2.97357e+00	2.15583e+02
2115	2.17771e+02	2.11500e+03	2.97270e+00	2.16250e+02
2123	2.18444e+02	2.12300e+03	2.97180e+00	2.16917e+02
2131	2.19108e+02	2.13100e+03	2.97102e+00	2.17583e+02
2139	2.19764e+02	2.13900e+03	2.97007e+00	2.18250e+02
2147	2.20439e+02	2.14700e+03	2.96921e+00	2.18917e+02
2155	2.21112e+02	2.15500e+03	2.96839e+00	2.19583e+02
2163	2.21774e+02	2.16300e+03	2.96735e+00	2.20250e+02
2171	2.22436e+02	2.17100e+03	2.96636e+00	2.20917e+02
2179	2.23107e+02	2.17900e+03	2.96546e+00	2.21583e+02
2187	2.23765e+02	2.18700e+03	2.96445e+00	2.22250e+02
2195	2.24422e+02	2.19500e+03	2.96373e+00	2.22917e+02
2203	2.25088e+02	2.20300e+03	2.96275e+00	2.23583e+02
2211	2.25758e+02	2.21100e+03	2.96182e+00	2.24250e+02
2219	2.26423e+02	2.21900e+03	2.96098e+00	2.24917e+02
2227	2.27098e+02	2.22700e+03	2.96009e+00	2.25583e+02
2235	2.27753e+02	2.23500e+03	2.95900e+00	2.26250e+02
2243	2.28401e+02	2.24300e+03	2.95798e+00	2.26917e+02
2251	2.29065e+02	2.25100e+03	2.95720e+00	2.27583e+02
2259	2.29736e+02	2.25900e+03	2.95626e+00	2.28250e+02
2267	2.30384e+02	2.26700e+03	2.95540e+00	2.28917e+02
2275	2.31066e+02	2.27500e+03	2.95432e+00	2.29583e+02
2283	2.31742e+02	2.28300e+03	2.95336e+00	2.30250e+02
2291	2.32400e+02	2.29100e+03	2.95247e+00	2.30917e+02
2299	2.33079e+02	2.29900e+03	2.95153e+00	2.31583e+02
2307	2.33750e+02	2.30700e+03	2.95059e+00	2.32250e+02
2315	2.34402e+02	2.31500e+03	2.94969e+00	2.32917e+02
2323	2.35068e+02	2.32300e+03	2.94885e+00	2.33583e+02
2331	2.35731e+02	2.33100e+03	2.94771e+00	2.34250e+02
2339	2.36404e+02	2.33900e+03	2.94667e+00	2.34917e+02
2347	2.37074e+02	2.34700e+03	2.94582e+00	2.35583e+02
2355	2.37731e+02	2.35500e+03	2.94478e+00	2.36250e+02
2363	2.38393e+02	2.36300e+03	2.94391e+00	2.36917e+02
2371	2.39066e+02	2.37100e+03	2.94307e+00	2.37583e+02
2379	2.39737e+02	2.37900e+03	2.94211e+00	2.38250e+02
2387	2.40414e+02	2.38700e+03	2.94107e+00	2.38917e+02
2395	2.41074e+02	2.39500e+03	2.94018e+00	2.39583e+02
2403	2.41737e+02	2.40300e+03	2.93926e+00	2.40250e+02
2411	2.42395e+02	2.41100e+03	2.93831e+00	2.40917e+02
2419	2.43051e+02	2.41900e+03	2.93743e+00	2.41583e+02
2427	2.43712e+02	2.42700e+03	2.93645e+00	2.42250e+02
2435	2.44395e+02	2.43500e+03	2.93538e+00	2.42917e+02
2443	2.45071e+02	2.44300e+03	2.93439e+00	2.43583e+02
2451	2.45735e+02	2.45100e+03	2.93344e+00	2.44250e+02
2459	2.46394e+02	2.45900e+03	2.93248e+00	2.44917e+02
2467	2.47047e+02	2.46700e+03	2.93144e+00	2.45583e+02
2475	2.47716e+02	2.47500e+03	2.93039e+00	2.46250e+02
2483	2.48380e+02	2.48300e+03	2.92933e+00	2.46917e+02
2491	2.49052e+02	2.49100e+03	2.92846e+00	2.47583e+02
2499	2.49723e+02	2.49900e+03	2.92761e+00	2.48250e+02
2507	2.50380e+02	2.50700e+03	2.92675e+00	2.48917e+02
2515	2.51044e+02	2.51500e+03	2.92559e+00	2.49583e+02
2523	2.51697e+02	2.52300e+03	2.92466e+00	2.50250e+02
2531	2.52381e+02	2.53100e+03	2.92375e+00	2.50917e+02
2539	2.53051e+02	2.53900e+03	2.92271e+00	2.51583e+02
2547	2.53742e+02	2.54700e+03	2.92158e+00	2.52250e+02
2555	2.54401e+02	2.55500e+03	2.92051e+00	2.52917e+02
2563	2.55100e+02	2.56300e+03	2.91959e+00	2.53583e+02
2571	2.55755e+02	2.57100e+03	2.91843e+00	2.54250e+02
2579	2.56444e+02	2.57900e+03	2.91742e+00	2.54917e+02
2587	2.57102e+02	2.58700e+03	2.91643e+00	2.55583e+02
2595	2.57777e+02	2.59500e+03	2.91533e+00	2.56250e+02
2603	2.58447e+02	2.60300e+03	2.91424e+00	2.56917e+02
2611	2.59129e+02	2.61100e+03	2.91311e+00	2.57583e+02
2619	2.59811e+02	2.61900e+03	2.91217e+00	2.58250e+02
2627	2.60486e+02	2.62700e+03	2.91106e+00	2.58917e+02
2635	2.61158e+02	2.63500e+03	2.90978e+00	2.59583e+02
2643	2.61845e+02	2.64300e+03	2.90912e+00	2.60250e+02
2651	2.62542e+02	2.65100e+03	2.90792e+00	2.60917e+02
2659	2.63216e+02	2.65900e+03	2.90702e+00	2.61583e+02
2667	2.63911e+02	2.66700e+03	2.90529e+00	2.62250e+02
2675	2.64588e+02	2.67500e+03	2.90438e+00	2.62917e+02
2683	2.65249e+02	2.68300e+03	2.90327e+00	2.63583e+02
2691	2.65906e+02	2.69100e+03	2.90212e+00	2.64250e+02
2699	2.66587e+02	2.69900e+03	2.90142e+00	2.64917e+02
2707	2.67251e+02	2.70700e+03	2.90000e+00	2.65583e+02
2715	2.67908e+02	2.71500e+03	2.89863e+00	2.66250e+02
2723	2.68561e+02	2.72300e+03	2.89722e+00	2.66917e+02
2731	2.69203e+02	2.73100e+03	2.89594e+00	2.67583e+02
2739	2.69844e+02	2.73900e+03	2.89461e+00	2.68250e+02
2747	2.70503e+02	2.74700e+03	2.89325e+00	2.68917e+02
2755	2.71157e+02	2.75500e+03	2.89203e+00	2.69583e+02
2763	2.71824e+02	2.76300e+03	2.89049e+00	2.70250e+02
2771	2.72488e+02	2.77100e+03	2.88904e+00	2.70917e+02
2779	2.73131e+02	2.77900e+03	2.88755e+00	2.71583e+02
2787	2.73805e+02	2.78700e+03	2.88615e+00	2.72250e+02
2795	2.74475e+02	2.79500e+03	2.88465e+00	2.72917e+02
2803	2.75141e+02	2.80300e+03	2.88314e+00	2.73583e+02
2811	2.75807e+02	2.81100e+03	2.88146e+00	2.74250e+02
2819	2.76463e+02	2.81900e+03	2.87984e+00	2.74917e+02
2827	2.77136e+02	2.82700e+03	2.87822e+00	2.75583e+02
2835	2.77799e+02	2.83500e+03	2.87646e+00	2.76250e+02
2843	2.78461e+02	2.84300e+03	2.87469e+00	2.76917e+02
2851	2.79142e+02	2.85100e+03	2.87288e+00	2.77583e+02
2859	2.79786e+02	2.85900e+03	2.87094e+00	2.78250e+02
2867	2.80460e+02	2.86700e+03	2.86908e+00	2.78917e+02
2875	2.81114e+02	2.87500e+03	2.86722e+00	2.79583e+02
2883	2.81770e+02	2.88300e+03	2.86532e+00	2.80250e+02
2891	2.82419e+02	2.89100e+03	2.86325e+00	2.80917e+02
2899	2.83114e+02	2.89900e+03	2.86110e+00	2.81583e+02
2907	2.83769e+02	2.90700e+03	2.85898e+00	2.82250e+02
2915	2.84448e+02	2.91500e+03	2.85676e+00	2.82917e+02
2923	2.85098e+02	2.92300e+03	2.85460e+00	2.83583e+02
2931	2.85773e+02	2.93100e+03	2.85232e+00	2.84250e+02
2939	2.86453e+02	2.93900e+03	2.85001e+00	2.84917e+02
2947	2.87136e+02	2.94700e+03	2.84779e+00	2.85583e+02
2955	2.87798e+02	2.95500e+03	2.84520e+00	2.86250e+02
2963	2.88477e+02	2.96300e+03	2.84277e+00	2.86917e+02
2971	2.89202e+02	2.97100e+03	2.84027e+00	2.87583e+02
2979	2.89972e+02	2.97900e+03	2.83775e+00	2.88250e+02
2987	2.90677e+02	2.98700e+03	2.83516e+00	2.88917e+02
2995	2.91373e+02	2.99500e+03	2.83260e+00	2.89583e+02
3003	2.92122e+02	3.00300e+03	2.82998e+00	2.90250e+02
3011	2.92854e+02	3.01100e+03	2.82726e+00	2.90917e+02
3019	2.93514e+02	3.01900e+03	2.82436e+00	2.91583e+02
3027	2.94169e+02	3.02700e+03	2.82158e+00	2.92250e+02
3035	2.94832e+02	3.03500e+03	2.81872e+00	2.92917e+02
3043	2.95511e+02	3.04300e+03	2.81597e+00	2.93583e+02
3051	2.96215e+02	3.05100e+03	2.81326e+00	2.94250e+02
3059	2.96895e+02	3.05900e+03	2.81043e+00	2.94917e+02
3067	2.97560e+02	3.06700e+03	2.80750e+00	2.95583e+02
3075	2.98257e+02	3.07500e+03	2.80471e+00	2.96250e+02
3083	2.98944e+02	3.08300e+03	2.80164e+00	2.96917e+02
3091	2.99657e+02	3.09100e+03	2.79859e+00	2.97583e+02
3099	3.00359e+02	3.09900e+03	2.79570e+00	2.98250e+02
3107	3.01058e+02	3.10700e+03	2.79272e+00	2.98917e+02
3115	3.01761e+02	3.11500e+03	2.78981e+00	2.99583e+02
3123	3.02452e+02	3.12300e+03	2.78675e+00	3.00250e+02
3131	3.03118e+02	3.13100e+03	2.78375e+00	3.00917e+02
3139	3.03764e+02	3.13900e+03	2.78078e+00	3.01583e+02
3147	3.04423e+02	3.14700e+03	2.77709e+00	3.02250e+02
3155	3.05087e+02	3.15500e+03	2.77415e+00	3.02917e+02
3163	3.05742e+02	3.16300e+03	2.77129e+00	3.03583e+02
3171	3.06404e+02	3.17100e+03	2.76822e+00	3.04250e+02
3179	3.07086e+02	3.17900e+03	2.76478e+00	3.04917e+02
3187	3.07792e+02	3.18700e+03	2.76157e+00	3.05583e+02
3195	3.08483e+02	3.19500e+03	2.75850e+00	3.06250e+02
3203	3.09166e+02	3.20300e+03	2.75494e+00	3.06917e+02
3211	3.09836e+02	3.21100e+03	2.75120e+00	3.07583e+02
3219	3.10508e+02	3.21900e+03	2.74796e+00	3.08250e+02
3227	3.11237e+02	3.22700e+03	2.74436e+00	3.08917e+02
3235	3.11951e+02	3.23500e+03	2.74074e+00	3.09583e+02
3243	3.12664e+02	3.24300e+03	2.73710e+00	3.10250e+02
3251	3.13382e+02	3.25100e+03	2.73336e+00	3.10917e+02
3259	3.14036e+02	3.25900e+03	2.72955e+00	3.11583e+02
3267	3.14706e+02	3.26700e+03	2.72546e+00	3.12250e+02
3275	3.15390e+02	3.27500e+03	2.72137e+00	3.12917e+02
3283	3.16033e+02	3.28300e+03	2.71710e+00	3.13583e+02
3291	3.16682e+02	3.29100e+03	2.71267e+00	3.14250e+02
3299	3.17327e+02	3.29900e+03	2.70828e+00	3.14917e+02
3307	3.17983e+02	3.30700e+03	2.70371e+00	3.15583e+02
3315	3.18608e+02	3.31500e+03	2.69900e+00	3.16250e+02
3323	3.19240e+02	3.32300e+03	2.69413e+00	3.16917e+02
3331	3.19905e+02	3.33100e+03	2.68897e+00	3.17583e+02
3339	3.20565e+02	3.33900e+03	2.68352e+00	3.18250e+02
3347	3.21234e+02	3.34700e+03	2.67807e+00	3.18917e+02
3355	3.21909e+02	3.35500e+03	2.67255e+00	3.19583e+02
3363	3.22555e+02	3.36300e+03	2.66671e+00	3.20250e+02
3371	3.23227e+02	3.37100e+03	2.66073e+00	3.20917e+02
3379	3.23890e+02	3.37900e+03	2.65425e+00	3.21583e+02
3387	3.24569e+02	3.38700e+03	2.64777e+00	3.22250e+02
3395	3.25272e+02	3.39500e+03	2.64100e+00	3.22917e+02
3403	3.25928e+02	3.40300e+03	2.63403e+00	3.23583e+02
3411	3.26601e+02	3.41100e+03	2.62670e+00	3.24250e+02
3419	3.27256e+02	3.41900e+03	2.61908e+00	3.24917e+02
3427	3.27944e+02	3.42700e+03	2.61101e+00	3.25583e+02
3435	3.28588e+02	3.43500e+03	2.60259e+00	3.26250e+02
3443	3.29245e+02	3.44300e+03	2.59399e+00	3.26917e+02
3451	3.29912e+02	3.45100e+03	2.58496e+00	3.27583e+02
3459	3.30586e+02	3.45900e+03	2.57588e+00	3.28250e+02
3467	3.31237e+02	3.46700e+03	2.56589e+00	3.28917e+02
3475	3.31905e+02	3.47500e+03	2.55586e+00	3.29583e+02
3483	3.32592e+02	3.48300e+03	2.54521e+00	3.30250e+02
3491	3.33277e+02	3.49100e+03	2.53395e+00	3.30917e+02
3499	3.33951e+02	3.49900e+03	2.52240e+00	3.31583e+02
3507	3.34598e+02	3.50700e+03	2.50851e+00	3.32250e+02
3515	3.35241e+02	3.51500e+03	2.49422e+00	3.32917e+02
3523	3.35891e+02	3.52300e+03	2.48030e+00	3.33583e+02
3531	3.36585e+02	3.53100e+03	2.46606e+00	3.34250e+02
3539	3.37256e+02	3.53900e+03	2.45105e+00	3.34917e+02
3547	3.37914e+02	3.54700e+03	2.43594e+00	3.35583e+02
3555	3.38564e+02	3.55500e+03	2.42000e+00	3.36250e+02
3563	3.39245e+02	3.56300e+03	2.40315e+00	3.36917e+02
3571	3.39909e+02	3.57100e+03	2.38572e+00	3.37583e+02
3579	3.40606e+02	3.57900e+03	2.36784e+00	3.38250e+02
3587	3.41250e+02	3.58700e+03	2.34882e+00	3.38917e+02
3595	3.41889e+02	3.59500e+03	2.32834e+00	3.39583e+02
3603	3.42559e+02	3.60300e+03	2.30674e+00	3.40250e+02
3611	3.43235e+02	3.61100e+03	2.28495e+00	3.40917e+02
3619	3.43870e+02	3.61900e+03	2.26257e+00	3.41583e+02
3627	3.44526e+02	3.62700e+03	2.23919e+00	3.42250e+02
3635	3.45183e+02	3.63500e+03	2.21532e+00	3.42917e+02
3643	3.45882e+02	3.64300e+03	2.19038e+00	3.43583e+02
3651	3.46555e+02	3.65100e+03	2.16463e+00	3.44250e+02
3659	3.47231e+02	3.65900e+03	2.13850e+00	3.44917e+02
3667	3.47878e+02	3.66700e+03	2.11136e+00	3.45583e+02
3675	3.48481e+02	3.67500e+03	2.08341e+00	3.46250e+02
3683	3.49123e+02	3.68300e+03	2.05440e+00	3.46917e+02
3691	3.49768e+02	3.69100e+03	2.02454e+00	3.47583e+02
3699	3.50444e+02	3.69900e+03	1.99374e+00	3.48250e+02
3707	3.51146e+02	3.70700e+03	1.96188e+00	3.48917e+02
3715	3.51853e+02	3.71500e+03	1.92919e+00	3.49583e+02
3723	3.52559e+02	3.72300e+03	1.89589e+00	3.50250e+02
3731	3.53201e+02	3.73100e+03	1.86236e+00	3.50917e+02
3739	3.53845e+02	3.73900e+03	1.82817e+00	3.51583e+02
3747	3.54501e+02	3.74700e+03	1.79316e+00	3.52250e+02
3755	3.55192e+02	3.75500e+03	1.75691e+00	3.52917e+02
3763	3.55901e+02	3.76300e+03	1.72049e+00	3.53583e+02
3771	3.56564e+02	3.77100e+03	1.68396e+00	3.54250e+02
3779	3.57209e+02	3.77900e+03	1.64669e+00	3.54917e+02
3787	3.57877e+02	3.78700e+03	1.60899e+00	3.55583e+02
3795	3.58542e+02	3.79500e+03	1.57136e+00	3.56250e+02
3803	3.59192e+02	3.80300e+03	1.53277e+00	3.56917e+02
3811	3.59838e+02	3.81100e+03	1.49327e+00	3.57583e+02
3819	3.60490e+02	3.81900e+03	1.45493e+00	3.58250e+02
3827	3.61151e+02	3.82700e+03	1.41643e+00	3.58917e+02
3835	3.61809e+02	3.83500e+03	1.37826e+00	3.59583e+02
3843	3.62435e+02	3.84300e+03	1.34125e+00	3.60250e+02
3851	3.63092e+02	3.85100e+03	1.30551e+00	3.60917e+02
3859	3.63730e+02	3.85900e+03	1.26981e+00	3.61583e+02
3867	3.64403e+02	3.86700e+03	1.23402e+00	3.62250e+02
3875	3.65073e+02	3.87500e+03	1.19597e+00	3.62917e+02
3883	3.65760e+02	3.88300e+03	1.15941e+00	3.63583e+02
3891	3.66408e+02	3.89100e+03	1.12278e+00	3.64250e+02
3899	3.67078e+02	3.89900e+03	1.08522e+00	3.64917e+02
3907	3.67757e+02	3.90700e+03	1.04845e+00	3.65583e+02
3915	3.68441e+02	3.91500e+03	1.01273e+00	3.66250e+02
3923	3.69159e+02	3.92300e+03	9.76890e-01	3.66917e+02
3931	3.69844e+02	3.93100e+03	9.40100e-01	3.67583e+02
3939	3.70465e+02	3.93900e+03	9.01276e-01	3.68250e+02
3947	3.71116e+02	3.94700e+03	8.63797e-01	3.68917e+02
3955	3.71754e+02	3.95500e+03	8.26768e-01	3.69583e+02
3963	3.72406e+02	3.96300e+03	7.90562e-01	3.70250e+02
3971	3.73055e+02	3.97100e+03	7.55498e-01	3.70917e+02
3979	3.73718e+02	3.97900e+03	7.19705e-01	3.71583e+02
3987	3.74393e+02	3.98700e+03	6.84037e-01	3.72250e+02
3995	3.75049e+02	3.99500e+03	6.50553e-01	3.72917e+02
4003	3.75710e+02	4.00300e+03	6.18294e-01	3.73583e+02
4011	3.76372e+02	4.01100e+03	5.86716e-01	3.74250e+02
4019	3.77013e+02	4.01900e+03	5.56172e-01	3.74917e+02
4027	3.77667e+02	4.02700e+03	5.26824e-01	3.75583e+02
4035	3.78302e+02	4.03500e+03	4.98925e-01	3.76250e+02
4043	3.78929e+02	4.04300e+03	4.72200e-01	3.76917e+02
4051	3.79581e+02	4.05100e+03	4.46667e-01	3.77583e+02
4059	3.80257e+02	4.05900e+03	4.22464e-01	3.78250e+02
4067	3.80920e+02	4.06700e+03	3.99598e-01	3.78917e+02
4075	3.81574e+02	4.07500e+03	3.77953e-01	3.79583e+02
4083	3.82226e+02	4.08300e+03	3.57711e-01	3.80250e+02
4091	3.82864e+02	4.09100e+03	3.38750e-01	3.80917e+02
4099	3.83516e+02	4.09900e+03	3.20681e-01	3.81583e+02
4107	3.84153e+02	4.10700e+03	3.04095e-01	3.82250e+02
4115	3.84830e+02	4.11500e+03	2.87922e-01	3.82917e+02
4123	3.85519e+02	4.12300e+03	2.72987e-01	3.83583e+02
4131	3.86188e+02	4.13100e+03	2.58806e-01	3.84250e+02
4139	3.86860e+02	4.13900e+03	2.45428e-01	3.84917e+02
4147	3.87529e+02	4.14700e+03	2.33012e-01	3.85583e+02
4155	3.88251e+02	4.15500e+03	2.21747e-01	3.86250e+02
4163	3.88972e+02	4.16300e+03	2.10849e-01	3.86917e+02
4171	3.89744e+02	4.17100e+03	2.00698e-01	3.87583e+02
4179	3.90551e+02	4.17900e+03	1.91263e-01	3.88250e+02
4187	3.91252e+02	4.18700e+03	1.82525e-01	3.88917e+02
4195	3.91903e+02	4.19500e+03	1.74198e-01	3.89583e+02
4203	3.92538e+02	4.20300e+03	1.66343e-01	3.90250e+02
4211	3.93174e+02	4.21100e+03	1.59045e-01	3.90917e+02
4219	3.93824e+02	4.21900e+03	1.52243e-01	3.91583e+02
4227	3.94523e+02	4.22700e+03	1.45667e-01	3.92250e+02
4235	3.95181e+02	4.23500e+03	1.40343e-01	3.92917e+02
4243	3.95890e+02	4.24300e+03	1.34467e-01	3.93583e+02
4251	3.96621e+02	4.25100e+03	1.29185e-01	3.94250e+02
4259	3.97399e+02	4.25900e+03	1.24396e-01	3.94917e+02
4267	3.98094e+02	4.26700e+03	1.20240e-01	3.95583e+02
4275	3.98774e+02	4.27500e+03	1.15539e-01	3.96250e+02
4283	3.99453e+02	4.28300e+03	1.11454e-01	3.96917e+02
4291	4.00119e+02	4.29100e+03	1.07649e-01	3.97583e+02
4299	4.00789e+02	4.29900e+03	1.04004e-01	3.98250e+02
4307	4.01489e+02	4.30700e+03	1.00744e-01	3.98917e+02
4315	4.02174e+02	4.31500e+03	9.74056e-02	3.99583e+02
4323	4.02834e+02	4.32300e+03	9.45739e-02	4.00250e+02
4331	4.03481e+02	4.33100e+03	9.15673e-02	4.00917e+02
4339	4.04094e+02	4.33900e+03	8.81707e-02	4.01583e+02
4347	4.04764e+02	4.34700e+03	8.61632e-02	4.02250e+02
4355	4.05467e+02	4.35500e+03	8.38948e-02	4.02917e+02
4363	4.06169e+02	4.36300e+03	8.14404e-02	4.03583e+02
4371	4.06896e+02	4.37100e+03	7.91653e-02	4.04250e+02
4379	4.07726e+02	4.37900e+03	7.70685e-02	4.04917e+02
4387	4.08450e+02	4.38700e+03	7.51627e-02	4.05583e+02
4395	4.09290e+02	4.39500e+03	7.31123e-02	4.06250e+02
4403	4.10039e+02	4.40300e+03	7.12126e-02	4.06917e+02
4411	4.10673e+02	4.41100e+03	6.95676e-02	4.07583e+02
4419	4.11396e+02	4.41900e+03	6.77470e-02	4.08250e+02
4427	4.12076e+02	4.42700e+03	6.61939e-02	4.08917e+02
4435	4.12742e+02	4.43500e+03	6.47147e-02	4.09583e+02
4443	4.13387e+02	4.44300e+03	6.32165e-02	4.10250e+02
4451	4.14049e+02	4.45100e+03	6.16283e-02	4.10917e+02
4459	4.14694e+02	4.45900e+03	6.01638e-02	4.11583e+02
4467	4.15470e+02	4.46700e+03	5.88173e-02	4.12250e+02
4475	4.16139e+02	4.47500e+03	5.75456e-02	4.12917e+02
4483	4.16670e+02	4.48300e+03	5.63024e-02	4.13583e+02
4491	4.17168e+02	4.49100e+03	5.49828e-02	4.14250e+02
4499	4.17690e+02	4.49900e+03	5.40026e-02	4.14917e+02
4507	4.18255e+02	4.50700e+03	5.30307e-02	4.15583e+02
4515	4.18840e+02	4.51500e+03	5.19253e-02	4.16250e+02
4523	4.19487e+02	4.52300e+03	5.10337e-02	4.16917e+02
4531	4.20110e+02	4.53100e+03	5.01322e-02	4.17583e+02
4539	4.20783e+02	4.53900e+03	4.92859e-02	4.18250e+02
4547	4.21402e+02	4.54700e+03	4.86549e-02	4.18917e+02
4555	4.22001e+02	4.55500e+03	4.80842e-02	4.19583e+02
4563	4.22620e+02	4.56300e+03	4.74330e-02	4.20250e+02
4571	4.23245e+02	4.57100e+03	4.69408e-02	4.20917e+02
4579	4.23874e+02	4.57900e+03	4.64476e-02	4.21583e+02
4587	4.24515e+02	4.58700e+03	4.62672e-02	4.22250e+02
4595	4.25152e+02	4.59500e+03	4.60845e-02	4.22917e+02
4603	4.25793e+02	4.60300e+03	4.59231e-02	4.23583e+02
4611	4.26434e+02	4.61100e+03	4.56986e-02	4.24250e+02
4619	4.27063e+02	4.61900e+03	4.55522e-02	4.24917e+02
4627	4.27704e+02	4.62700e+03	4.55274e-02	4.25583e+02
4635	4.28339e+02	4.63500e+03	4.53624e-02	4.26250e+02
4643	4.28980e+02	4.64300e+03	4.51230e-02	4.26917e+02
4651	4.29633e+02	4.65100e+03	4.47568e-02	4.27583e+02
4659	4.30274e+02	4.65900e+03	4.47710e-02	4.28250e+02
4667	4.30917e+02	4.66700e+03	4.54645e-02	4.28917e+02
4675	4.31549e+02	4.67500e+03	4.53715e-02	4.29583e+02
4683	4.32195e+02	4.68300e+03	4.48736e-02	4.30250e+02
4691	4.32833e+02	4.69100e+03	4.48436e-02	4.30917e+02
4699	4.33475e+02	4.69900e+03	4.45055e-02	4.31583e+02
4707	4.34122e+02	4.70700e+03	4.44831e-02	4.32250e+02
4715	4.34781e+02	4.71500e+03	4.44904e-02	4.32917e+02
4723	4.35423e+02	4.72300e+03	4.38897e-02	4.33583e+02
4731	4.36076e+02	4.73100e+03	4.41805e-02	4.34250e+02
4739	4.36737e+02	4.73900e+03	4.45354e-02	4.34917e+02
4747	4.37392e+02	4.74700e+03	4.41930e-02	4.35583e+02
4755	4.38031e+02	4.75500e+03	4.39470e-02	4.36250e+02
4763	4.38651e+02	4.76300e+03	4.40454e-02	4.36917e+02
4771	4.39296e+02	4.77100e+03	4.40520e-02	4.37583e+02
4779	4.39953e+02	4.77900e+03	4.40408e-02	4.38250e+02
4787	4.40596e+02	4.78700e+03	4.39725e-02	4.38917e+02
4795	4.41234e+02	4.79500e+03	4.39551e-02	4.39583e+02
4803	4.41888e+02	4.80300e+03	4.37747e-02	4.40250e+02
4811	4.42529e+02	4.81100e+03	4.37565e-02	4.40917e+02
4819	4.43191e+02	4.81900e+03	4.33588e-02	4.41583e+02
4827	4.43836e+02	4.82700e+03	4.30422e-02	4.42250e+02
4835	4.44022e+02	4.83500e+03	4.33848e-02	4.42917e+02
4843	4.44575e+02	4.84300e+03	4.36382e-02	4.43583e+02
4851	4.45171e+02	4.85100e+03	4.39950e-02	4.44250e+02
4859	4.45801e+02	4.85900e+03	4.35853e-02	4.44917e+02
4867	4.46450e+02	4.86700e+03	4.35107e-02	4.45583e+02
4875	4.47085e+02	4.87500e+03	4.34291e-02	4.46250e+02
4883	4.47718e+02	4.88300e+03	4.34230e-02	4.46917e+02
4891	4.48329e+02	4.89100e+03	4.33978e-02	4.47583e+02
4899	4.48978e+02	4.89900e+03	4.33613e-02	4.48250e+02
4907	4.49618e+02	4.90700e+03	4.33963e-02	4.48917e+02
4915	4.50260e+02	4.91500e+03	4.32093e-02	4.49583e+02
4923	4.50892e+02	4.92300e+03	4.31523e-02	4.50250e+02
4931	4.51556e+02	4.93100e+03	4.32487e-02	4.50917e+02
4939	4.52210e+02	4.93900e+03	4.31492e-02	4.51583e+02
4947	4.52855e+02	4.94700e+03	4.32044e-02	4.52250e+02
4955	4.53505e+02	4.95500e+03	4.30748e-02	4.52917e+02
4963	4.54157e+02	4.96300e+03	4.30623e-02	4.53583e+02
4971	4.54801e+02	4.97100e+03	4.30670e-02	4.54250e+02
4979	4.55438e+02	4.97900e+03	4.30560e-02	4.54917e+02
4987	4.56087e+02	4.98700e+03	4.29435e-02	4.55583e+02
4995	4.56750e+02	4.99500e+03	4.29214e-02	4.56250e+02
5003	4.57406e+02	5.00300e+03	4.28881e-02	4.56917e+02
5011	4.58058e+02	5.01100e+03	4.28783e-02	4.57583e+02
5019	4.58698e+02	5.01900e+03	4.28297e-02	4.58250e+02
5027	4.59350e+02	5.02700e+03	4.26794e-02	4.58917e+02
5035	4.60006e+02	5.03500e+03	4.28694e-02	4.59583e+02
5043	4.60666e+02	5.04300e+03	4.28412e-02	4.60250e+02
5051	4.61329e+02	5.05100e+03	4.28255e-02	4.60917e+02
5059	4.61972e+02	5.05900e+03	4.28649e-02	4.61583e+02
5067	4.62628e+02	5.06700e+03	4.28010e-02	4.62250e+02
5075	4.63284e+02	5.07500e+03	4.27760e-02	4.62917e+02
5083	4.63927e+02	5.08300e+03	4.27319e-02	4.63583e+02
5091	4.64584e+02	5.09100e+03	4.27663e-02	4.64250e+02
5099	4.65235e+02	5.09900e+03	4.28247e-02	4.64917e+02
5107	4.65905e+02	5.10700e+03	4.27210e-02	4.65583e+02
5115	4.66565e+02	5.11500e+03	4.28787e-02	4.66250e+02
5123	4.67215e+02	5.12300e+03	4.28194e-02	4.66917e+02
5131	4.67882e+02	5.13100e+03	4.27582e-02	4.67583e+02
5139	4.68539e+02	5.13900e+03	4.28028e-02	4.68250e+02
5147	4.69202e+02	5.14700e+03	4.27189e-02	4.68917e+02
5155	4.69855e+02	5.15500e+03	4.22691e-02	4.69583e+02
5163	4.70508e+02	5.16300e+03	4.26309e-02	4.70250e+02
5171	4.71165e+02	5.17100e+03	4.26335e-02	4.70917e+02
5179	4.71834e+02	5.17900e+03	4.25763e-02	4.71583e+02
5187	4.72469e+02	5.18700e+03	4.24722e-02	4.72250e+02
5195	4.73134e+02	5.19500e+03	4.23506e-02	4.72917e+02
5203	4.73787e+02	5.20300e+03	4.26439e-02	4.73583e+02
5211	4.74443e+02	5.21100e+03	4.25664e-02	4.74250e+02
5219	4.75099e+02	5.21900e+03	4.24774e-02	4.74917e+02
5227	4.75766e+02	5.22700e+03	4.28833e-02	4.75583e+02
5235	4.76433e+02	5.23500e+03	4.23537e-02	4.76250e+02
5243	4.77086e+02	5.24300e+03	4.25854e-02	4.76917e+02
5251	4.77733e+02	5.25100e+03	4.24137e-02	4.77583e+02
5259	4.78407e+02	5.25900e+03	4.22938e-02	4.78250e+02
5267	4.79052e+02	5.26700e+03	4.23013e-02	4.78917e+02
5275	4.79716e+02	5.27500e+03	4.22283e-02	4.79583e+02
5283	4.80372e+02	5.28300e+03	4.22301e-02	4.80250e+02
5291	4.81038e+02	5.29100e+03	4.23739e-02	4.80917e+02
5299	4.81708e+02	5.29900e+03	4.20685e-02	4.81583e+02
5307	4.82348e+02	5.30700e+03	4.21963e-02	4.82250e+02
5315	4.83010e+02	5.31500e+03	4.23138e-02	4.82917e+02
5323	4.83665e+02	5.32300e+03	4.21852e-02	4.83583e+02
5331	4.84328e+02	5.33100e+03	4.22714e-02	4.84250e+02
5339	4.84994e+02	5.33900e+03	4.24117e-02	4.84917e+02
5347	4.85665e+02	5.34700e+03	4.20107e-02	4.85583e+02
5355	4.86313e+02	5.35500e+03	4.23766e-02	4.86250e+02
5363	4.86978e+02	5.36300e+03	4.17601e-02	4.86917e+02
5371	4.87628e+02	5.37100e+03	4.20605e-02	4.87583e+02
5379	4.88295e+02	5.37900e+03	4.21025e-02	4.88250e+02
5387	4.88957e+02	5.38700e+03	4.20219e-02	4.88917e+02
5395	4.89619e+02	5.39500e+03	4.20788e-02	4.89583e+02
5403	4.90292e+02	5.40300e+03	4.20322e-02	4.90250e+02
5411	4.90945e+02	5.41100e+03	4.21187e-02	4.90917e+02
5419	4.91606e+02	5.41900e+03	4.19646e-02	4.91583e+02
5427	4.92253e+02	5.42700e+03	4.20665e-02	4.92250e+02
5435	4.92917e+02	5.43500e+03	4.20543e-02	4.92917e+02
5443	4.93574e+02	5.44300e+03	4.21428e-02	4.93583e+02
5451	4.94226e+02	5.45100e+03	4.20892e-02	4.94250e+02
5459	4.94884e+02	5.45900e+03	4.20840e-02	4.94917e+02
5467	4.95545e+02	5.46700e+03	4.18609e-02	4.95583e+02
5475	4.96214e+02	5.47500e+03	4.21303e-02	4.96250e+02
5483	4.96862e+02	5.48300e+03	4.18342e-02	4.96917e+02
5491	4.97527e+02	5.49100e+03	4.18116e-02	4.97583e+02
5499	4.98178e+02	5.49900e+03	4.19030e-02	4.98250e+02
5507	4.98839e+02	5.50700e+03	4.18246e-02	4.98917e+02
5515	4.99494e+02	5.51500e+03	4.18023e-02	4.99583e+02
5523	5.00145e+02	5.52300e+03	4.21246e-02	5.00250e+02
5531	5.00812e+02	5.53100e+03	4.18414e-02	5.00917e+02
5539	5.01475e+02	5.53900e+03	4.19042e-02	5.01583e+02
5547	5.02134e+02	5.54700e+03	4.19091e-02	5.02250e+02
5555	5.02782e+02	5.55500e+03	4.18576e-02	5.02917e+02
5563	5.03440e+02	5.56300e+03	4.19028e-02	5.03583e+02
5571	5.04093e+02	5.57100e+03	4.19766e-02	5.04250e+02
5579	5.04757e+02	5.57900e+03	4.17800e-02	5.04917e+02
5587	5.05412e+02	5.58700e+03	4.18812e-02	5.05583e+02
5595	5.06070e+02	5.59500e+03	4.19462e-02	5.06250e+02
5603	5.06715e+02	5.60300e+03	4.20778e-02	5.06917e+02
5611	5.07380e+02	5.61100e+03	4.16479e-02	5.07583e+02
5619	5.08024e+02	5.61900e+03	4.17545e-02	5.08250e+02
5627	5.08678e+02	5.62700e+03	4.19237e-02	5.08917e+02
5635	5.09346e+02	5.63500e+03	4.18125e-02	5.09583e+02
5643	5.09988e+02	5.64300e+03	4.18691e-02	5.10250e+02
5651	5.10648e+02	5.65100e+03	4.16944e-02	5.10917e+02
5659	5.11300e+02	5.65900e+03	4.19085e-02	5.11583e+02
5667	5.11942e+02	5.66700e+03	4.21702e-02	5.12250e+02
5675	5.12613e+02	5.67500e+03	4.17167e-02	5.12917e+02
5683	5.13269e+02	5.68300e+03	4.16340e-02	5.13583e+02
5691	5.13935e+02	5.69100e+03	4.17518e-02	5.14250e+02
5699	5.14582e+02	5.69900e+03	4.17182e-02	5.14917e+02
5707	5.15240e+02	5.70700e+03	4.17479e-02	5.15583e+02
5715	5.15885e+02	5.71500e+03	4.16706e-02	5.16250e+02
5723	5.16539e+02	5.72300e+03	4.16616e-02	5.16917e+02
5731	5.17205e+02	5.73100e+03	4.17414e-02	5.17583e+02
5739	5.17871e+02	5.73900e+03	4.19880e-02	5.18250e+02
5747	5.18537e+02	5.74700e+03	4.17157e-02	5.18917e+02
5755	5.19184e+02	5.75500e+03	4.14843e-02	5.19583e+02
5763	5.19847e+02	5.76300e+03	4.14766e-02	5.20250e+02
5771	5.20500e+02	5.77100e+03	4.15224e-02	5.20917e+02
5779	5.21159e+02	5.77900e+03	4.15090e-02	5.21583e+02
5787	5.21826e+02	5.78700e+03	4.16634e-02	5.22250e+02
5795	5.22487e+02	5.79500e+03	4.15445e-02	5.22917e+02
5803	5.23143e+02	5.80300e+03	4.15463e-02	5.23583e+02
5811	5.23798e+02	5.81100e+03	4.14528e-02	5.24250e+02
5819	5.24465e+02	5.81900e+03	4.14173e-02	5.24917e+02
5827	5.25121e+02	5.82700e+03	4.13587e-02	5.25583e+02
5835	5.25769e+02	5.83500e+03	4.14063e-02	5.26250e+02
5843	5.26432e+02	5.84300e+03	4.13163e-02	5.26917e+02
5851	5.27082e+02	5.85100e+03	4.12284e-02	5.27583e+02
5859	5.27726e+02	5.85900e+03	4.12884e-02	5.28250e+02
5867	5.28382e+02	5.86700e+03	4.13161e-02	5.28917e+02
5875	5.29024e+02	5.87500e+03	4.11521e-02	5.29583e+02
5883	5.29687e+02	5.88300e+03	4.11368e-02	5.30250e+02
5891	5.30337e+02	5.89100e+03	4.13435e-02	5.30917e+02
5899	5.31002e+02	5.89900e+03	4.14369e-02	5.31583e+02
5907	5.31663e+02	5.90700e+03	4.13385e-02	5.32250e+02
5915	5.32326e+02	5.91500e+03	4.12778e-02	5.32917e+02
5923	5.32991e+02	5.92300e+03	4.12642e-02	5.33583e+02
5931	5.33646e+02	5.93100e+03	4.13394e-02	5.34250e+02
5939	5.34319e+02	5.93900e+03	4.12901e-02	5.34917e+02
5947	5.34962e+02	5.94700e+03	4.11541e-02	5.35583e+02
5955	5.35636e+02	5.95500e+03	4.11748e-02	5.36250e+02
5963	5.36301e+02	5.96300e+03	4.12378e-02	5.36917e+02
5971	5.36952e+02	5.97100e+03	4.11458e-02	5.37583e+02
5979	5.37618e+02	5.97900e+03	4.12184e-02	5.38250e+02
5987	5.38282e+02	5.98700e+03	4.11649e-02	5.38917e+02
5995	5.38936e+02	5.99500e+03	4.11915e-02	5.39583e+02
6003	5.39603e+02	6.00300e+03	4.11346e-02	5.40250e+02
6011	5.40262e+02	6.01100e+03	4.10837e-02	5.40917e+02
6019	5.40934e+02	6.01900e+03	4.10866e-02	5.41583e+02
6027	5.41586e+02	6.02700e+03	4.10692e-02	5.42250e+02
6035	5.42247e+02	6.03500e+03	4.09734e-02	5.42917e+02
6043	5.42910e+02	6.04300e+03	4.09262e-02	5.43583e+02
6051	5.43570e+02	6.05100e+03	4.09850e-02	5.44250e+02
6059	5.44242e+02	6.05900e+03	4.09741e-02	5.44917e+02
6067	5.44901e+02	6.06700e+03	4.11151e-02	5.45583e+02
6075	5.45566e+02	6.07500e+03	4.10052e-02	5.46250e+02
6083	5.46235e+02	6.08300e+03	4.10119e-02	5.46917e+02
6091	5.46893e+02	6.09100e+03	4.10350e-02	5.47583e+02
6099	5.47552e+02	6.09900e+03	4.11256e-02	5.48250e+02
6107	5.48210e+02	6.10700e+03	4.10868e-02	5.48917e+02
6115	5.48876e+02	6.11500e+03	4.10971e-02	5.49583e+02
6123	5.49536e+02	6.12300e+03	4.11308e-02	5.50250e+02
6131	5.50186e+02	6.13100e+03	4.09925e-02	5.50917e+02
6139	5.50851e+02	6.13900e+03	4.10499e-02	5.51583e+02
6147	5.51510e+02	6.14700e+03	4.10370e-02	5.52250e+02
6155	5.52189e+02	6.15500e+03	4.09551e-02	5.52917e+02
6163	5.52842e+02	6.16300e+03	4.09561e-02	5.53583e+02
6171	5.53494e+02	6.17100e+03	4.09698e-02	5.54250e+02
6179	5.54148e+02	6.17900e+03	4.11038e-02	5.54917e+02
6187	5.54812e+02	6.18700e+03	4.11304e-02	5.55583e+02
6195	5.55469e+02	6.19500e+03	4.10737e-02	5.56250e+02
6203	5.56117e+02	6.20300e+03	4.09162e-02	5.56917e+02
6211	5.56768e+02	6.21100e+03	4.09023e-02	5.57583e+02
6219	5.57424e+02	6.21900e+03	4.10189e-02	5.58250e+02
6227	5.58080e+02	6.22700e+03	4.09506e-02	5.58917e+02
6235	5.58736e+02	6.23500e+03	4.08450e-02	5.59583e+02
6243	5.59393e+02	6.24300e+03	4.07792e-02	5.60250e+02
6251	5.60060e+02	6.25100e+03	4.07747e-02	5.60917e+02
6259	5.60717e+02	6.25900e+03	4.07866e-02	5.61583e+02
6267	5.61373e+02	6.26700e+03	4.08014e-02	5.62250e+02
6275	5.62040e+02	6.27500e+03	4.07593e-02	5.62917e+02
6283	5.62705e+02	6.28300e+03	4.07761e-02	5.63583e+02
6291	5.63369e+02	6.29100e+03	4.07415e-02	5.64250e+02
6299	5.64027e+02	6.29900e+03	4.06545e-02	5.64917e+02
6307	5.64697e+02	6.30700e+03	4.05815e-02	5.65583e+02
6315	5.65358e+02	6.31500e+03	4.05276e-02	5.66250e+02
6323	5.66014e+02	6.32300e+03	4.07049e-02	5.66917e+02
6331	5.66680e+02	6.33100e+03	4.06022e-02	5.67583e+02
6339	5.67347e+02	6.33900e+03	4.06165e-02	5.68250e+02
6347	5.68010e+02	6.34700e+03	4.06293e-02	5.68917e+02
6355	5.68679e+02	6.35500e+03	4.06925e-02	5.69583e+02
6363	5.69346e+02	6.36300e+03	4.07352e-02	5.70250e+02
6371	5.70011e+02	6.37100e+03	4.06775e-02	5.70917e+02
6379	5.70684e+02	6.37900e+03	4.06293e-02	5.71583e+02
6387	5.71341e+02	6.38700e+03	4.06982e-02	5.72250e+02
6395	5.72013e+02	6.39500e+03	4.07489e-02	5.72917e+02
6403	5.72683e+02	6.40300e+03	4.06203e-02	5.73583e+02
6411	5.73350e+02	6.41100e+03	4.05760e-02	5.74250e+02
6419	5.74045e+02	6.41900e+03	4.05347e-02	5.74917e+02
6427	5.74726e+02	6.42700e+03	4.06335e-02	5.75583e+02
6435	5.75399e+02	6.43500e+03	4.05642e-02	5.76250e+02
6443	5.76082e+02	6.44300e+03	4.04528e-02	5.76917e+02
6451	5.76754e+02	6.45100e+03	4.04892e-02	5.77583e+02
6459	5.77442e+02	6.45900e+03	4.04846e-02	5.78250e+02
6467	5.78109e+02	6.46700e+03	4.05490e-02	5.78917e+02
6475	5.78776e+02	6.47500e+03	4.04246e-02	5.79583e+02
6483	5.79435e+02	6.48300e+03	4.04842e-02	5.80250e+02
6491	5.80089e+02	6.49100e+03	4.05074e-02	5.80917e+02
6499	5.80757e+02	6.49900e+03	4.04588e-02	5.81583e+02
6507	5.81426e+02	6.50700e+03	4.04402e-02	5.82250e+02
6515	5.82094e+02	6.51500e+03	4.05058e-02	5.82917e+02
6523	5.82753e+02	6.52300e+03	4.03893e-02	5.83583e+02
6531	5.83427e+02	6.53100e+03	4.04198e-02	5.84250e+02
6539	5.84091e+02	6.53900e+03	4.04288e-02	5.84917e+02
6547	5.84785e+02	6.54700e+03	4.04833e-02	5.85583e+02
6555	5.85460e+02	6.55500e+03	4.04219e-02	5.86250e+02
6563	5.86135e+02	6.56300e+03	4.04947e-02	5.86917e+02
6571	5.86801e+02	6.57100e+03	4.05531e-02	5.87583e+02
6579	5.87456e+02	6.57900e+03	4.05149e-02	5.88250e+02
6587	5.88118e+02	6.58700e+03	4.03829e-02	5.88917e+02
6595	5.88783e+02	6.59500e+03	4.04089e-02	5.89583e+02
6603	5.89439e+02	6.60300e+03	4.04276e-02	5.90250e+02
6611	5.90097e+02	6.61100e+03	4.04657e-02	5.90917e+02
6619	5.90755e+02	6.61900e+03	4.05298e-02	5.91583e+02
6627	5.91422e+02	6.62700e+03	4.04104e-02	5.92250e+02
6635	5.92082e+02	6.63500e+03	4.03732e-02	5.92917e+02
6643	5.92743e+02	6.64300e+03	4.03858e-02	5.93583e+02
6651	5.93396e+02	6.65100e+03	4.03309e-02	5.94250e+02
6659	5.94060e+02	6.65900e+03	4.03626e-02	5.94917e+02
6667	5.94724e+02	6.66700e+03	4.02001e-02	5.95583e+02
6675	5.95383e+02	6.67500e+03	4.01745e-02	5.96250e+02
6683	5.96047e+02	6.68300e+03	4.02410e-02	5.96917e+02
6691	5.96704e+02	6.69100e+03	4.02450e-02	5.97583e+02
6699	5.97372e+02	6.69900e+03	4.02314e-02	5.98250e+02
6707	5.98026e+02	6.70700e+03	4.01748e-02	5.98917e+02
6715	5.98692e+02	6.71500e+03	4.00381e-02	5.99583e+02
6723	5.99345e+02	6.72300e+03	4.01044e-02	6.00250e+02
6731	6.00005e+02	6.73100e+03	4.02361e-02	6.00917e+02
6739	6.00667e+02	6.73900e+03	4.01654e-02	6.01583e+02
6747	6.01331e+02	6.74700e+03	4.00923e-02	6.02250e+02
6755	6.01980e+02	6.75500e+03	4.01192e-02	6.02917e+02
6763	6.02628e+02	6.76300e+03	4.01047e-02	6.03583e+02
6771	6.03290e+02	6.77100e+03	3.99677e-02	6.04250e+02
6779	6.03945e+02	6.77900e+03	3.99404e-02	6.04917e+02
6787	6.04607e+02	6.78700e+03	4.00184e-02	6.05583e+02
6795	6.05273e+02	6.79500e+03	3.99507e-02	6.06250e+02
6803	6.05937e+02	6.80300e+03	3.98810e-02	6.06917e+02
6811	6.06599e+02	6.81100e+03	3.98532e-02	6.07583e+02
6819	6.07259e+02	6.81900e+03	3.99150e-02	6.08250e+02
6827	6.07924e+02	6.82700e+03	3.99433e-02	6.08917e+02
6835	6.08594e+02	6.83500e+03	3.98787e-02	6.09583e+02
6843	6.09264e+02	6.84300e+03	3.99658e-02	6.10250e+02
6851	6.09924e+02	6.85100e+03	4.00064e-02	6.10917e+02
6859	6.10606e+02	6.85900e+03	4.00484e-02	6.11583e+02
6867	6.11270e+02	6.86700e+03	4.00921e-02	6.12250e+02
6875	6.11929e+02	6.87500e+03	3.99777e-02	6.12917e+02
6883	6.12590e+02	6.88300e+03	3.99570e-02	6.13583e+02
6891	6.13248e+02	6.89100e+03	3.97788e-02	6.14250e+02
6899	6.13928e+02	6.89900e+03	3.97704e-02	6.14917e+02
6907	6.14595e+02	6.90700e+03	3.98535e-02	6.15583e+02
6915	6.15258e+02	6.91500e+03	3.97113e-02	6.16250e+02
6923	6.15934e+02	6.92300e+03	3.97283e-02	6.16917e+02
6931	6.16583e+02	6.93100e+03	4.03512e-02	6.17583e+02
6939	6.17250e+02	6.93900e+03	3.98658e-02	6.18250e+02
6947	6.17912e+02	6.94700e+03	3.97822e-02	6.18917e+02
6955	6.18572e+02	6.95500e+03	3.96817e-02	6.19583e+02
6963	6.19227e+02	6.96300e+03	3.95842e-02	6.20250e+02
6971	6.19883e+02	6.97100e+03	3.97102e-02	6.20917e+02
6979	6.20555e+02	6.97900e+03	3.97936e-02	6.21583e+02
6987	6.21212e+02	6.98700e+03	3.93385e-02	6.22250e+02
6995	6.21870e+02	6.99500e+03	3.93555e-02	6.22917e+02
7003	6.22542e+02	7.00300e+03	3.95412e-02	6.23583e+02
7011	6.23198e+02	7.01100e+03	3.95321e-02	6.24250e+02
7019	6.23864e+02	7.01900e+03	3.95382e-02	6.24917e+02
7027	6.24537e+02	7.02700e+03	3.95833e-02	6.25583e+02
7035	6.25194e+02	7.03500e+03	3.94736e-02	6.26250e+02
7043	6.25865e+02	7.04300e+03	3.94208e-02	6.26917e+02
7051	6.26516e+02	7.05100e+03	3.95779e-02	6.27583e+02
7059	6.27181e+02	7.05900e+03	3.95036e-02	6.28250e+02
7067	6.27855e+02	7.06700e+03	3.95584e-02	6.28917e+02
7075	6.28516e+02	7.07500e+03	3.95597e-02	6.29583e+02
7083	6.29184e+02	7.08300e+03	3.98837e-02	6.30250e+02
7091	6.29853e+02	7.09100e+03	3.93732e-02	6.30917e+02
7099	6.30508e+02	7.09900e+03	3.93280e-02	6.31583e+02
7107	6.31167e+02	7.10700e+03	3.92006e-02	6.32250e+02
7115	6.31828e+02	7.11500e+03	3.93481e-02	6.32917e+02
7123	6.32489e+02	7.12300e+03	3.93686e-02	6.33583e+02
7131	6.33151e+02	7.13100e+03	3.93550e-02	6.34250e+02
7139	6.33800e+02	7.13900e+03	3.93639e-02	6.34917e+02
7147	6.34466e+02	7.14700e+03	3.95084e-02	6.35583e+02
7155	6.35130e+02	7.15500e+03	3.92733e-02	6.36250e+02
7163	6.35799e+02	7.16300e+03	3.90780e-02	6.36917e+02
7171	6.36454e+02	7.17100e+03	3.91566e-02	6.37583e+02
7179	6.37123e+02	7.17900e+03	3.92027e-02	6.38250e+02
7187	6.37782e+02	7.18700e+03	3.90779e-02	6.38917e+02
7195	6.38453e+02	7.19500e+03	3.90897e-02	6.39583e+02
7203	6.39114e+02	7.20300e+03	3.90479e-02	6.40250e+02
7211	6.39779e+02	7.21100e+03	3.88578e-02	6.40917e+02
7219	6.40450e+02	7.21900e+03	3.89879e-02	6.41583e+02
7227	6.41113e+02	7.22700e+03	3.90189e-02	6.42250e+02
7235	6.41770e+02	7.23500e+03	3.91187e-02	6.42917e+02
7243	6.42443e+02	7.24300e+03	3.91216e-02	6.43583e+02
7251	6.43100e+02	7.25100e+03	3.93776e-02	6.44250e+02
7259	6.43756e+02	7.25900e+03	3.91554e-02	6.44917e+02
7267	6.44428e+02	7.26700e+03	3.89137e-02	6.45583e+02
7275	6.45093e+02	7.27500e+03	3.91365e-02	6.46250e+02
7283	6.45755e+02	7.28300e+03	3.96046e-02	6.46917e+02
7291	6.46424e+02	7.29100e+03	3.94012e-02	6.47583e+02
7299	6.47093e+02	7.29900e+03	3.90378e-02	6.48250e+02
7307	6.47759e+02	7.30700e+03	3.89980e-02	6.48917e+02
7315	6.48417e+02	7.31500e+03	3.89647e-02	6.49583e+02
7323	6.49091e+02	7.32300e+03	3.89998e-02	6.50250e+02
7331	6.49750e+02	7.33100e+03	3.88035e-02	6.50917e+02
7339	6.50408e+02	7.33900e+03	3.89967e-02	6.51583e+02
7347	6.51073e+02	7.34700e+03	3.83710e-02	6.52250e+02
7355	6.51741e+02	7.35500e+03	3.88866e-02	6.52917e+02
7363	6.52410e+02	7.36300e+03	3.89174e-02	6.53583e+02
7371	6.53082e+02	7.37100e+03	3.88625e-02	6.54250e+02
7379	6.53733e+02	7.37900e+03	3.88123e-02	6.54917e+02
7387	6.54394e+02	7.38700e+03	3.88349e-02	6.55583e+02
7395	6.55070e+02	7.39500e+03	3.88962e-02	6.56250e+02
7403	6.55733e+02	7.40300e+03	3.87541e-02	6.56917e+02
7411	6.56395e+02	7.41100e+03	3.87767e-02	6.57583e+02
7419	6.57060e+02	7.41900e+03	3.87225e-02	6.58250e+02
7427	6.57728e+02	7.42700e+03	3.87127e-02	6.58917e+02
7435	6.58383e+02	7.43500e+03	3.88532e-02	6.59583e+02
7443	6.59057e+02	7.44300e+03	3.85844e-02	6.60250e+02
7451	6.59720e+02	7.45100e+03	3.85209e-02	6.60917e+02
7459	6.60390e+02	7.45900e+03	3.85804e-02	6.61583e+02
7467	6.61045e+02	7.46700e+03	3.86865e-02	6.62250e+02
7475	6.61723e+02	7.47500e+03	3.85902e-02	6.62917e+02
7483	6.62382e+02	7.48300e+03	3.86820e-02	6.63583e+02
7491	6.63037e+02	7.49100e+03	3.87029e-02	6.64250e+02
7499	6.63696e+02	7.49900e+03	3.88116e-02	6.64917e+02
7507	6.64363e+02	7.50700e+03	3.88276e-02	6.65583e+02
7515	6.65030e+02	7.51500e+03	3.87375e-02	6.66250e+02
7523	6.65699e+02	7.52300e+03	3.88146e-02	6.66917e+02
7531	6.66365e+02	7.53100e+03	3.89071e-02	6.67583e+02
7539	6.67026e+02	7.53900e+03	3.86168e-02	6.68250e+02
7547	6.67689e+02	7.54700e+03	3.88408e-02	6.68917e+02
7555	6.68356e+02	7.55500e+03	3.88977e-02	6.69583e+02
7563	6.69014e+02	7.56300e+03	3.88395e-02	6.70250e+02
7571	6.69682e+02	7.57100e+03	3.88047e-02	6.70917e+02
7579	6.70365e+02	7.57900e+03	3.87994e-02	6.71583e+02
7587	6.71032e+02	7.58700e+03	3.88466e-02	6.72250e+02
7595	6.71696e+02	7.59500e+03	3.88803e-02	6.72917e+02
7603	6.72365e+02	7.60300e+03	3.87227e-02	6.73583e+02
7611	6.73039e+02	7.61100e+03	3.85445e-02	6.74250e+02
7619	6.73696e+02	7.61900e+03	3.86727e-02	6.74917e+02
7627	6.74373e+02	7.62700e+03	3.85342e-02	6.75583e+02
7635	6.75027e+02	7.63500e+03	3.85476e-02	6.76250e+02
7643	6.75690e+02	7.64300e+03	3.84664e-02	6.76917e+02
7651	6.76371e+02	7.65100e+03	3.84219e-02	6.77583e+02
7659	6.77030e+02	7.65900e+03	3.83914e-02	6.78250e+02
7667	6.77697e+02	7.66700e+03	3.86031e-02	6.78917e+02
7675	6.78366e+02	7.67500e+03	3.86527e-02	6.79583e+02
7683	6.79025e+02	7.68300e+03	3.86052e-02	6.80250e+02
7691	6.79692e+02	7.69100e+03	3.84537e-02	6.80917e+02
7699	6.80370e+02	7.69900e+03	3.85192e-02	6.81583e+02
7707	6.81029e+02	7.70700e+03	3.84040e-02	6.82250e+02
7715	6.81691e+02	7.71500e+03	3.86650e-02	6.82917e+02
7723	6.82358e+02	7.72300e+03	3.83375e-02	6.83583e+02
7731	6.83025e+02	7.73100e+03	3.82866e-02	6.84250e+02
7739	6.83688e+02	7.73900e+03	3.82294e-02	6.84917e+02
7747	6.84363e+02	7.74700e+03	3.83221e-02	6.85583e+02
7755	6.85033e+02	7.75500e+03	3.84114e-02	6.86250e+02
7763	6.85697e+02	7.76300e+03	3.84510e-02	6.86917e+02
7771	6.86358e+02	7.77100e+03	3.83309e-02	6.87583e+02
7779	6.87030e+02	7.77900e+03	3.81679e-02	6.88250e+02
7787	6.87689e+02	7.78700e+03	3.87137e-02	6.88917e+02
7795	6.88365e+02	7.79500e+03	3.85125e-02	6.89583e+02
7803	6.89034e+02	7.80300e+03	3.85685e-02	6.90250e+02
7811	6.89709e+02	7.81100e+03	3.86582e-02	6.90917e+02
7819	6.90369e+02	7.81900e+03	3.85324e-02	6.91583e+02
7827	6.91040e+02	7.82700e+03	3.84654e-02	6.92250e+02
7835	6.91692e+02	7.83500e+03	3.84448e-02	6.92917e+02
7843	6.92358e+02	7.84300e+03	3.83508e-02	6.93583e+02
7851	6.93038e+02	7.85100e+03	3.83651e-02	6.94250e+02
7859	6.93703e+02	7.85900e+03	3.81805e-02	6.94917e+02
7867	6.94365e+02	7.86700e+03	3.78965e-02	6.95583e+02
7875	6.95049e+02	7.87500e+03	3.84109e-02	6.96250e+02
7883	6.95690e+02	7.88300e+03	3.85147e-02	6.96917e+02
7891	6.96351e+02	7.89100e+03	3.81458e-02	6.97583e+02
7899	6.96854e+02	7.89900e+03	3.81952e-02	6.98250e+02
7907	6.97298e+02	7.90700e+03	3.83104e-02	6.98917e+02
7915	6.97636e+02	7.91500e+03	3.82819e-02	6.99583e+02
7920	6.97806e+02	7.92000e+03	3.83185e-02	7.00000e+02