File: Experiments/TUBS/mcc/mcc_powder_2mg_dyn30_r2.txt
Sample Weight (mg):	1.99
Heating Rate (C/s):	0.5
Combustor Temp (C):	900
N2 Flow Rate (cc/min):	80
O2 Flow Rate (cc/min):	20
Time (s)	Temperature (C)	N2 flow rate (cc/min)	O2 flow rate (cc/min)	Flow Rate (cc/min)	Oxygen (%)	HRR (W/g)	Heating rate (C/s)
0.000	88.918	80.004	20.009	100.175	20.063	-1.242	0.013
2.000	89.068	80.006	20.009	100.223	20.065	-1.435	0.050
4.000	89.159	80.005	20.009	100.243	20.067	-1.754	0.084
6.000	89.237	80.004	20.009	100.258	20.063	-1.145	0.041
8.000	89.344	80.006	20.009	100.232	20.062	-0.955	0.065
10.000	89.524	80.004	20.009	100.228	20.057	-0.210	0.069
12.000	89.654	80.004	20.010	100.235	20.056	-0.037	0.095
14.000	89.751	80.004	20.009	100.242	20.056	-0.077	0.096
16.000	89.932	80.005	20.009	100.239	20.054	0.307	0.030
18.000	90.019	80.004	20.008	100.232	20.054	0.237	0.078
20.000	90.188	80.006	20.010	100.237	20.053	0.350	0.134
22.000	90.389	80.004	20.010	100.247	20.051	0.750	0.079
24.000	90.553	80.005	20.010	100.262	20.046	1.547	0.089
26.000	90.686	80.004	20.009	100.296	20.044	1.858	0.079
28.000	90.916	80.005	20.010	100.340	20.038	2.794	0.093
30.001	91.159	80.004	20.009	100.352	20.036	3.152	0.096
32.001	91.374	80.003	20.010	100.343	20.032	3.692	0.109
34.000	91.638	80.006	20.010	100.355	20.032	3.666	0.124
36.000	91.868	80.004	20.010	100.369	20.030	4.017	0.122
38.001	92.149	80.003	20.009	100.387	20.022	5.282	0.136
40.000	92.483	80.004	20.009	100.401	20.021	5.426	0.150
42.000	92.897	80.003	20.009	100.403	20.016	6.195	0.207
44.000	93.225	80.004	20.010	100.418	20.017	6.149	0.160
46.000	93.661	80.004	20.009	100.418	20.013	6.682	0.235
48.001	94.038	80.004	20.009	100.449	20.014	6.627	0.214
50.000	94.513	80.005	20.009	100.438	20.011	6.997	0.244
52.000	94.987	80.006	20.009	100.477	20.010	7.196	0.217
54.000	95.496	80.004	20.009	100.435	20.011	6.954	0.216
56.000	96.005	80.005	20.009	100.448	20.011	7.020	0.269
58.000	96.563	80.006	20.009	100.435	20.012	6.917	0.256
60.000	97.145	80.006	20.009	100.446	20.014	6.531	0.263
62.000	97.735	80.005	20.009	100.461	20.013	6.714	0.267
64.000	98.359	80.005	20.009	100.472	20.013	6.750	0.327
66.000	98.991	80.005	20.009	100.481	20.015	6.340	0.318
68.000	99.617	80.005	20.009	100.464	20.011	7.077	0.313
70.000	100.311	80.005	20.009	100.506	20.014	6.578	0.304
72.000	100.966	80.006	20.009	100.504	20.009	7.352	0.321
74.000	101.684	80.003	20.009	100.527	20.003	8.298	0.346
76.001	102.445	80.004	20.009	100.491	20.000	8.757	0.417
78.000	103.196	80.006	20.010	100.514	20.002	8.494	0.408
80.001	103.978	80.006	20.009	100.497	20.001	8.656	0.359
82.000	104.831	80.005	20.009	100.516	20.002	8.491	0.427
84.000	105.598	80.004	20.010	100.518	20.003	8.347	0.421
86.001	106.419	80.006	20.009	100.521	20.002	8.427	0.408
88.000	107.248	80.005	20.009	100.518	20.001	8.660	0.389
90.001	108.087	80.005	20.009	100.527	19.999	8.937	0.438
92.000	108.961	80.005	20.009	100.569	20.001	8.594	0.422
94.000	109.860	80.003	20.009	100.521	20.001	8.663	0.509
96.001	110.843	80.006	20.009	100.534	19.998	9.096	0.446
98.001	111.749	80.005	20.009	100.509	19.994	9.765	0.454
100.001	112.738	80.005	20.009	100.540	20.000	8.782	0.482
102.000	113.738	80.005	20.009	100.520	19.994	9.700	0.505
104.000	114.721	80.005	20.009	100.522	19.991	10.130	0.507
106.000	115.731	80.005	20.009	100.546	19.993	9.863	0.464
108.000	116.752	80.005	20.009	100.486	19.995	9.597	0.514
110.000	117.852	80.005	20.009	100.513	19.990	10.368	0.522
112.000	118.832	80.005	20.009	100.496	19.994	9.687	0.451
114.001	119.924	80.005	20.009	100.508	19.994	9.658	0.512
116.000	120.967	80.005	20.010	100.508	19.992	10.091	0.547
118.000	122.069	80.004	20.009	100.494	19.994	9.737	0.547
120.001	123.044	80.005	20.009	100.520	19.991	10.153	0.518
122.000	124.281	80.004	20.009	100.489	19.991	10.194	0.581
124.000	125.349	80.005	20.009	100.507	19.988	10.714	0.548
126.000	126.461	80.006	20.009	100.473	19.989	10.414	0.538
128.000	127.624	80.006	20.010	100.490	19.986	10.935	0.571
130.000	128.718	80.005	20.010	100.474	19.987	10.829	0.601
132.000	129.827	80.004	20.009	100.472	19.985	11.036	0.571
134.000	131.014	80.004	20.009	100.476	19.990	10.257	0.591
136.000	132.084	80.005	20.009	100.460	19.989	10.468	0.532
138.000	133.207	80.005	20.009	100.503	19.990	10.372	0.544
140.000	134.348	80.006	20.010	100.459	19.992	10.037	0.546
142.000	135.557	80.005	20.009	100.474	19.986	10.897	0.573
144.000	136.679	80.005	20.009	100.437	19.989	10.540	0.547
146.000	137.846	80.004	20.009	100.451	19.987	10.754	0.561
148.000	138.991	80.005	20.010	100.440	19.987	10.733	0.568
150.000	140.179	80.006	20.009	100.442	19.989	10.489	0.586
152.001	141.350	80.006	20.009	100.480	19.989	10.480	0.552
154.000	142.582	80.005	20.009	100.440	19.985	11.073	0.635
156.000	143.617	80.004	20.009	100.461	19.986	10.914	0.539
158.000	144.797	80.005	20.009	100.427	19.986	10.896	0.573
160.000	146.013	80.005	20.009	100.438	19.984	11.231	0.583
162.000	147.091	80.006	20.009	100.425	19.982	11.599	0.536
164.000	148.263	80.005	20.009	100.422	19.977	12.396	0.554
166.000	149.391	80.003	20.010	100.440	19.979	12.092	0.542
168.000	150.520	80.005	20.009	100.402	19.979	12.120	0.575
170.000	151.706	80.004	20.009	100.445	19.976	12.454	0.548
172.000	152.795	80.006	20.010	100.406	19.981	11.678	0.575
174.000	153.983	80.006	20.009	100.414	19.968	13.755	0.593
176.000	155.023	80.005	20.009	100.419	19.968	13.817	0.547
178.000	156.211	80.006	20.009	100.396	19.964	14.373	0.565
180.000	157.287	80.004	20.009	100.430	19.957	15.571	0.533
182.000	158.427	80.005	20.009	100.377	19.957	15.488	0.600
184.000	159.559	80.005	20.009	100.405	19.956	15.616	0.588
186.000	160.700	80.005	20.009	100.406	19.948	16.912	0.582
188.000	161.767	80.004	20.009	100.386	19.957	15.485	0.507
190.000	162.933	80.004	20.010	100.403	19.946	17.197	0.592
192.000	164.016	80.004	20.009	100.349	19.942	17.901	0.548
194.000	165.108	80.004	20.009	100.381	19.939	18.311	0.552
196.000	166.201	80.006	20.010	100.357	19.938	18.531	0.527
198.000	167.348	80.004	20.009	100.363	19.936	18.762	0.569
200.000	168.452	80.005	20.009	100.380	19.933	19.301	0.534
202.000	169.508	80.004	20.009	100.352	19.933	19.237	0.533
204.000	170.524	80.004	20.009	100.399	19.936	18.839	0.557
206.000	171.675	80.005	20.009	100.369	19.938	18.572	0.559
208.000	172.815	80.004	20.009	100.376	19.935	19.048	0.591
210.000	173.882	80.004	20.009	100.379	19.933	19.310	0.540
212.000	174.960	80.005	20.010	100.371	19.939	18.264	0.551
214.000	176.048	80.005	20.009	100.382	19.939	18.275	0.563
216.000	177.059	80.004	20.009	100.356	19.942	17.909	0.520
218.000	178.164	80.006	20.010	100.409	19.943	17.673	0.511
220.000	179.257	80.005	20.011	100.388	19.943	17.683	0.521
222.000	180.299	80.005	20.010	100.409	19.951	16.451	0.510
224.000	181.354	80.005	20.010	100.377	19.949	16.769	0.494
226.000	182.366	80.005	20.010	100.367	19.955	15.870	0.490
228.000	183.472	80.005	20.011	100.382	19.958	15.410	0.545
230.001	184.513	80.006	20.011	100.365	19.961	14.849	0.522
232.000	185.515	80.004	20.010	100.402	19.974	12.871	0.494
234.000	186.569	80.004	20.011	100.359	19.967	13.917	0.554
236.000	187.571	80.004	20.010	100.379	19.972	13.164	0.516
238.000	188.641	80.005	20.009	100.378	19.980	11.848	0.550
240.000	189.683	80.006	20.010	100.391	19.981	11.727	0.498
242.000	190.707	80.005	20.011	100.411	19.984	11.249	0.598
244.000	191.689	80.005	20.009	100.395	19.987	10.755	0.539
246.000	192.726	80.007	20.010	100.406	19.988	10.638	0.481
248.000	193.744	80.006	20.009	100.370	19.990	10.259	0.493
250.000	194.745	80.005	20.009	100.398	19.996	9.424	0.517
252.000	195.767	80.005	20.009	100.373	19.995	9.561	0.476
254.000	196.891	80.004	20.010	100.389	19.993	9.804	0.532
256.000	197.909	80.005	20.009	100.350	19.994	9.736	0.512
258.000	198.934	80.005	20.010	100.352	19.995	9.525	0.532
260.000	199.957	80.005	20.009	100.376	19.999	8.851	0.524
262.000	200.958	80.006	20.009	100.405	20.000	8.815	0.488
264.000	201.920	80.004	20.014	100.435	20.000	8.751	0.524
266.000	202.951	80.005	20.012	100.219	20.003	8.310	0.471
268.000	203.967	80.006	20.009	100.513	20.002	8.497	0.525
270.000	204.931	80.006	20.009	100.398	20.004	8.126	0.468
272.000	205.979	80.005	20.009	100.416	20.007	7.638	0.476
274.000	206.878	80.005	20.009	100.388	20.011	7.003	0.470
276.000	207.955	80.005	20.009	100.435	20.013	6.667	0.493
278.000	208.925	80.005	20.010	100.418	20.010	7.142	0.487
280.000	209.894	80.005	20.009	100.401	20.011	7.014	0.493
282.000	210.903	80.005	20.009	100.369	20.006	7.769	0.542
284.000	211.863	80.006	20.010	100.351	20.003	8.329	0.495
286.000	212.860	80.005	20.010	100.365	20.005	7.884	0.480
288.000	213.870	80.004	20.011	100.347	20.005	7.984	0.485
290.000	214.862	80.006	20.010	100.362	20.002	8.429	0.514
292.000	215.851	80.005	20.009	100.337	20.006	7.737	0.512
294.000	216.841	80.004	20.009	100.366	20.004	8.064	0.467
296.000	217.908	80.005	20.010	100.320	20.008	7.562	0.545
298.000	218.861	80.006	20.010	100.364	20.007	7.567	0.467
300.000	219.815	80.006	20.009	100.329	20.002	8.377	0.455
302.000	220.832	80.005	20.009	100.337	20.005	7.930	0.507
304.000	221.858	80.004	20.010	100.321	20.008	7.535	0.484
306.000	222.859	80.005	20.009	100.331	20.004	8.060	0.515
308.000	223.812	80.006	20.009	100.355	20.004	8.075	0.524
310.001	224.830	80.005	20.009	100.341	20.005	7.886	0.495
312.000	225.869	80.005	20.009	100.374	20.006	7.853	0.546
314.000	226.854	80.005	20.010	100.343	20.006	7.737	0.524
316.000	227.831	80.004	20.009	100.377	20.007	7.595	0.484
318.000	228.808	80.006	20.010	100.351	20.007	7.595	0.481
320.000	229.837	80.005	20.009	100.367	20.008	7.544	0.503
322.000	230.766	80.004	20.010	100.358	20.008	7.440	0.466
324.000	231.771	80.005	20.009	100.343	20.009	7.251	0.500
326.000	232.776	80.005	20.009	100.335	20.008	7.521	0.498
328.000	233.766	80.005	20.009	100.316	20.011	7.011	0.490
330.000	234.783	80.006	20.009	100.339	20.010	7.106	0.517
332.001	235.803	80.005	20.010	100.315	20.011	7.052	0.513
334.001	236.820	80.006	20.009	100.346	20.009	7.280	0.486
336.000	237.816	80.004	20.009	100.332	20.010	7.136	0.484
338.000	238.905	80.005	20.009	100.338	20.010	7.205	0.540
340.000	239.956	80.005	20.009	100.347	20.009	7.300	0.542
342.000	240.933	80.006	20.009	100.318	20.009	7.285	0.517
344.000	241.967	80.004	20.009	100.355	20.007	7.599	0.529
346.000	242.975	80.005	20.009	100.329	20.005	7.900	0.492
348.000	244.018	80.006	20.009	100.366	20.010	7.139	0.512
350.000	245.075	80.006	20.009	100.330	20.012	6.935	0.522
352.000	246.069	80.005	20.009	100.351	20.010	7.229	0.520
354.000	247.066	80.006	20.010	100.325	20.007	7.570	0.516
356.000	248.086	80.005	20.009	100.342	20.006	7.789	0.493
358.000	249.121	80.006	20.010	100.311	20.007	7.707	0.516
360.000	250.105	80.003	20.009	100.330	20.006	7.833	0.453
362.000	251.072	80.005	20.009	100.325	20.001	8.580	0.495
364.000	252.157	80.006	20.010	100.310	20.006	7.797	0.511
366.000	253.140	80.006	20.009	100.224	20.008	7.513	0.495
368.000	254.167	80.005	20.009	100.523	20.005	7.921	0.490
370.000	255.134	80.005	20.009	100.335	20.007	7.681	0.526
372.000	256.146	80.005	20.009	100.313	20.007	7.587	0.510
374.000	257.133	80.006	20.009	100.280	20.010	7.195	0.514
376.000	258.098	80.006	20.010	100.297	20.004	8.138	0.492
378.000	259.140	80.005	20.010	100.304	19.998	9.046	0.510
380.000	260.182	80.004	20.009	100.319	19.999	8.915	0.533
382.000	261.148	80.004	20.010	100.315	19.999	8.904	0.514
384.000	262.101	80.004	20.009	100.353	19.996	9.403	0.474
386.000	263.104	80.005	20.009	100.343	19.995	9.566	0.518
388.000	264.075	80.004	20.008	100.337	19.990	10.356	0.525
390.000	265.152	80.005	20.009	100.308	19.985	11.032	0.537
392.000	266.133	80.005	20.009	100.326	19.988	10.655	0.536
394.000	267.056	80.005	20.010	100.322	19.983	11.353	0.496
396.000	268.108	80.004	20.009	100.347	19.982	11.502	0.521
398.000	269.034	80.005	20.009	100.344	19.980	11.870	0.464
400.000	270.001	80.005	20.009	100.348	19.976	12.593	0.471
402.000	271.007	80.004	20.009	100.332	19.973	13.037	0.464
404.001	271.944	80.005	20.008	100.355	19.972	13.149	0.462
406.000	272.961	80.006	20.010	100.315	19.966	14.010	0.486
408.000	274.008	80.005	20.009	100.331	19.964	14.347	0.520
410.000	274.967	80.005	20.009	100.303	19.962	14.642	0.489
412.000	276.054	80.005	20.009	100.333	19.959	15.129	0.519
414.000	276.994	80.006	20.009	100.313	19.956	15.696	0.496
416.000	277.979	80.007	20.009	100.339	19.950	16.564	0.505
418.000	279.051	80.005	20.009	100.307	19.948	16.853	0.500
420.000	280.077	80.006	20.009	100.293	19.945	17.350	0.527
422.000	281.065	80.005	20.009	100.289	19.941	18.091	0.511
424.000	282.020	80.005	20.009	100.334	19.943	17.687	0.486
426.000	283.091	80.005	20.009	100.326	19.940	18.107	0.525
428.000	284.083	80.004	20.009	100.352	19.939	18.409	0.477
430.000	285.034	80.005	20.010	100.339	19.936	18.812	0.488
432.001	286.038	80.006	20.009	100.342	19.936	18.870	0.502
434.000	287.027	80.005	20.009	100.314	19.935	19.013	0.521
436.000	287.976	80.004	20.010	100.348	19.934	19.202	0.506
438.000	289.000	80.004	20.009	100.331	19.931	19.614	0.509
440.000	290.062	80.005	20.009	100.336	19.928	20.094	0.493
442.000	291.054	80.004	20.009	100.339	19.926	20.332	0.503
444.000	292.109	80.006	20.009	100.367	19.922	21.050	0.532
446.000	293.136	80.005	20.009	100.345	19.923	20.851	0.541
448.000	294.128	80.005	20.009	100.355	19.923	20.926	0.543
450.000	295.124	80.006	20.009	100.364	19.925	20.611	0.499
452.000	296.166	80.005	20.009	100.389	19.921	21.098	0.580
454.000	297.172	80.005	20.009	100.369	19.920	21.362	0.464
456.000	298.195	80.005	20.010	100.362	19.916	21.995	0.517
458.000	299.156	80.005	20.008	100.333	19.913	22.359	0.512
460.000	300.150	80.006	20.010	100.363	19.912	22.539	0.481
462.000	301.180	80.006	20.009	100.342	19.909	23.045	0.513
464.000	302.223	80.006	20.009	100.340	19.906	23.541	0.550
466.000	303.195	80.005	20.009	100.316	19.899	24.624	0.511
468.000	304.211	80.005	20.009	100.346	19.896	25.064	0.508
470.000	305.139	80.005	20.009	100.308	19.888	26.329	0.481
472.000	306.081	80.006	20.009	100.328	19.885	26.863	0.517
474.000	307.114	80.005	20.010	100.305	19.878	27.906	0.536
476.000	308.143	80.005	20.009	100.334	19.874	28.570	0.499
478.000	309.125	80.005	20.009	100.310	19.864	30.150	0.491
480.000	310.108	80.005	20.009	100.330	19.857	31.307	0.484
482.000	311.049	80.007	20.009	100.312	19.845	33.104	0.446
484.000	312.109	80.005	20.009	100.325	19.840	33.898	0.487
486.000	313.073	80.006	20.010	100.325	19.829	35.608	0.476
488.000	314.081	80.005	20.009	100.323	19.819	37.149	0.534
490.000	315.062	80.006	20.009	100.330	19.806	39.303	0.518
492.000	316.155	80.005	20.009	100.341	19.788	42.145	0.531
494.000	317.071	80.005	20.009	100.311	19.780	43.368	0.443
496.000	318.150	80.005	20.009	100.306	19.762	46.143	0.540
498.000	319.111	80.004	20.010	100.308	19.747	48.479	0.497
500.000	320.219	80.005	20.008	100.314	19.731	51.029	0.614
502.000	321.143	80.005	20.009	100.287	19.714	53.721	0.472
504.000	322.172	80.005	20.009	100.277	19.697	56.341	0.482
506.000	323.155	80.004	20.010	100.287	19.679	59.194	0.510
508.000	324.145	80.006	20.009	100.292	19.660	62.178	0.505
510.000	325.205	80.005	20.010	100.285	19.640	65.282	0.511
512.000	326.244	80.005	20.009	100.296	19.621	68.380	0.480
514.000	327.198	80.005	20.009	100.268	19.603	71.199	0.503
516.000	328.246	80.004	20.009	100.273	19.577	75.207	0.478
518.000	329.274	80.006	20.010	100.251	19.554	78.837	0.551
520.000	330.266	80.006	20.009	100.249	19.535	81.779	0.495
522.000	331.230	80.006	20.010	100.242	19.514	85.117	0.467
524.000	332.264	80.004	20.009	100.248	19.490	88.924	0.480
526.000	333.260	80.005	20.010	100.232	19.472	91.696	0.520
528.000	334.280	80.005	20.009	100.251	19.451	95.044	0.508
530.000	335.365	80.005	20.009	100.231	19.426	98.896	0.498
532.000	336.299	80.005	20.009	100.220	19.407	101.948	0.517
534.001	337.234	80.005	20.010	100.203	19.382	105.865	0.443
536.000	338.332	80.005	20.009	100.224	19.362	109.083	0.502
538.000	339.414	80.006	20.010	100.219	19.339	112.681	0.558
540.000	340.379	80.005	20.009	100.240	19.317	116.090	0.480
542.000	341.481	80.005	20.010	100.189	19.299	118.960	0.536
544.000	342.424	80.006	20.009	100.200	19.280	121.890	0.451
546.000	343.405	80.004	20.010	100.206	19.264	124.392	0.436
548.000	344.474	80.004	20.009	100.220	19.247	127.130	0.473
550.000	345.467	80.005	20.010	100.244	19.232	129.537	0.523
552.000	346.439	80.004	20.009	100.241	19.214	132.372	0.513
554.000	347.464	80.005	20.009	100.253	19.195	135.236	0.496
556.000	348.433	80.006	20.009	100.240	19.186	136.673	0.508
558.000	349.470	80.005	20.009	100.261	19.169	139.364	0.485
560.001	350.509	80.006	20.009	100.252	19.151	142.250	0.484
562.000	351.474	80.004	20.009	100.284	19.135	144.842	0.481
564.000	352.502	80.005	20.008	100.273	19.119	147.276	0.491
566.000	353.468	80.006	20.009	100.291	19.101	150.201	0.508
568.000	354.408	80.005	20.009	100.274	19.079	153.612	0.510
570.000	355.380	80.006	20.009	100.303	19.062	156.271	0.500
572.000	356.426	80.006	20.009	100.306	19.040	159.790	0.545
574.000	357.368	80.006	20.010	100.346	19.020	162.717	0.497
576.000	358.353	80.003	20.009	100.330	18.995	166.646	0.461
578.000	359.277	80.005	20.010	100.327	18.966	171.112	0.447
580.000	360.289	80.005	20.009	100.343	18.939	175.422	0.513
582.000	361.261	80.005	20.009	100.341	18.914	179.297	0.446
584.000	362.201	80.005	20.010	100.321	18.899	181.819	0.471
586.000	363.185	80.004	20.010	100.288	18.903	181.393	0.462
588.000	364.237	80.005	20.009	100.225	18.919	179.028	0.505
590.000	365.181	80.005	20.009	100.193	18.930	177.252	0.463
592.000	366.190	80.006	20.009	100.190	18.956	173.244	0.477
594.000	367.162	80.006	20.009	100.176	18.976	170.152	0.504
596.000	368.210	80.005	20.009	100.227	18.994	167.309	0.504
598.000	369.172	80.006	20.009	100.308	19.014	164.109	0.491
600.000	370.131	80.006	20.009	100.391	19.027	162.130	0.463
602.000	371.142	80.005	20.010	100.446	19.043	159.485	0.519
604.000	372.151	80.006	20.009	100.491	19.052	158.115	0.533
606.000	373.021	80.005	20.010	100.508	19.065	156.113	0.454
608.000	374.045	80.006	20.009	100.514	19.075	154.464	0.503
610.000	375.061	80.005	20.009	100.532	19.085	152.873	0.506
612.000	376.008	80.004	20.009	100.509	19.097	150.947	0.461
614.000	377.095	80.006	20.009	100.512	19.108	149.329	0.544
616.000	378.037	80.004	20.010	100.467	19.123	146.820	0.541
618.000	379.082	80.007	20.009	100.500	19.143	143.886	0.534
620.000	380.048	80.005	20.009	100.473	19.157	141.620	0.492
622.000	381.041	80.005	20.009	100.489	19.174	138.913	0.482
624.000	382.061	80.005	20.009	100.476	19.200	134.830	0.526
626.000	383.052	80.005	20.009	100.503	19.216	132.373	0.497
628.000	384.071	80.005	20.010	100.473	19.245	127.797	0.519
630.000	384.998	80.005	20.009	100.490	19.269	124.064	0.473
632.000	385.995	80.006	20.009	100.515	19.294	120.131	0.508
634.000	387.022	80.005	20.009	100.511	19.320	115.937	0.531
636.000	388.026	80.006	20.009	100.535	19.347	111.725	0.494
638.000	389.000	80.004	20.009	100.533	19.375	107.405	0.447
640.000	390.058	80.005	20.009	100.533	19.402	103.165	0.509
642.000	391.026	80.005	20.009	100.530	19.428	99.025	0.493
644.000	392.021	80.006	20.009	100.572	19.459	94.030	0.471
646.000	393.054	80.006	20.009	100.559	19.488	89.440	0.507
648.000	394.096	80.005	20.009	100.587	19.519	84.643	0.504
650.000	395.150	80.005	20.009	100.558	19.547	80.154	0.512
652.000	396.129	80.006	20.009	100.628	19.572	76.189	0.528
654.000	397.085	80.005	20.009	100.613	19.601	71.703	0.461
656.000	398.080	80.005	20.009	100.631	19.624	68.150	0.495
658.000	399.159	80.007	20.009	100.589	19.644	64.951	0.524
660.000	400.150	80.005	20.009	100.574	19.666	61.468	0.513
662.000	401.161	80.006	20.009	100.549	19.692	57.345	0.532
664.000	402.170	80.007	20.009	100.506	19.714	53.803	0.526
666.000	403.195	80.006	20.010	100.544	19.737	50.185	0.526
668.000	404.118	80.006	20.009	100.624	19.760	46.633	0.459
670.000	405.083	80.005	20.009	100.557	19.780	43.494	0.458
672.000	406.051	80.005	20.009	100.556	19.797	40.788	0.513
674.000	407.038	80.005	20.005	100.571	19.816	37.782	0.520
676.000	408.042	80.005	20.008	100.503	19.834	34.985	0.510
678.000	409.120	80.005	20.009	100.522	19.851	32.296	0.517
680.000	410.032	80.005	20.008	100.555	19.868	29.489	0.475
682.000	411.045	80.006	20.009	100.554	19.883	27.180	0.497
684.000	412.085	80.006	20.009	100.536	19.897	25.046	0.466
686.000	413.088	80.006	20.009	100.504	19.905	23.718	0.478
688.000	414.080	80.006	20.009	100.506	19.917	21.877	0.477
690.000	415.068	80.005	20.009	100.487	19.926	20.408	0.517
692.000	416.014	80.005	20.009	100.510	19.937	18.670	0.497
694.000	417.039	80.007	20.010	100.492	19.946	17.199	0.489
696.000	418.068	80.005	20.009	100.492	19.950	16.572	0.512
698.000	419.047	80.004	20.008	100.434	19.955	15.787	0.503
700.000	420.091	80.005	20.008	100.447	19.967	13.906	0.583
702.000	421.038	80.006	20.009	100.559	19.973	12.994	0.465
704.000	422.054	80.006	20.009	100.452	19.979	12.062	0.541
706.000	423.043	80.004	20.008	100.458	19.983	11.473	0.507
708.000	424.006	80.006	20.009	100.404	19.988	10.712	0.482
710.000	424.960	80.005	20.009	100.435	19.995	9.581	0.465
712.000	425.959	80.006	20.009	100.456	19.996	9.371	0.513
714.000	426.945	80.007	20.012	100.508	20.000	8.674	0.506
716.000	427.887	80.006	20.013	100.318	20.003	8.303	0.513
718.000	428.916	80.005	20.008	100.473	20.004	8.184	0.528
720.000	429.906	80.005	20.009	100.443	20.006	7.769	0.524
722.000	430.903	80.006	20.008	100.422	20.010	7.161	0.504
724.000	431.852	80.006	20.009	100.365	20.010	7.109	0.478
726.000	432.873	80.005	20.008	100.403	20.015	6.316	0.504
728.000	433.858	80.007	20.010	100.442	20.016	6.272	0.487
730.000	434.850	80.006	20.009	100.387	20.019	5.825	0.525
732.000	435.815	80.006	20.009	100.393	20.017	6.075	0.465
734.000	436.762	80.005	20.009	100.399	20.021	5.407	0.513
736.000	437.777	80.005	20.009	100.393	20.021	5.362	0.512
738.000	438.758	80.005	20.009	100.385	20.019	5.760	0.500
740.000	439.740	80.006	20.009	100.386	20.019	5.706	0.448
742.000	440.755	80.005	20.009	100.393	20.018	5.989	0.493
744.000	441.731	80.008	20.009	100.350	20.020	5.547	0.496
746.000	442.699	80.007	20.009	100.344	20.016	6.203	0.514
748.000	443.637	80.006	20.010	100.337	20.016	6.204	0.481
750.000	444.655	80.006	20.009	100.356	20.020	5.649	0.546
752.000	445.623	80.006	20.009	100.343	20.020	5.550	0.465
754.000	446.598	80.006	20.009	100.346	20.018	5.893	0.460
756.000	447.548	80.006	20.009	100.342	20.022	5.303	0.451
758.000	448.529	80.006	20.010	100.360	20.023	5.122	0.498
760.000	449.531	80.005	20.009	100.354	20.024	4.916	0.531
762.000	450.468	80.006	20.009	100.361	20.022	5.271	0.455
764.000	451.410	80.006	20.009	100.336	20.021	5.396	0.484
766.000	452.397	80.006	20.010	100.346	20.023	5.185	0.488
768.000	453.340	80.005	20.009	100.345	20.023	5.056	0.447
770.000	454.338	80.007	20.010	100.336	20.020	5.625	0.516
772.000	455.316	80.005	20.009	100.325	20.021	5.436	0.505
774.000	456.298	80.006	20.009	100.316	20.019	5.822	0.494
776.000	457.340	80.005	20.009	100.331	20.020	5.610	0.531
778.000	458.313	80.006	20.009	100.317	20.021	5.403	0.503
780.000	459.306	80.006	20.009	100.332	20.023	5.132	0.516
782.001	460.283	80.007	20.009	100.318	20.023	5.095	0.467
784.000	461.250	80.007	20.009	100.347	20.023	5.122	0.514
786.000	462.242	80.006	20.010	100.317	20.023	5.090	0.513
788.000	463.202	80.006	20.009	100.356	20.023	5.081	0.469
790.000	464.134	80.004	20.009	100.345	20.022	5.333	0.475
792.000	465.133	80.006	20.009	100.337	20.024	4.999	0.498
794.000	466.159	80.005	20.009	100.312	20.023	5.176	0.503
796.000	467.140	80.006	20.009	100.333	20.019	5.776	0.505
798.000	468.101	80.006	20.010	100.312	20.018	5.909	0.468
800.000	469.096	80.006	20.009	100.267	20.019	5.803	0.506
802.000	470.128	80.005	20.009	100.368	20.020	5.582	0.565
804.000	471.104	80.006	20.009	100.362	20.016	6.284	0.499
806.001	472.024	80.005	20.013	100.335	20.018	5.854	0.445
808.000	473.065	80.004	20.012	100.157	20.023	5.095	0.480
810.000	474.069	80.005	20.009	100.397	20.021	5.404	0.526
812.000	475.047	80.006	20.009	100.382	20.019	5.751	0.505
814.000	476.025	80.006	20.009	100.338	20.018	5.844	0.476
816.000	477.053	80.005	20.009	100.310	20.018	5.895	0.552
818.000	478.022	80.006	20.009	100.306	20.018	5.895	0.537
820.000	478.999	80.006	20.010	100.316	20.015	6.318	0.460
822.000	480.023	80.007	20.009	100.325	20.014	6.525	0.537
824.000	480.997	80.005	20.009	100.314	20.015	6.411	0.505
826.000	481.935	80.005	20.009	100.298	20.013	6.668	0.465
828.000	482.918	80.006	20.009	100.322	20.016	6.291	0.511
830.000	483.937	80.007	20.009	100.314	20.016	6.288	0.504
832.000	484.943	80.006	20.008	100.332	20.011	6.960	0.498
834.000	485.875	80.006	20.009	100.312	20.013	6.682	0.472
836.000	486.879	80.006	20.009	100.332	20.013	6.700	0.463
838.000	487.893	80.005	20.009	100.308	20.012	6.847	0.515
840.000	488.910	80.007	20.009	100.328	20.017	6.029	0.502
842.000	489.873	80.006	20.009	100.315	20.017	6.101	0.505
844.000	490.958	80.005	20.009	100.317	20.018	5.926	0.537
846.000	491.899	80.006	20.009	100.322	20.015	6.354	0.480
848.000	492.836	80.005	20.009	100.313	20.017	6.118	0.507
850.000	493.844	80.006	20.009	100.312	20.016	6.203	0.474
852.000	494.845	80.005	20.009	100.308	20.015	6.437	0.489
854.000	495.848	80.006	20.009	100.342	20.018	5.900	0.478
856.000	496.902	80.007	20.009	100.318	20.018	5.982	0.520
858.000	497.864	80.007	20.009	100.361	20.017	6.140	0.491
860.000	498.869	80.006	20.009	100.376	20.019	5.785	0.496
862.000	499.831	80.006	20.009	100.367	20.017	6.147	0.492
864.000	500.861	80.006	20.009	100.356	20.018	5.940	0.485
866.000	501.840	80.006	20.010	100.356	20.016	6.199	0.477
868.000	502.755	80.005	20.009	100.376	20.020	5.619	0.499
870.000	503.809	80.007	20.009	100.356	20.018	5.946	0.509
872.000	504.728	80.005	20.008	100.361	20.018	5.933	0.477
874.000	505.679	80.005	20.009	100.363	20.019	5.736	0.509
876.000	506.768	80.006	20.009	100.370	20.015	6.395	0.536
878.000	507.704	80.006	20.009	100.331	20.018	5.962	0.493
880.000	508.737	80.005	20.009	100.351	20.016	6.281	0.534
882.000	509.709	80.006	20.009	100.325	20.016	6.255	0.553
884.000	510.735	80.005	20.009	100.350	20.014	6.462	0.530
886.000	511.726	80.005	20.009	100.340	20.016	6.266	0.460
888.000	512.763	80.005	20.009	100.345	20.015	6.422	0.509
890.000	513.782	80.006	20.010	100.322	20.017	6.141	0.537
892.000	514.788	80.005	20.009	100.336	20.016	6.149	0.512
894.000	515.836	80.006	20.009	100.319	20.015	6.406	0.558
896.000	516.861	80.007	20.009	100.338	20.014	6.493	0.516
898.000	517.872	80.006	20.009	100.341	20.014	6.570	0.478
900.000	518.843	80.005	20.009	100.340	20.017	6.029	0.491
902.000	519.884	80.006	20.009	100.355	20.016	6.165	0.536
904.000	520.902	80.007	20.009	100.355	20.016	6.242	0.527
906.000	521.929	80.006	20.008	100.343	20.015	6.325	0.508
908.000	522.870	80.004	20.009	100.340	20.013	6.622	0.479
910.000	523.897	80.006	20.009	100.350	20.012	6.918	0.490
912.000	524.925	80.006	20.009	100.338	20.012	6.785	0.535
914.000	525.892	80.006	20.009	100.342	20.011	7.002	0.481
916.000	526.891	80.006	20.009	100.320	20.010	7.148	0.495
918.000	527.932	80.006	20.009	100.333	20.012	6.821	0.501
920.000	528.891	80.006	20.009	100.321	20.009	7.338	0.514
922.000	529.936	80.005	20.010	100.323	20.011	6.942	0.494
924.000	530.862	80.006	20.009	100.331	20.011	6.954	0.456
926.000	531.897	80.004	20.010	100.325	20.008	7.495	0.515
928.000	532.866	80.006	20.009	100.339	20.009	7.338	0.502
930.000	533.891	80.007	20.009	100.318	20.011	7.086	0.530
932.000	534.848	80.005	20.010	100.332	20.010	7.179	0.460
934.000	535.925	80.007	20.009	100.317	20.009	7.378	0.546
936.000	536.929	80.006	20.009	100.327	20.012	6.807	0.491
938.001	537.952	80.006	20.009	100.320	20.012	6.868	0.468
940.000	538.959	80.006	20.009	100.333	20.015	6.354	0.572
942.000	539.967	80.007	20.009	100.325	20.013	6.777	0.514
944.000	540.920	80.005	20.009	100.346	20.013	6.715	0.427
946.000	541.929	80.006	20.009	100.358	20.018	5.903	0.502
948.000	542.907	80.005	20.009	100.365	20.018	5.894	0.489
950.000	543.881	80.005	20.009	100.363	20.020	5.561	0.521
952.000	544.914	80.006	20.009	100.363	20.021	5.382	0.496
954.000	545.826	80.006	20.009	100.368	20.021	5.453	0.433
956.000	546.866	80.006	20.010	100.350	20.023	5.169	0.536
958.000	547.784	80.006	20.009	100.402	20.019	5.746	0.460
960.000	548.760	80.005	20.009	100.376	20.019	5.729	0.503
962.000	549.751	80.006	20.009	100.367	20.014	6.530	0.509
964.000	550.774	80.007	20.009	100.345	20.016	6.243	0.530
966.000	551.810	80.005	20.009	100.339	20.015	6.389	0.520
968.000	552.756	80.006	20.009	100.332	20.013	6.708	0.496
970.000	553.742	80.005	20.009	100.353	20.014	6.506	0.479
972.000	554.725	80.005	20.009	100.328	20.012	6.874	0.479
974.000	555.662	80.005	20.009	100.345	20.016	6.172	0.439
976.000	556.710	80.005	20.009	100.341	20.013	6.624	0.495
978.000	557.703	80.006	20.009	100.342	20.011	6.943	0.524
980.000	558.726	80.006	20.009	100.321	20.011	6.986	0.507
982.000	559.741	80.006	20.009	100.336	20.011	7.084	0.521
984.000	560.710	80.005	20.009	100.324	20.011	6.992	0.460
986.000	561.728	80.006	20.009	100.326	20.009	7.359	0.569
988.000	562.781	80.007	20.009	100.318	20.005	7.935	0.512
990.000	563.762	80.005	20.008	100.337	20.007	7.589	0.467
992.000	564.772	80.006	20.009	100.346	20.008	7.535	0.535
994.000	565.818	80.006	20.009	100.352	20.007	7.671	0.523
996.000	566.723	80.005	20.009	100.345	20.009	7.383	0.475
998.000	567.748	80.005	20.009	100.332	20.007	7.608	0.503
1000.000	568.750	80.005	20.009	100.321	20.012	6.853	0.451
1002.000	569.703	80.006	20.009	100.289	20.011	7.082	0.455
1004.000	570.647	80.007	20.010	100.309	20.010	7.159	0.458
1006.000	571.602	80.006	20.009	100.365	20.014	6.501	0.499
1008.000	572.611	80.005	20.009	100.344	20.011	7.088	0.481
1010.000	573.607	80.005	20.008	100.359	20.015	6.423	0.503
1012.000	574.508	80.005	20.009	100.355	20.016	6.278	0.434
1014.000	575.472	80.005	20.009	100.370	20.012	6.918	0.495
1016.000	576.453	80.004	20.009	100.361	20.011	6.959	0.497
1018.000	577.376	80.004	20.009	100.358	20.014	6.484	0.490
1020.000	578.289	80.005	20.009	100.361	20.016	6.261	0.440
1022.000	579.313	80.006	20.008	100.394	20.017	6.054	0.493
1024.000	580.265	80.005	20.009	100.372	20.016	6.224	0.480
1026.000	581.269	80.005	20.009	100.382	20.017	6.073	0.545
1028.000	582.255	80.005	20.009	100.355	20.016	6.300	0.499
1030.000	583.205	80.006	20.009	100.360	20.015	6.425	0.471
1032.001	584.118	80.006	20.010	100.357	20.013	6.638	0.454
1034.000	585.223	80.007	20.009	100.369	20.011	7.071	0.557
1036.000	586.154	80.005	20.009	100.348	20.013	6.654	0.457
1038.000	587.130	80.006	20.009	100.361	20.011	6.973	0.436
1040.000	588.075	80.005	20.009	100.348	20.011	6.950	0.452
1042.000	589.070	80.005	20.008	100.349	20.010	7.095	0.473
1044.001	590.144	80.005	20.009	100.317	20.009	7.399	0.492
1046.001	591.088	80.004	20.009	100.324	20.009	7.292	0.517
1048.001	592.135	80.006	20.009	100.341	20.008	7.446	0.491
1050.000	593.109	80.006	20.009	100.356	20.009	7.290	0.482
1052.000	594.215	80.005	20.009	100.349	20.008	7.503	0.537
1054.000	595.242	80.005	20.009	100.333	20.009	7.304	0.490
1056.001	596.241	80.007	20.009	100.341	20.007	7.662	0.473
1058.000	597.257	80.006	20.009	100.330	20.008	7.543	0.483
1060.000	598.286	80.007	20.009	100.347	20.006	7.820	0.491
1062.000	599.305	80.007	20.009	100.342	20.006	7.852	0.492
1064.000	600.333	80.006	20.009	100.356	20.010	7.189	0.507
1066.001	601.372	80.006	20.009	100.348	20.006	7.740	0.576
1068.000	602.378	80.006	20.009	100.347	20.009	7.358	0.519
1070.001	603.336	80.005	20.009	100.343	20.012	6.828	0.484
1072.000	604.340	80.006	20.009	100.350	20.011	6.939	0.475
1074.000	605.430	80.007	20.009	100.373	20.012	6.840	0.545
1076.000	606.437	80.006	20.009	100.377	20.016	6.301	0.514
1078.001	607.434	80.005	20.009	100.406	20.013	6.643	0.523
1080.000	608.457	80.006	20.009	100.370	20.015	6.434	0.515
1082.000	609.530	80.004	20.009	100.380	20.013	6.710	0.490
1084.000	610.517	80.007	20.009	100.379	20.013	6.777	0.515
1086.001	611.579	80.007	20.009	100.371	20.009	7.298	0.499
1088.000	612.584	80.006	20.009	100.357	20.008	7.524	0.535
1090.000	613.515	80.007	20.009	100.354	20.008	7.451	0.421
1092.001	614.506	80.004	20.009	100.364	20.007	7.714	0.500
1094.001	615.525	80.007	20.009	100.349	20.009	7.348	0.506
1096.000	616.506	80.005	20.009	100.364	20.009	7.350	0.464
1098.000	617.538	80.004	20.009	100.359	20.006	7.848	0.486
1100.001	618.607	80.006	20.009	100.374	20.009	7.326	0.567
1102.001	619.545	80.005	20.009	100.352	20.010	7.171	0.479
1104.001	620.570	80.006	20.008	100.372	20.006	7.747	0.505
1106.001	621.627	80.007	20.009	100.354	20.006	7.858	0.466
1108.000	622.588	80.006	20.009	100.369	20.005	7.980	0.438
1110.000	623.667	80.005	20.008	100.358	20.005	7.992	0.485
1112.000	624.682	80.005	20.009	100.358	20.005	8.007	0.519
1114.001	625.699	80.006	20.009	100.355	20.005	7.938	0.479
1116.001	626.733	80.005	20.010	100.361	20.007	7.668	0.525
1118.000	627.724	80.006	20.009	100.369	20.005	7.880	0.514
1120.001	628.694	80.005	20.010	100.356	20.005	7.976	0.419
1122.000	629.708	80.005	20.009	100.366	20.004	8.059	0.515
1124.002	630.702	80.007	20.010	100.359	20.005	7.906	0.472
1126.000	631.759	80.005	20.008	100.375	20.005	7.981	0.502
1128.000	632.729	80.006	20.009	100.364	20.006	7.874	0.513
1130.000	633.773	80.006	20.009	100.373	20.006	7.876	0.500
1132.000	634.735	80.007	20.009	100.336	20.007	7.695	0.520
1134.000	635.754	80.007	20.009	100.372	20.009	7.340	0.510
1136.000	636.818	80.005	20.009	100.390	20.008	7.541	0.506
1138.001	637.800	80.005	20.009	100.384	20.007	7.687	0.519
1140.000	638.786	80.006	20.009	100.346	20.008	7.505	0.544
1142.001	639.802	80.005	20.009	100.356	20.008	7.414	0.486
1144.000	640.819	80.006	20.009	100.359	20.006	7.743	0.456
1146.000	641.868	80.005	20.009	100.371	20.010	7.135	0.494
1148.000	642.862	80.007	20.009	100.352	20.006	7.747	0.499
1150.001	643.911	80.007	20.009	100.367	20.008	7.484	0.476
1152.001	644.926	80.007	20.009	100.369	20.010	7.185	0.521
1154.000	645.891	80.006	20.010	100.361	20.008	7.461	0.491
1156.000	647.001	80.007	20.009	100.385	20.009	7.383	0.531
1158.000	648.000	80.007	20.010	100.378	20.008	7.469	0.468
1160.000	649.017	80.006	20.010	100.373	20.010	7.231	0.515
1162.001	650.073	80.006	20.009	100.346	20.008	7.444	0.487
1164.000	651.054	80.005	20.010	100.375	20.012	6.914	0.478
1166.000	652.034	80.006	20.009	100.387	20.010	7.163	0.515
1168.000	653.016	80.004	20.009	100.404	20.016	6.274	0.506
1170.000	654.070	80.006	20.009	100.397	20.009	7.253	0.471
1172.000	655.081	80.005	20.009	100.362	20.007	7.706	0.509
1174.000	656.067	80.004	20.009	100.377	20.007	7.586	0.516
1176.000	657.078	80.006	20.009	100.351	20.005	7.921	0.474
1178.001	658.119	80.007	20.009	100.367	20.001	8.611	0.509
1180.000	659.145	80.005	20.009	100.353	20.004	8.187	0.532
1182.001	660.113	80.006	20.009	100.359	20.003	8.328	0.511
1184.000	661.156	80.004	20.008	100.346	20.003	8.303	0.480
1186.000	662.150	80.005	20.009	100.347	20.001	8.534	0.500
1188.000	663.086	80.006	20.009	100.364	20.001	8.589	0.465
1190.001	664.160	80.005	20.009	100.358	20.006	7.784	0.543
1192.000	665.188	80.005	20.009	100.377	20.001	8.637	0.534
1194.000	666.134	80.006	20.009	100.360	20.004	8.084	0.547
1196.001	667.165	80.006	20.009	100.364	20.004	8.125	0.480
1198.001	668.134	80.006	20.009	100.356	20.004	8.049	0.476
1200.000	669.210	80.006	20.009	100.353	20.005	8.000	0.508
1202.000	670.167	80.005	20.008	100.360	20.005	7.992	0.498
1204.000	671.174	80.006	20.009	100.351	20.000	8.749	0.514
1206.000	672.149	80.005	20.009	100.366	20.002	8.401	0.505
1208.000	673.102	80.005	20.009	100.356	20.005	7.949	0.504
1210.000	674.222	80.007	20.009	100.385	20.002	8.382	0.563
1212.000	675.195	80.005	20.009	100.389	20.003	8.297	0.539
1214.001	676.179	80.005	20.009	100.389	20.004	8.182	0.520
1216.000	677.190	80.007	20.009	100.377	20.001	8.641	0.531
1218.000	678.160	80.006	20.009	100.364	20.001	8.649	0.466
1220.000	679.130	80.006	20.009	100.376	20.001	8.659	0.468
1222.001	680.138	80.006	20.009	100.374	20.003	8.319	0.475
1224.000	681.213	80.005	20.009	100.370	19.999	8.894	0.538
1226.000	682.205	80.007	20.009	100.365	20.003	8.346	0.518
1228.000	683.194	80.005	20.009	100.371	20.003	8.271	0.536
1230.001	684.187	80.006	20.009	100.377	20.001	8.636	0.510
1232.000	685.186	80.004	20.010	100.373	20.001	8.576	0.502
1234.000	686.234	80.006	20.009	100.384	20.000	8.680	0.509
1236.000	687.284	80.006	20.009	100.384	20.001	8.517	0.575
1238.001	688.234	80.005	20.009	100.395	20.005	7.958	0.534
1240.001	689.232	80.007	20.009	100.389	20.005	8.025	0.466
1242.001	690.277	80.005	20.009	100.399	20.003	8.261	0.518
1244.000	691.230	80.004	20.008	100.386	20.004	8.064	0.514
1246.000	692.262	80.005	20.009	100.382	20.004	8.160	0.530
1248.000	693.236	80.005	20.008	100.409	19.998	9.129	0.538
1250.000	694.292	80.004	20.009	100.369	20.001	8.666	0.527
1252.000	695.280	80.006	20.009	100.375	20.002	8.444	0.489
1254.000	696.352	80.006	20.009	100.384	20.005	8.024	0.552
1256.000	697.315	80.004	20.009	100.410	20.008	7.457	0.533
1258.000	698.261	80.006	20.009	100.405	20.009	7.288	0.504
1260.000	699.306	80.004	20.009	100.433	20.006	7.824	0.535
1262.000	700.267	80.005	20.009	100.428	20.005	7.917	0.508
1264.000	701.293	80.006	20.009	100.408	20.003	8.268	0.504
1266.000	702.352	80.005	20.009	100.417	20.002	8.467	0.525
1268.000	703.384	80.006	20.009	100.366	20.000	8.812	0.558
1270.000	704.426	80.005	20.009	100.375	19.999	8.982	0.521
1272.000	705.394	80.006	20.009	100.362	20.000	8.815	0.538
1274.000	706.473	80.007	20.009	100.368	19.998	9.015	0.499
1276.000	707.460	80.005	20.008	100.363	19.999	8.918	0.493
1278.000	708.415	80.005	20.009	100.359	19.999	8.972	0.489
1280.000	709.493	80.006	20.009	100.374	19.995	9.513	0.505
1282.000	710.544	80.006	20.009	100.368	19.995	9.547	0.518
1284.000	711.585	80.005	20.009	100.392	19.998	9.031	0.480
1286.000	712.614	80.005	20.009	100.373	20.000	8.707	0.531
1288.000	713.624	80.006	20.009	100.365	19.999	8.898	0.505
1290.001	714.698	80.006	20.008	100.384	19.999	8.985	0.530
1292.001	715.713	80.005	20.009	100.371	20.003	8.216	0.476
1294.000	716.771	80.007	20.009	100.388	20.002	8.458	0.489
1296.001	717.746	80.006	20.009	100.403	19.999	8.884	0.518
1298.000	718.786	80.007	20.009	100.386	20.003	8.258	0.509
1300.001	719.736	80.005	20.009	100.412	20.003	8.263	0.463
1302.001	720.816	80.006	20.009	100.417	20.001	8.542	0.493
1304.000	721.807	80.005	20.009	100.443	20.003	8.259	0.458
1306.000	722.831	80.006	20.009	100.423	20.003	8.271	0.550
1308.000	723.777	80.005	20.009	100.385	20.002	8.416	0.488
1310.001	724.743	80.005	20.008	100.416	20.000	8.812	0.524
1312.000	725.705	80.006	20.009	100.384	20.000	8.750	0.453
1314.000	726.712	80.006	20.009	100.389	19.999	8.863	0.486
1316.000	727.681	80.005	20.008	100.377	19.991	10.161	0.457
1318.000	728.691	80.006	20.009	100.379	19.995	9.583	0.546
1320.000	729.687	80.006	20.009	100.375	19.993	9.886	0.534
1322.000	730.690	80.006	20.010	100.379	19.995	9.506	0.496
1324.000	731.705	80.007	20.008	100.392	19.992	10.038	0.462
1326.000	732.695	80.006	20.010	100.381	19.993	9.913	0.506
1328.000	733.679	80.006	20.009	100.400	19.989	10.412	0.466
1330.001	734.707	80.006	20.009	100.384	19.990	10.311	0.471
1332.000	735.700	80.007	20.009	100.388	19.996	9.421	0.519
1334.000	736.814	80.006	20.009	100.371	19.991	10.228	0.503
1336.001	737.758	80.005	20.009	100.395	20.001	8.614	0.516
1338.000	738.796	80.004	20.008	100.398	19.998	9.128	0.637
1340.001	739.551	80.005	20.009	100.410	20.001	8.649	0.515
1342.000	740.763	80.006	20.009	100.414	19.999	8.963	0.508
1344.000	741.620	80.005	20.009	100.407	19.998	9.087	0.343
1345.500	742.443	80.005	20.009	100.395	19.996	9.377	0.453