File: Experiments/TUBS/mcc/mcc_piece_2mg_dyn30_r2.txt
Sample Weight (mg):	1.98
Heating Rate (C/s):	0.5
Combustor Temp (C):	900
N2 Flow Rate (cc/min):	80
O2 Flow Rate (cc/min):	20
Time (s)	Temperature (C)	N2 flow rate (cc/min)	O2 flow rate (cc/min)	Flow Rate (cc/min)	Oxygen (%)	HRR (W/g)	Heating rate (C/s)
0.000	88.052	80.000	20.008	100.152	20.127	12.137	-0.081
2.000	87.897	80.000	20.007	100.173	20.125	12.379	-0.096
4.000	87.740	80.000	20.007	100.153	20.126	12.271	-0.103
6.000	87.598	80.000	20.007	100.208	20.131	11.463	-0.065
8.000	87.472	80.000	20.008	100.244	20.134	10.982	-0.036
10.000	87.416	79.999	20.008	100.224	20.134	10.955	-0.053
12.000	87.266	79.999	20.007	100.243	20.128	11.909	-0.094
14.001	87.194	79.999	20.008	100.216	20.130	11.640	-0.045
16.000	87.117	80.002	20.007	100.224	20.129	11.685	-0.009
18.000	87.060	80.001	20.008	100.258	20.126	12.205	-0.027
20.000	87.028	80.000	20.007	100.229	20.128	11.934	0.002
22.000	86.996	79.999	20.007	100.260	20.125	12.424	0.008
24.000	86.966	80.000	20.007	100.251	20.120	13.200	-0.055
26.000	86.959	79.999	20.008	100.243	20.116	13.788	-0.040
28.000	86.981	79.999	20.008	100.282	20.118	13.495	-0.024
30.001	87.023	79.999	20.008	100.242	20.118	13.528	0.024
32.000	87.115	79.999	20.007	100.281	20.116	13.873	0.033
34.000	87.273	79.999	20.007	100.260	20.120	13.225	0.063
36.000	87.346	79.999	20.008	100.242	20.117	13.594	0.056
38.001	87.458	79.999	20.007	100.251	20.118	13.435	0.043
40.000	87.533	80.000	20.008	100.213	20.116	13.772	0.046
42.000	87.701	79.999	20.007	100.235	20.116	13.749	0.077
44.000	87.924	80.000	20.008	100.226	20.116	13.836	0.079
46.001	88.075	80.000	20.008	100.235	20.111	14.561	0.065
48.000	88.296	80.000	20.007	100.288	20.107	15.208	0.088
50.001	88.521	80.001	20.007	100.269	20.107	15.260	0.132
52.000	88.671	80.001	20.007	100.318	20.102	16.024	0.106
54.000	88.980	80.000	20.008	100.340	20.099	16.474	0.117
56.000	89.218	80.000	20.007	100.362	20.098	16.706	0.153
58.000	89.480	79.999	20.007	100.394	20.095	17.104	0.140
60.001	89.910	79.999	20.007	100.392	20.091	17.756	0.184
62.000	90.234	80.000	20.008	100.425	20.092	17.579	0.184
64.000	90.577	79.999	20.007	100.387	20.090	17.931	0.342
66.000	91.001	80.000	20.007	100.417	20.090	18.026	0.320
68.001	91.484	79.999	20.007	100.397	20.089	18.116	0.174
70.001	92.016	79.999	20.007	100.412	20.085	18.805	0.257
72.000	92.445	79.999	20.008	100.408	20.087	18.508	0.250
74.000	93.072	79.998	20.007	100.417	20.082	19.293	0.304
76.001	93.591	80.000	20.007	100.429	20.083	19.059	0.264
78.000	94.206	80.000	20.008	100.406	20.081	19.394	0.333
80.000	94.798	80.001	20.008	100.444	20.080	19.470	0.295
82.001	95.439	80.000	20.007	100.418	20.079	19.740	0.298
84.000	96.115	79.999	20.007	100.446	20.079	19.673	0.323
86.000	96.728	79.999	20.008	100.421	20.076	20.213	0.280
88.000	97.428	80.001	20.007	100.445	20.077	20.052	0.360
90.000	98.173	80.000	20.008	100.430	20.075	20.258	0.372
92.001	98.920	80.001	20.007	100.433	20.074	20.446	0.376
94.000	99.660	80.001	20.008	100.441	20.072	20.793	0.383
96.001	100.395	80.000	20.008	100.428	20.076	20.233	0.371
98.000	101.214	80.001	20.008	100.436	20.078	19.932	0.391
100.001	102.015	79.999	20.007	100.422	20.076	20.129	0.387
102.000	102.834	79.999	20.007	100.450	20.078	19.799	0.400
104.000	103.769	80.000	20.008	100.401	20.080	19.507	0.479
106.000	104.593	80.000	20.007	100.429	20.078	19.783	0.438
108.000	105.473	80.001	20.008	100.405	20.080	19.546	0.438
110.000	106.383	80.000	20.007	100.442	20.082	19.278	0.451
112.000	107.252	80.000	20.007	100.439	20.080	19.565	0.439
114.000	108.203	80.001	20.007	100.444	20.080	19.551	0.508
116.000	109.158	79.999	20.007	100.459	20.080	19.555	0.445
118.000	110.123	79.999	20.007	100.446	20.083	19.117	0.483
120.001	111.081	80.000	20.007	100.471	20.081	19.345	0.488
122.001	112.092	80.001	20.007	100.427	20.080	19.538	0.507
124.000	113.065	80.000	20.007	100.425	20.082	19.192	0.531
126.000	114.105	80.000	20.007	100.418	20.078	19.782	0.541
128.000	115.068	80.001	20.008	100.452	20.080	19.559	0.514
130.000	116.133	80.001	20.008	100.425	20.083	19.129	0.535
132.000	117.141	80.002	20.007	100.461	20.080	19.473	0.506
134.000	118.193	80.001	20.008	100.443	20.080	19.548	0.558
136.000	119.225	80.001	20.008	100.448	20.080	19.609	0.523
138.001	120.264	80.000	20.008	100.428	20.082	19.280	0.464
140.000	121.348	79.999	20.007	100.451	20.082	19.213	0.510
142.000	122.477	80.000	20.007	100.425	20.083	19.050	0.604
144.000	123.535	80.001	20.007	100.439	20.081	19.387	0.548
146.000	124.648	80.000	20.008	100.437	20.084	18.969	0.518
148.000	125.719	79.999	20.007	100.442	20.083	19.085	0.518
150.000	126.846	80.001	20.008	100.410	20.085	18.707	0.581
152.000	127.973	80.000	20.007	100.420	20.087	18.398	0.553
154.000	129.117	79.999	20.007	100.424	20.087	18.479	0.615
156.000	130.248	80.000	20.007	100.435	20.086	18.593	0.539
158.001	131.392	80.000	20.007	100.446	20.087	18.441	0.572
160.000	132.482	80.000	20.007	100.412	20.089	18.091	0.586
162.000	133.638	80.001	20.008	100.408	20.086	18.618	0.558
164.000	134.781	80.000	20.008	100.354	20.088	18.193	0.573
166.000	135.958	80.000	20.007	100.391	20.085	18.672	0.581
168.000	137.141	80.001	20.008	100.380	20.090	18.019	0.622
170.000	138.223	80.000	20.008	100.391	20.086	18.556	0.539
172.000	139.442	80.001	20.008	100.369	20.089	18.098	0.582
174.000	140.605	80.000	20.006	100.419	20.091	17.758	0.616
176.000	141.674	80.001	20.008	100.357	20.089	18.050	0.540
178.000	142.870	80.000	20.008	100.373	20.085	18.738	0.576
180.000	144.092	80.001	20.008	100.350	20.090	17.905	0.627
182.000	145.196	80.000	20.007	100.374	20.091	17.838	0.541
184.000	146.362	79.999	20.008	100.361	20.092	17.614	0.655
186.000	147.457	80.000	20.007	100.388	20.092	17.677	0.579
188.000	148.600	80.000	20.008	100.345	20.095	17.102	0.536
190.000	149.670	80.001	20.007	100.366	20.096	17.064	0.512
192.000	150.807	80.000	20.008	100.360	20.094	17.236	0.574
194.000	151.939	80.000	20.007	100.368	20.097	16.862	0.580
196.000	153.119	79.999	20.007	100.354	20.098	16.666	0.636
198.000	154.219	80.001	20.007	100.350	20.098	16.714	0.569
200.000	155.324	80.001	20.007	100.359	20.095	17.099	0.507
202.001	156.387	80.001	20.008	100.326	20.095	17.124	0.509
204.000	157.568	80.001	20.008	100.339	20.096	17.006	0.567
206.000	158.710	80.001	20.007	100.328	20.097	16.818	0.561
208.000	159.740	80.000	20.007	100.318	20.096	16.934	0.514
210.000	160.826	80.000	20.007	100.309	20.097	16.798	0.497
212.000	161.968	80.001	20.007	100.339	20.097	16.864	0.523
214.000	163.030	80.002	20.008	100.329	20.097	16.776	0.549
216.000	164.144	80.000	20.007	100.348	20.096	17.020	0.544
218.000	165.213	80.000	20.007	100.321	20.094	17.377	0.558
220.000	166.335	80.000	20.007	100.352	20.093	17.390	0.569
222.000	167.404	80.000	20.008	100.325	20.097	16.861	0.555
224.000	168.532	80.002	20.008	100.341	20.095	17.082	0.561
226.000	169.536	79.999	20.008	100.312	20.095	17.147	0.550
228.000	170.601	80.000	20.007	100.330	20.094	17.268	0.543
230.000	171.671	80.001	20.008	100.290	20.091	17.702	0.565
232.000	172.744	80.001	20.007	100.329	20.091	17.718	0.502
234.000	173.770	80.000	20.008	100.316	20.093	17.398	0.535
236.000	174.816	80.001	20.007	100.326	20.092	17.556	0.529
238.000	175.857	79.999	20.008	100.309	20.091	17.792	0.524
240.000	176.963	79.999	20.007	100.320	20.093	17.417	0.549
242.000	178.014	80.001	20.008	100.315	20.092	17.567	0.576
244.000	179.001	80.000	20.007	100.311	20.091	17.809	0.514
246.000	180.015	80.000	20.007	100.312	20.091	17.755	0.510
248.000	181.020	80.001	20.007	100.317	20.091	17.814	0.505
250.000	182.111	80.001	20.007	100.317	20.091	17.750	0.538
252.000	183.153	80.000	20.007	100.312	20.088	18.248	0.502
254.000	184.230	80.000	20.007	100.311	20.091	17.832	0.564
256.000	185.191	80.001	20.007	100.297	20.092	17.617	0.492
258.000	186.196	80.001	20.007	100.303	20.092	17.680	0.472
260.000	187.264	79.999	20.008	100.280	20.092	17.614	0.512
262.000	188.241	80.000	20.007	100.301	20.089	18.070	0.497
264.000	189.236	80.000	20.007	100.283	20.089	18.165	0.498
266.000	190.269	80.001	20.007	100.308	20.091	17.847	0.500
268.000	191.254	80.001	20.008	100.296	20.089	18.029	0.532
270.000	192.315	80.000	20.007	100.300	20.089	18.162	0.489
272.001	193.310	80.000	20.008	100.277	20.088	18.234	0.498
274.000	194.284	80.000	20.007	100.297	20.086	18.549	0.452
276.000	195.335	80.001	20.007	100.300	20.090	17.962	0.517
278.000	196.353	80.001	20.007	100.306	20.089	18.164	0.491
280.000	197.386	80.001	20.007	100.292	20.087	18.324	0.519
282.000	198.338	80.001	20.007	100.296	20.091	17.800	0.510
284.000	199.397	80.000	20.008	100.281	20.091	17.736	0.544
286.000	200.363	80.001	20.007	100.289	20.088	18.292	0.513
288.000	201.378	80.002	20.007	100.280	20.091	17.829	0.507
290.000	202.378	80.002	20.007	100.275	20.088	18.235	0.486
292.000	203.381	80.001	20.008	100.287	20.088	18.195	0.539
294.000	204.410	80.001	20.007	100.271	20.085	18.726	0.495
296.000	205.413	80.002	20.007	100.269	20.090	17.964	0.526
298.000	206.358	80.002	20.007	100.284	20.087	18.479	0.503
300.000	207.386	80.001	20.008	100.293	20.088	18.175	0.495
302.000	208.390	80.000	20.007	100.286	20.087	18.328	0.474
304.000	209.418	79.999	20.007	100.290	20.092	17.640	0.553
306.000	210.426	80.000	20.007	100.282	20.088	18.201	0.442
308.000	211.352	80.001	20.007	100.292	20.087	18.435	0.489
310.000	212.390	80.000	20.007	100.278	20.087	18.361	0.470
312.000	213.399	80.001	20.007	100.290	20.090	18.003	0.464
314.000	214.390	80.001	20.008	100.280	20.091	17.743	0.515
316.000	215.449	80.001	20.007	100.286	20.089	18.009	0.522
318.000	216.425	80.000	20.007	100.278	20.090	17.990	0.513
320.000	217.467	80.001	20.007	100.288	20.088	18.316	0.515
322.000	218.485	80.001	20.007	100.276	20.087	18.454	0.481
324.000	219.504	80.001	20.007	100.286	20.087	18.339	0.528
326.000	220.541	80.001	20.007	100.274	20.088	18.253	0.494
328.000	221.523	80.000	20.007	100.282	20.088	18.259	0.537
330.000	222.533	80.002	20.007	100.270	20.089	18.103	0.463
332.000	223.530	80.000	20.008	100.289	20.086	18.550	0.479
334.000	224.619	80.002	20.007	100.280	20.090	17.977	0.517
336.000	225.584	80.001	20.008	100.277	20.090	17.867	0.495
338.000	226.582	80.002	20.007	100.293	20.087	18.440	0.488
340.000	227.648	80.001	20.008	100.284	20.089	18.046	0.534
342.000	228.618	80.002	20.007	100.285	20.088	18.301	0.490
344.000	229.596	80.001	20.008	100.273	20.088	18.210	0.463
346.000	230.669	80.001	20.007	100.275	20.089	18.115	0.508
348.000	231.607	80.002	20.007	100.259	20.089	18.064	0.542
350.000	232.655	80.000	20.007	100.279	20.092	17.619	0.556
352.000	233.693	80.001	20.008	100.272	20.087	18.362	0.508
354.000	234.672	80.001	20.007	100.284	20.089	18.086	0.451
356.000	235.670	80.001	20.008	100.278	20.087	18.381	0.508
358.000	236.698	80.000	20.007	100.278	20.088	18.231	0.495
360.000	237.746	80.002	20.008	100.270	20.091	17.847	0.508
362.000	238.760	80.001	20.007	100.287	20.089	18.023	0.516
364.000	239.797	80.001	20.008	100.274	20.090	17.878	0.557
366.000	240.830	80.000	20.007	100.293	20.091	17.808	0.543
368.000	241.829	79.999	20.008	100.264	20.092	17.601	0.498
370.000	242.921	80.001	20.007	100.282	20.090	18.003	0.522
372.000	243.948	80.000	20.007	100.260	20.087	18.435	0.543
374.000	244.956	79.999	20.007	100.281	20.086	18.543	0.530
376.000	246.009	80.001	20.007	100.259	20.087	18.439	0.524
378.000	247.054	80.000	20.007	100.281	20.084	18.862	0.557
380.000	248.032	80.001	20.007	100.262	20.090	17.970	0.514
382.000	249.132	80.001	20.008	100.282	20.091	17.749	0.531
384.000	250.120	80.000	20.007	100.274	20.090	17.973	0.549
386.000	251.114	80.000	20.007	100.284	20.090	17.914	0.508
388.000	252.056	79.999	20.007	100.273	20.087	18.454	0.497
390.000	253.098	80.000	20.008	100.265	20.089	18.126	0.500
392.000	254.079	80.001	20.007	100.267	20.086	18.593	0.546
394.000	255.053	80.001	20.008	100.250	20.081	19.342	0.544
396.000	256.134	79.999	20.009	100.232	20.084	18.878	0.507
398.000	257.186	80.000	20.008	100.094	20.092	17.619	0.521
400.000	258.193	80.000	20.007	100.408	20.087	18.475	0.518
402.000	259.226	80.000	20.008	100.293	20.093	17.448	0.503
404.000	260.225	80.002	20.007	100.297	20.087	18.340	0.519
406.000	261.220	79.999	20.008	100.273	20.088	18.238	0.536
408.001	262.193	80.002	20.009	100.279	20.089	18.121	0.436
410.000	263.164	80.001	20.007	100.305	20.087	18.456	0.488
412.000	264.216	79.998	20.007	100.283	20.087	18.436	0.527
414.000	265.238	79.999	20.007	100.278	20.085	18.702	0.495
416.000	266.176	80.001	20.007	100.280	20.082	19.121	0.479
418.000	267.175	79.999	20.008	100.257	20.078	19.747	0.533
420.000	268.184	80.001	20.007	100.270	20.080	19.464	0.518
422.000	269.164	80.001	20.008	100.277	20.075	20.341	0.471
424.000	270.204	80.001	20.007	100.264	20.071	21.000	0.484
426.000	271.167	80.001	20.007	100.245	20.070	21.122	0.496
428.000	272.262	79.999	20.007	100.249	20.071	20.868	0.524
430.000	273.191	80.000	20.007	100.259	20.069	21.251	0.439
432.000	274.210	80.001	20.008	100.244	20.070	21.031	0.482
434.000	275.248	80.000	20.008	100.256	20.064	22.020	0.521
436.000	276.192	80.002	20.007	100.236	20.065	21.813	0.507
438.000	277.171	80.001	20.007	100.268	20.065	21.841	0.456
440.001	278.204	80.001	20.007	100.250	20.063	22.147	0.491
442.000	279.173	80.002	20.008	100.251	20.060	22.711	0.496
444.000	280.132	80.001	20.007	100.221	20.058	22.936	0.504
446.000	281.202	80.001	20.007	100.240	20.058	22.991	0.528
448.000	282.209	80.001	20.007	100.217	20.056	23.261	0.537
450.000	283.177	80.002	20.007	100.244	20.055	23.392	0.498
452.000	284.190	80.001	20.007	100.227	20.052	23.950	0.527
454.000	285.268	80.000	20.007	100.249	20.053	23.745	0.531
456.000	286.223	80.001	20.007	100.245	20.051	24.040	0.509
458.000	287.213	80.000	20.007	100.252	20.049	24.329	0.503
460.000	288.184	80.001	20.007	100.248	20.047	24.646	0.478
462.000	289.196	80.001	20.008	100.265	20.051	24.071	0.524
464.000	290.237	80.002	20.007	100.283	20.049	24.329	0.550
466.000	291.275	80.000	20.008	100.264	20.046	24.858	0.549
468.000	292.226	80.000	20.007	100.261	20.045	25.026	0.486
470.000	293.271	79.999	20.008	100.244	20.043	25.275	0.491
472.000	294.241	80.001	20.008	100.265	20.042	25.438	0.460
474.000	295.295	80.002	20.007	100.239	20.042	25.573	0.524
476.000	296.304	80.001	20.008	100.250	20.040	25.781	0.457
478.000	297.309	80.002	20.007	100.235	20.039	26.037	0.515
480.000	298.319	79.999	20.008	100.241	20.037	26.278	0.486
482.000	299.251	80.001	20.007	100.246	20.037	26.224	0.451
484.000	300.311	80.001	20.007	100.241	20.035	26.686	0.487
486.000	301.364	80.001	20.007	100.259	20.034	26.781	0.515
488.000	302.372	80.002	20.008	100.270	20.031	27.213	0.540
490.000	303.341	80.000	20.008	100.258	20.029	27.601	0.458
492.000	304.366	80.000	20.007	100.246	20.029	27.501	0.506
494.000	305.329	80.001	20.007	100.266	20.026	28.023	0.488
496.001	306.401	80.000	20.007	100.267	20.022	28.725	0.571
498.000	307.335	80.000	20.008	100.259	20.019	29.216	0.523
500.000	308.341	80.001	20.008	100.250	20.015	29.748	0.488
502.000	309.383	80.001	20.008	100.250	20.014	29.860	0.534
504.000	310.312	79.999	20.008	100.259	20.012	30.246	0.497
506.000	311.306	80.001	20.008	100.265	20.009	30.669	0.517
508.000	312.327	80.001	20.007	100.267	20.007	30.980	0.495
510.000	313.357	80.001	20.008	100.267	19.998	32.500	0.466
512.000	314.341	80.000	20.007	100.262	19.992	33.475	0.490
514.000	315.391	79.999	20.008	100.266	19.987	34.277	0.534
516.000	316.294	80.000	20.008	100.291	19.976	35.855	0.479
518.001	317.372	80.001	20.008	100.236	19.969	37.038	0.542
520.000	318.398	80.000	20.008	100.251	19.962	38.130	0.511
522.000	319.358	80.000	20.008	100.238	19.950	40.039	0.465
524.000	320.385	80.000	20.008	100.270	19.926	43.739	0.534
526.000	321.373	80.001	20.007	100.281	19.910	46.337	0.490
528.000	322.380	80.002	20.008	100.278	19.897	48.453	0.491
530.000	323.350	80.001	20.007	100.255	19.887	50.071	0.483
532.000	324.339	80.000	20.008	100.236	19.872	52.302	0.489
534.000	325.374	80.002	20.007	100.224	19.858	54.488	0.509
536.001	326.390	80.002	20.008	100.211	19.839	57.628	0.525
538.000	327.406	80.002	20.007	100.242	19.809	62.296	0.493
540.001	328.399	80.000	20.008	100.245	19.771	68.311	0.553
542.000	329.393	80.000	20.007	100.318	19.745	72.366	0.478
544.000	330.389	80.001	20.007	100.275	19.724	75.834	0.489
546.001	331.445	80.001	20.007	100.248	19.702	79.198	0.475
548.000	332.422	80.000	20.007	100.225	19.678	83.036	0.495
550.000	333.448	80.001	20.008	100.197	19.644	88.389	0.518
552.001	334.389	80.001	20.008	100.209	19.602	95.005	0.491
554.000	335.375	80.001	20.008	100.279	19.567	100.485	0.541
556.000	336.371	80.001	20.007	100.274	19.532	106.010	0.516
558.000	337.360	80.002	20.007	100.266	19.501	110.989	0.499
560.000	338.414	80.000	20.007	100.247	19.472	115.545	0.500
562.000	339.451	80.000	20.008	100.217	19.450	119.033	0.493
564.000	340.420	80.001	20.007	100.217	19.426	122.911	0.488
566.000	341.408	80.000	20.008	100.241	19.398	127.255	0.477
568.000	342.416	80.001	20.007	100.232	19.366	132.198	0.478
570.000	343.380	80.001	20.007	100.259	19.330	137.951	0.527
572.000	344.366	80.001	20.007	100.286	19.292	144.073	0.503
574.000	345.288	80.001	20.007	100.283	19.262	148.864	0.478
576.000	346.308	80.002	20.008	100.293	19.233	153.313	0.480
578.000	347.330	80.000	20.007	100.269	19.209	157.166	0.528
580.000	348.342	80.000	20.008	100.247	19.186	160.777	0.498
582.000	349.347	80.002	20.007	100.243	19.158	165.208	0.517
584.000	350.349	80.001	20.007	100.274	19.130	169.654	0.557
586.000	351.367	80.001	20.007	100.283	19.105	173.631	0.490
588.000	352.347	80.001	20.008	100.296	19.085	176.831	0.507
590.000	353.394	80.002	20.008	100.290	19.063	180.323	0.524
592.000	354.324	80.001	20.008	100.256	19.043	183.380	0.484
594.000	355.328	80.001	20.007	100.279	19.022	186.625	0.455
596.000	356.333	80.001	20.007	100.269	19.003	189.706	0.485
598.000	357.302	80.001	20.008	100.305	18.986	192.355	0.512
600.000	358.311	80.001	20.007	100.336	18.974	194.395	0.516
602.000	359.248	80.002	20.008	100.322	18.957	197.119	0.542
604.000	360.271	80.001	20.007	100.310	18.945	198.860	0.483
606.000	361.231	80.000	20.008	100.298	18.933	200.813	0.439
608.000	362.205	80.001	20.008	100.290	18.928	201.581	0.552
610.000	363.248	80.001	20.008	100.283	18.916	203.412	0.537
612.000	364.252	80.002	20.007	100.312	18.904	205.426	0.471
614.000	365.170	80.001	20.008	100.320	18.897	206.674	0.466
616.000	366.207	80.001	20.008	100.333	18.886	208.328	0.520
618.000	367.243	79.999	20.007	100.312	18.877	209.779	0.558
620.000	368.195	80.000	20.008	100.343	18.875	209.981	0.517
622.000	369.179	80.001	20.007	100.321	18.871	210.611	0.472
624.000	370.223	80.002	20.007	100.280	18.852	213.550	0.506
626.000	371.236	80.000	20.007	100.354	18.830	217.065	0.529
628.000	372.141	80.000	20.007	100.373	18.828	217.356	0.493
630.000	373.135	80.000	20.007	100.352	18.832	216.621	0.465
632.000	374.097	80.002	20.007	100.326	18.830	217.086	0.460
634.000	375.081	79.999	20.006	100.313	18.847	214.426	0.464
636.000	376.065	80.000	20.006	100.285	18.878	209.608	0.517
638.000	376.995	80.000	20.007	100.263	18.917	203.485	0.460
640.000	378.043	80.002	20.009	100.286	18.969	195.257	0.517
642.000	379.016	80.001	20.010	100.286	19.015	188.078	0.496
644.000	380.061	80.000	20.008	100.273	19.062	180.595	0.503
646.000	381.076	80.001	20.007	100.348	19.118	171.772	0.500
648.000	382.063	79.998	20.008	100.351	19.164	164.325	0.487
650.000	383.141	80.001	20.008	100.376	19.207	157.657	0.520
652.000	384.143	80.001	20.007	100.400	19.249	150.827	0.524
654.000	385.167	80.002	20.007	100.372	19.279	146.097	0.504
656.000	386.204	80.001	20.007	100.427	19.308	141.551	0.539
658.000	387.242	80.000	20.007	100.423	19.336	137.171	0.515
660.000	388.231	80.000	20.008	100.372	19.361	133.171	0.565
662.000	389.220	80.002	20.008	100.368	19.394	127.996	0.496
664.000	390.314	79.999	20.007	100.342	19.424	123.276	0.528
666.000	391.325	80.000	20.008	100.342	19.452	118.773	0.452
668.000	392.314	80.001	20.008	100.326	19.480	114.348	0.478
670.000	393.352	80.002	20.007	100.345	19.510	109.578	0.527
672.000	394.352	80.001	20.007	100.339	19.530	106.490	0.486
674.000	395.347	80.001	20.008	100.344	19.558	101.969	0.480
676.000	396.350	80.001	20.007	100.318	19.585	97.811	0.512
678.000	397.418	80.001	20.008	100.324	19.615	93.065	0.512
680.000	398.381	80.001	20.007	100.296	19.645	88.345	0.480
682.000	399.438	80.002	20.008	100.289	19.675	83.452	0.500
684.000	400.444	80.001	20.008	100.280	19.706	78.579	0.512
686.000	401.462	80.001	20.008	100.284	19.740	73.236	0.522
688.000	402.432	80.001	20.007	100.288	19.769	68.607	0.499
690.000	403.456	80.000	20.008	100.307	19.798	64.063	0.486
692.000	404.420	80.000	20.007	100.303	19.826	59.666	0.517
694.000	405.406	80.000	20.008	100.319	19.850	55.845	0.526
696.000	406.364	80.000	20.007	100.301	19.874	52.095	0.520
698.000	407.399	80.001	20.007	100.302	19.895	48.714	0.513
700.000	408.447	80.001	20.007	100.279	19.918	45.072	0.527
702.000	409.440	80.001	20.008	100.291	19.934	42.506	0.517
704.000	410.451	80.001	20.008	100.283	19.956	39.025	0.500
706.000	411.468	80.002	20.008	100.288	19.971	36.752	0.537
708.000	412.509	80.001	20.007	100.274	19.987	34.158	0.536
710.000	413.497	80.001	20.008	100.283	20.002	31.826	0.468
712.000	414.496	80.000	20.007	100.276	20.014	29.983	0.476
714.000	415.480	80.001	20.008	100.288	20.026	27.966	0.494
716.000	416.471	80.000	20.008	100.250	20.034	26.837	0.497
718.000	417.475	80.001	20.008	100.279	20.046	24.944	0.492
720.000	418.467	79.999	20.007	100.255	20.052	23.998	0.496
722.000	419.448	80.000	20.007	100.269	20.058	22.983	0.484
724.000	420.469	80.001	20.008	100.265	20.070	21.133	0.499
726.000	421.457	80.001	20.007	100.288	20.077	19.994	0.504
728.000	422.452	80.000	20.008	100.239	20.080	19.541	0.509
730.000	423.432	80.000	20.007	100.255	20.083	19.004	0.507
732.000	424.356	80.001	20.008	100.238	20.090	17.946	0.462
734.000	425.365	80.001	20.008	100.249	20.090	17.917	0.513
736.000	426.324	80.001	20.008	100.229	20.097	16.835	0.504
738.000	427.302	80.001	20.008	100.256	20.100	16.275	0.502
740.000	428.281	80.001	20.008	100.255	20.101	16.206	0.502
742.000	429.275	80.000	20.007	100.230	20.106	15.462	0.496
744.000	430.237	80.002	20.008	100.224	20.107	15.271	0.472
746.000	431.122	80.001	20.007	100.244	20.110	14.840	0.479
748.000	432.130	80.002	20.008	100.241	20.113	14.262	0.490
750.000	433.114	80.000	20.007	100.241	20.117	13.606	0.481
752.000	434.082	80.002	20.008	100.248	20.120	13.252	0.505
754.000	435.036	80.000	20.008	100.252	20.123	12.784	0.476
756.000	436.009	80.000	20.007	100.261	20.122	12.933	0.484
758.000	436.996	80.000	20.008	100.231	20.122	12.904	0.508
760.001	437.967	80.002	20.007	100.242	20.118	13.479	0.498
762.000	438.940	80.000	20.008	100.222	20.120	13.148	0.471
764.000	439.914	80.000	20.008	100.234	20.123	12.720	0.507
766.000	440.854	80.000	20.007	100.241	20.124	12.604	0.476
768.000	441.826	80.001	20.007	100.250	20.127	12.024	0.455
770.000	442.818	80.000	20.007	100.277	20.129	11.753	0.494
772.000	443.778	80.001	20.007	100.261	20.131	11.419	0.496
774.000	444.756	80.001	20.008	100.266	20.130	11.533	0.526
776.000	445.750	80.000	20.007	100.276	20.131	11.487	0.541
778.000	446.713	80.000	20.007	100.264	20.131	11.470	0.506
780.000	447.685	80.001	20.007	100.242	20.129	11.744	0.487
782.000	448.675	80.000	20.008	100.232	20.125	12.379	0.568
784.000	449.627	80.002	20.007	100.230	20.126	12.272	0.505
786.000	450.633	80.001	20.008	100.223	20.124	12.506	0.506
788.000	451.598	80.000	20.008	100.234	20.125	12.409	0.510
790.000	452.553	80.001	20.008	100.235	20.124	12.534	0.457
792.001	453.512	80.001	20.008	100.233	20.127	12.113	0.493
794.000	454.550	80.002	20.008	100.245	20.126	12.276	0.560
796.000	455.499	80.001	20.008	100.248	20.130	11.641	0.494
798.000	456.483	80.001	20.007	100.283	20.133	11.160	0.510
800.000	457.482	80.001	20.007	100.259	20.126	12.204	0.503
802.000	458.473	80.000	20.008	100.281	20.128	11.904	0.441
804.000	459.506	80.002	20.008	100.199	20.128	11.905	0.497
806.000	460.475	80.001	20.007	100.232	20.127	12.066	0.492
808.000	461.504	80.001	20.008	100.224	20.129	11.726	0.497
810.000	462.481	80.000	20.007	100.229	20.130	11.603	0.494
812.000	463.504	80.000	20.007	100.221	20.130	11.614	0.525
814.001	464.459	80.001	20.007	100.222	20.128	11.947	0.480
816.000	465.425	80.001	20.007	100.222	20.125	12.334	0.428
818.000	466.484	79.999	20.007	100.234	20.126	12.303	0.504
820.000	467.476	80.001	20.007	100.223	20.127	12.087	0.494
822.000	468.534	80.000	20.007	100.255	20.124	12.477	0.536
824.000	469.530	80.001	20.008	100.212	20.123	12.728	0.497
826.000	470.531	80.000	20.009	100.212	20.123	12.674	0.468
828.000	471.494	80.000	20.007	100.063	20.129	11.797	0.504
830.000	472.475	80.000	20.006	100.367	20.128	11.978	0.464
832.000	473.490	80.000	20.008	100.242	20.127	12.147	0.454
834.000	474.475	80.002	20.010	100.248	20.129	11.800	0.494
836.000	475.529	80.000	20.008	100.263	20.133	11.199	0.532
838.000	476.428	80.002	20.008	100.274	20.134	10.938	0.462
840.000	477.504	80.000	20.007	100.241	20.135	10.867	0.490
842.000	478.410	80.001	20.008	100.271	20.130	11.615	0.490
844.000	479.395	80.001	20.007	100.255	20.129	11.759	0.511
846.000	480.318	79.999	20.007	100.268	20.131	11.403	0.494
848.000	481.271	80.000	20.008	100.269	20.130	11.639	0.500
850.000	482.254	80.001	20.007	100.276	20.126	12.160	0.492
852.000	483.236	80.001	20.007	100.247	20.131	11.379	0.493
854.000	484.281	79.999	20.007	100.236	20.128	11.865	0.524
856.000	485.225	80.001	20.007	100.232	20.124	12.499	0.481
858.000	486.191	80.000	20.007	100.243	20.128	11.903	0.474
860.000	487.201	80.001	20.008	100.198	20.121	12.982	0.541
862.000	488.134	80.001	20.007	100.227	20.119	13.278	0.470
864.000	489.229	80.001	20.007	100.203	20.122	12.878	0.528
866.000	490.163	80.000	20.007	100.235	20.124	12.531	0.472
868.000	491.173	80.001	20.008	100.220	20.124	12.572	0.517
870.000	492.176	80.003	20.011	100.249	20.122	12.939	0.496
872.000	493.094	80.001	20.009	100.183	20.126	12.182	0.456
874.000	494.139	80.001	20.011	100.180	20.127	12.054	0.479
876.000	495.092	80.001	20.007	100.308	20.127	12.074	0.488
878.000	496.090	80.001	20.007	100.264	20.126	12.203	0.496
880.000	497.048	80.000	20.008	100.222	20.126	12.294	0.484
882.000	498.019	80.001	20.007	100.242	20.123	12.775	0.483
884.000	498.997	80.000	20.008	100.236	20.122	12.925	0.496
886.000	500.078	80.001	20.007	100.229	20.119	13.363	0.522
888.000	501.081	80.002	20.008	100.199	20.119	13.406	0.491
890.000	502.079	80.001	20.007	100.207	20.119	13.359	0.547
892.000	503.048	80.002	20.008	100.195	20.116	13.811	0.487
894.000	504.030	80.001	20.007	100.244	20.118	13.490	0.448
896.000	505.043	80.002	20.008	100.224	20.118	13.457	0.499
898.000	505.976	80.002	20.007	100.227	20.120	13.225	0.486
900.000	506.910	80.001	20.007	100.214	20.123	12.704	0.450
902.000	507.856	80.000	20.007	100.231	20.118	13.516	0.481
904.000	508.819	80.001	20.008	100.201	20.120	13.116	0.471
906.000	509.816	80.001	20.008	100.221	20.119	13.420	0.463
908.000	510.826	80.002	20.008	100.219	20.117	13.666	0.498
910.000	511.778	80.001	20.007	100.248	20.120	13.223	0.484
912.000	512.724	80.002	20.008	100.226	20.119	13.405	0.465
914.000	513.751	80.000	20.008	100.251	20.119	13.328	0.517
916.000	514.805	80.001	20.007	100.242	20.120	13.118	0.539
918.000	515.754	80.001	20.007	100.261	20.121	13.090	0.484
920.000	516.715	80.001	20.007	100.249	20.124	12.591	0.516
922.000	517.694	80.000	20.008	100.226	20.119	13.348	0.482
924.000	518.721	80.000	20.008	100.203	20.116	13.824	0.527
926.000	519.708	80.001	20.008	100.216	20.117	13.670	0.465
928.000	520.705	80.002	20.008	100.221	20.119	13.307	0.506
930.000	521.692	80.001	20.008	100.241	20.116	13.835	0.502
932.000	522.700	80.002	20.007	100.241	20.117	13.590	0.517
934.000	523.709	80.002	20.008	100.233	20.117	13.723	0.475
936.000	524.679	80.001	20.007	100.252	20.121	12.996	0.470
938.000	525.681	80.002	20.007	100.242	20.119	13.389	0.494
940.000	526.601	80.003	20.007	100.276	20.121	13.070	0.471
942.000	527.600	80.001	20.007	100.264	20.120	13.128	0.488
944.000	528.649	80.001	20.008	100.242	20.118	13.444	0.509
946.000	529.592	80.002	20.008	100.231	20.116	13.743	0.478
948.000	530.657	80.001	20.007	100.248	20.115	14.015	0.506
950.000	531.596	79.999	20.008	100.217	20.117	13.597	0.470
952.000	532.580	80.001	20.007	100.216	20.112	14.385	0.487
954.000	533.588	80.001	20.007	100.220	20.114	14.203	0.517
956.000	534.556	80.000	20.008	100.225	20.116	13.831	0.504
958.000	535.570	80.001	20.007	100.216	20.116	13.804	0.525
960.000	536.554	80.002	20.008	100.210	20.117	13.688	0.504
962.000	537.544	80.001	20.007	100.218	20.114	14.058	0.484
964.000	538.553	80.003	20.008	100.224	20.116	13.738	0.507
966.000	539.580	80.001	20.007	100.242	20.116	13.789	0.513
968.000	540.556	80.003	20.008	100.224	20.116	13.759	0.486
970.000	541.563	80.003	20.007	100.247	20.117	13.729	0.495
972.000	542.555	80.000	20.008	100.235	20.113	14.217	0.523
974.000	543.571	80.001	20.007	100.240	20.116	13.788	0.467
976.001	544.564	80.000	20.008	100.221	20.116	13.842	0.495
978.000	545.538	80.002	20.007	100.250	20.117	13.612	0.492
980.000	546.540	80.001	20.008	100.231	20.114	14.095	0.496
982.000	547.535	80.003	20.008	100.252	20.114	14.158	0.491
984.000	548.542	80.000	20.008	100.236	20.116	13.848	0.520
986.000	549.510	80.000	20.008	100.244	20.115	13.998	0.500
988.000	550.471	80.001	20.007	100.245	20.114	14.094	0.493
990.001	551.487	80.000	20.008	100.248	20.115	14.010	0.513
992.000	552.458	80.001	20.008	100.246	20.113	14.233	0.505
994.000	553.489	80.003	20.008	100.240	20.116	13.767	0.521
996.000	554.503	80.001	20.008	100.243	20.114	14.078	0.505
998.000	555.478	80.001	20.008	100.242	20.116	13.865	0.476
1000.000	556.496	80.002	20.008	100.243	20.114	14.141	0.491
1002.000	557.521	80.001	20.008	100.221	20.114	14.125	0.504
1004.000	558.479	80.003	20.008	100.203	20.113	14.369	0.478
1006.000	559.467	80.002	20.008	100.219	20.117	13.677	0.489
1008.000	560.482	80.001	20.007	100.244	20.116	13.888	0.488
1010.000	561.546	80.003	20.008	100.240	20.114	14.201	0.528
1012.000	562.553	80.001	20.007	100.251	20.110	14.705	0.465
1014.000	563.563	80.000	20.008	100.237	20.116	13.847	0.500
1016.000	564.578	80.002	20.008	100.251	20.114	14.138	0.508
1018.000	565.609	80.001	20.008	100.238	20.113	14.226	0.524
1020.000	566.631	80.001	20.007	100.246	20.111	14.612	0.541
1022.000	567.603	80.001	20.008	100.238	20.110	14.833	0.536
1024.000	568.610	80.001	20.008	100.242	20.109	14.857	0.497
1026.000	569.627	80.001	20.008	100.240	20.111	14.582	0.480
1028.000	570.623	80.001	20.007	100.239	20.108	15.079	0.500
1030.000	571.635	80.001	20.008	100.252	20.111	14.670	0.487
1032.000	572.665	80.002	20.007	100.245	20.110	14.762	0.508
1034.001	573.614	80.001	20.008	100.240	20.114	14.143	0.508
1036.000	574.586	80.001	20.007	100.247	20.115	14.014	0.460
1038.000	575.607	80.001	20.008	100.245	20.113	14.334	0.493
1040.000	576.611	80.002	20.007	100.239	20.110	14.681	0.522
1042.000	577.646	80.000	20.008	100.248	20.111	14.626	0.533
1044.001	578.586	80.001	20.007	100.243	20.113	14.307	0.502
1046.001	579.605	80.000	20.008	100.242	20.114	14.193	0.501
1048.000	580.626	80.001	20.007	100.256	20.110	14.692	0.511
1050.000	581.622	80.001	20.008	100.238	20.112	14.457	0.490
1052.000	582.658	80.001	20.007	100.224	20.113	14.339	0.523
1054.000	583.654	80.002	20.008	100.223	20.112	14.457	0.498
1056.001	584.639	80.001	20.007	100.253	20.109	14.860	0.547
1058.000	585.658	80.002	20.008	100.237	20.106	15.365	0.529
1060.000	586.658	80.001	20.007	100.244	20.109	14.977	0.525
1062.001	587.627	80.002	20.007	100.229	20.107	15.199	0.466
1064.001	588.598	80.002	20.008	100.253	20.109	14.992	0.481
1066.001	589.622	80.001	20.008	100.238	20.108	15.064	0.459
1068.000	590.607	80.002	20.008	100.235	20.113	14.248	0.488
1070.000	591.610	80.002	20.008	100.218	20.109	14.902	0.495
1072.000	592.563	80.001	20.008	100.251	20.109	14.943	0.488
1074.001	593.557	80.001	20.008	100.235	20.108	15.112	0.494
1076.000	594.561	80.002	20.007	100.263	20.107	15.178	0.496
1078.001	595.527	80.003	20.008	100.255	20.112	14.387	0.513
1080.000	596.568	80.001	20.008	100.263	20.110	14.819	0.517
1082.000	597.535	80.001	20.007	100.249	20.109	14.960	0.504
1084.001	598.598	80.002	20.008	100.250	20.109	14.970	0.539
1086.000	599.512	80.001	20.007	100.232	20.106	15.386	0.429
1088.001	600.555	80.001	20.007	100.243	20.107	15.272	0.493
1090.000	601.507	80.001	20.008	100.213	20.102	15.985	0.518
1092.000	602.479	80.002	20.007	100.225	20.104	15.648	0.487
1094.001	603.510	80.002	20.008	100.202	20.104	15.729	0.485
1096.000	604.531	80.002	20.008	100.224	20.102	16.039	0.513
1098.000	605.535	80.002	20.008	100.214	20.101	16.128	0.536
1100.001	606.515	80.000	20.007	100.235	20.105	15.556	0.519
1102.000	607.470	80.002	20.008	100.221	20.106	15.434	0.505
1104.000	608.479	80.002	20.008	100.252	20.108	15.075	0.501
1106.000	609.467	80.000	20.008	100.231	20.105	15.608	0.466
1108.000	610.435	80.001	20.008	100.248	20.104	15.673	0.507
1110.001	611.430	80.002	20.008	100.207	20.104	15.750	0.482
1112.000	612.389	80.002	20.008	100.225	20.102	15.975	0.476
1114.000	613.344	80.000	20.008	100.224	20.102	16.052	0.478
1116.000	614.382	80.001	20.007	100.250	20.103	15.900	0.515
1118.000	615.382	80.001	20.007	100.232	20.102	16.043	0.467
1120.000	616.414	80.001	20.007	100.257	20.101	16.124	0.488
1122.000	617.383	80.000	20.008	100.231	20.104	15.736	0.494
1124.001	618.397	80.001	20.008	100.240	20.106	15.411	0.489
1126.000	619.386	80.002	20.008	100.228	20.106	15.390	0.477
1128.000	620.378	80.002	20.008	100.257	20.102	16.034	0.487
1130.000	621.364	80.002	20.008	100.237	20.104	15.694	0.544
1132.000	622.372	80.002	20.008	100.259	20.102	16.075	0.504
1134.000	623.411	80.002	20.008	100.236	20.102	15.986	0.536
1136.000	624.394	80.001	20.007	100.257	20.100	16.324	0.524
1138.000	625.390	80.001	20.008	100.225	20.102	15.977	0.504
1140.000	626.532	80.002	20.008	100.240	20.105	15.588	0.556
1142.001	627.531	80.001	20.009	100.222	20.107	15.253	0.524
1144.001	628.511	80.001	20.008	100.244	20.103	15.812	0.489
1146.000	629.513	80.002	20.007	100.230	20.104	15.646	0.515
1148.000	630.566	80.001	20.008	100.247	20.103	15.883	0.537
1150.000	631.563	80.001	20.008	100.233	20.105	15.547	0.486
1152.001	632.588	80.001	20.008	100.251	20.106	15.463	0.482
1154.001	633.608	80.002	20.007	100.244	20.105	15.527	0.524
1156.000	634.640	80.002	20.008	100.236	20.102	15.954	0.523
1158.000	635.636	80.001	20.008	100.226	20.105	15.558	0.514
1160.000	636.678	80.001	20.008	100.225	20.104	15.757	0.543
1162.000	637.678	80.002	20.007	100.239	20.107	15.310	0.536
1164.001	638.636	80.001	20.008	100.213	20.103	15.938	0.476
1166.001	639.667	80.002	20.007	100.232	20.103	15.938	0.492
1168.001	640.697	80.001	20.008	100.216	20.102	16.073	0.507
1170.000	641.674	80.000	20.008	100.231	20.102	16.003	0.504
1172.000	642.651	80.002	20.008	100.215	20.101	16.233	0.475
1174.000	643.729	80.003	20.007	100.231	20.101	16.146	0.513
1176.000	644.675	80.001	20.008	100.216	20.102	16.004	0.478
1178.001	645.675	80.002	20.007	100.238	20.102	15.980	0.465
1180.001	646.683	80.001	20.008	100.222	20.105	15.574	0.464
1182.000	647.676	80.002	20.008	100.245	20.104	15.723	0.470
1184.000	648.723	80.002	20.008	100.226	20.100	16.321	0.530
1186.000	649.710	80.002	20.008	100.245	20.105	15.594	0.497
1188.000	650.692	80.002	20.008	100.236	20.105	15.581	0.499
1190.001	651.715	80.003	20.008	100.268	20.103	15.932	0.498
1192.000	652.727	80.002	20.007	100.269	20.104	15.657	0.499
1194.001	653.763	80.002	20.007	100.276	20.104	15.738	0.517
1196.000	654.801	80.003	20.007	100.244	20.101	16.141	0.533
1198.001	655.790	80.001	20.008	100.248	20.103	15.815	0.499
1200.001	656.797	80.002	20.007	100.241	20.107	15.241	0.507
1202.000	657.827	80.001	20.008	100.254	20.102	15.988	0.553
1204.001	658.829	80.001	20.007	100.244	20.104	15.635	0.519
1206.000	659.836	80.001	20.008	100.249	20.102	15.955	0.521
1208.000	660.879	80.001	20.007	100.237	20.106	15.426	0.553
1210.000	661.847	80.002	20.008	100.262	20.104	15.755	0.489
1212.001	662.854	80.002	20.008	100.260	20.104	15.739	0.510
1214.001	663.853	80.002	20.007	100.252	20.102	15.976	0.488
1216.000	664.897	80.002	20.008	100.227	20.102	16.006	0.518
1218.000	665.831	80.002	20.007	100.253	20.100	16.343	0.487
1220.000	666.959	80.001	20.008	100.233	20.101	16.162	0.550
1222.001	667.844	80.000	20.008	100.255	20.100	16.343	0.458
1224.000	668.885	80.002	20.007	100.230	20.100	16.386	0.497
1226.000	669.953	80.001	20.008	100.259	20.099	16.540	0.496
1228.000	670.888	80.002	20.008	100.235	20.100	16.295	0.482
1230.001	671.927	80.001	20.007	100.258	20.102	16.093	0.497
1232.000	672.913	80.002	20.008	100.231	20.103	15.924	0.526
1234.001	673.888	80.001	20.007	100.255	20.100	16.272	0.466
1236.001	674.907	80.001	20.008	100.225	20.097	16.871	0.531
1238.000	675.901	80.001	20.007	100.242	20.098	16.723	0.500
1240.000	676.917	80.002	20.008	100.235	20.099	16.535	0.543
1242.001	677.948	80.001	20.007	100.249	20.098	16.698	0.527
1244.001	678.905	80.001	20.008	100.234	20.100	16.350	0.473
1246.001	679.945	80.001	20.007	100.244	20.096	17.031	0.518
1248.000	680.937	80.000	20.008	100.212	20.097	16.870	0.485
1250.001	681.892	80.001	20.007	100.236	20.100	16.321	0.495
1252.000	682.867	80.002	20.008	100.266	20.105	15.543	0.500
1254.001	683.839	80.003	20.007	100.296	20.102	15.970	0.489
1256.000	684.800	80.002	20.008	100.294	20.103	15.865	0.446
1258.001	685.764	80.002	20.007	100.257	20.104	15.732	0.488
1260.001	686.745	80.002	20.007	100.258	20.099	16.581	0.478
1262.000	687.692	80.001	20.007	100.244	20.100	16.335	0.506
1264.000	688.638	80.002	20.008	100.262	20.098	16.592	0.486
1266.001	689.661	80.002	20.007	100.246	20.095	17.057	0.465
1268.000	690.679	80.002	20.007	100.255	20.100	16.286	0.569
1270.000	691.559	80.001	20.007	100.240	20.103	15.921	0.484
1272.001	692.650	80.001	20.008	100.281	20.102	16.018	0.561
1274.000	693.607	80.001	20.007	100.255	20.100	16.300	0.491
1276.000	694.548	80.000	20.007	100.248	20.101	16.221	0.488
1278.001	695.577	80.002	20.007	100.229	20.098	16.597	0.521
1280.000	696.613	80.002	20.007	100.256	20.096	16.901	0.525
1282.001	697.538	80.001	20.008	100.228	20.099	16.453	0.495
1284.000	698.591	80.001	20.008	100.252	20.101	16.202	0.508
1286.000	699.634	80.001	20.008	100.246	20.097	16.788	0.546
1288.000	700.608	80.002	20.007	100.259	20.099	16.538	0.463
1290.001	701.605	80.002	20.008	100.243	20.097	16.842	0.476
1292.001	702.642	80.000	20.007	100.255	20.098	16.677	0.457
1294.000	703.660	80.002	20.008	100.234	20.094	17.246	0.506
1296.000	704.647	80.001	20.007	100.257	20.098	16.612	0.518
1298.000	705.669	80.001	20.008	100.248	20.097	16.822	0.536
1300.001	706.653	80.001	20.007	100.258	20.097	16.816	0.508
1302.001	707.677	80.003	20.007	100.239	20.098	16.690	0.523
1304.001	708.711	80.003	20.007	100.252	20.095	17.095	0.532
1306.000	709.737	80.003	20.008	100.254	20.095	17.092	0.507
1308.000	710.786	80.003	20.008	100.241	20.096	16.907	0.512
1310.001	711.776	80.001	20.007	100.262	20.097	16.830	0.454
1312.001	712.919	80.002	20.008	100.255	20.093	17.514	0.537
1314.000	713.892	80.001	20.008	100.248	20.095	17.149	0.497
1316.000	714.991	80.002	20.008	100.257	20.096	16.910	0.545
1318.001	716.013	80.002	20.008	100.257	20.095	17.077	0.517
1320.000	716.923	80.003	20.008	100.265	20.095	17.120	0.479
1322.001	717.991	80.003	20.007	100.269	20.098	16.724	0.504
1324.000	719.004	80.002	20.008	100.241	20.096	16.969	0.524
1326.001	720.055	80.003	20.008	100.258	20.093	17.384	0.483
1328.000	721.015	80.002	20.007	100.255	20.093	17.495	0.481
1330.000	722.059	80.002	20.008	100.254	20.092	17.580	0.512
1332.000	723.050	80.001	20.007	100.245	20.095	17.153	0.511
1334.001	724.098	80.002	20.008	100.258	20.094	17.291	0.525
1336.001	725.146	80.000	20.008	100.238	20.097	16.852	0.534
1338.000	726.210	80.001	20.007	100.258	20.094	17.267	0.558
1340.000	727.251	80.002	20.007	100.233	20.093	17.492	0.513
1342.000	728.224	80.001	20.007	100.255	20.090	17.864	0.507
1344.001	729.244	80.002	20.007	100.222	20.090	17.982	0.504
1346.000	730.288	80.002	20.007	100.250	20.089	18.033	0.551
1348.001	731.267	80.001	20.008	100.239	20.090	17.915	0.524
1350.000	732.312	80.001	20.007	100.265	20.091	17.836	0.547
1352.001	733.347	80.003	20.008	100.261	20.092	17.617	0.550
1354.000	734.317	80.001	20.007	100.267	20.093	17.433	0.479
1356.000	735.359	80.001	20.008	100.240	20.093	17.444	0.519
1358.000	736.323	80.001	20.007	100.257	20.093	17.462	0.542
1360.000	737.293	80.002	20.008	100.234	20.093	17.451	0.505
1362.000	738.229	80.002	20.007	100.258	20.094	17.323	0.492
1364.000	739.276	80.001	20.008	100.253	20.092	17.649	0.474
1366.000	740.248	80.001	20.007	100.270	20.091	17.743	0.520
1368.000	741.293	80.001	20.007	100.258	20.093	17.496	0.570
1370.000	742.308	80.002	20.008	100.247	20.087	18.477	0.518
1370.500	742.481	80.002	20.007	100.257	20.087	18.475	0.480