File: Experiments/TUBS/mcc/mcc_piece_2mg_dyn30_r1.txt
Sample Weight (mg):	2
Heating Rate (C/s):	0.5
Combustor Temp (C):	900
N2 Flow Rate (cc/min):	80
O2 Flow Rate (cc/min):	20
Time (s)	Temperature (C)	N2 flow rate (cc/min)	O2 flow rate (cc/min)	Flow Rate (cc/min)	Oxygen (%)	HRR (W/g)	Heating rate (C/s)
0.000	90.134	79.997	20.008	99.689	20.169	0.799	-0.126
2.000	89.950	79.997	20.008	99.710	20.169	0.862	-0.156
4.000	89.743	80.002	20.013	99.715	20.162	1.966	-0.094
6.000	89.486	80.001	20.009	99.737	20.147	4.230	-0.166
8.000	89.283	80.001	20.009	99.930	20.126	7.493	-0.114
10.000	89.040	80.000	20.009	100.113	20.113	9.680	-0.132
12.000	88.848	80.001	20.009	100.192	20.106	10.770	-0.054
14.000	88.689	80.000	20.008	100.204	20.095	12.484	-0.072
16.000	88.447	80.000	20.009	100.219	20.091	13.036	-0.070
18.000	88.321	80.000	20.009	100.233	20.088	13.437	-0.082
20.000	88.259	79.999	20.009	100.247	20.093	12.691	-0.027
22.000	88.114	80.001	20.008	100.210	20.090	13.215	-0.008
24.000	87.952	79.999	20.008	100.201	20.092	12.869	-0.068
26.001	87.840	80.000	20.009	100.185	20.091	12.995	-0.077
28.000	87.807	80.000	20.009	100.164	20.091	13.119	0.010
30.000	87.767	80.000	20.009	100.173	20.091	13.107	0.056
32.000	87.712	80.000	20.008	100.164	20.090	13.170	-0.091
34.001	87.707	80.000	20.009	100.173	20.088	13.444	0.013
36.000	87.687	80.000	20.008	100.179	20.081	14.559	0.009
38.000	87.698	80.003	20.008	100.210	20.082	14.516	0.027
40.000	87.723	79.999	20.008	100.249	20.078	15.156	0.014
42.000	87.764	80.000	20.008	100.224	20.078	15.122	-0.005
44.001	87.806	80.000	20.008	100.231	20.074	15.661	0.056
46.000	87.871	80.002	20.008	100.232	20.075	15.509	0.021
48.001	87.966	80.000	20.009	100.262	20.067	16.805	0.066
50.001	88.110	80.001	20.009	100.298	20.064	17.323	0.095
52.001	88.170	80.001	20.009	100.300	20.058	18.283	-0.023
54.000	88.405	80.001	20.010	100.315	20.057	18.307	0.091
56.001	88.592	79.999	20.009	100.316	20.058	18.246	0.130
58.000	88.830	80.001	20.009	100.337	20.059	18.133	0.108
60.000	89.140	79.999	20.009	100.370	20.056	18.582	0.151
62.000	89.438	80.000	20.009	100.349	20.056	18.506	0.159
64.001	89.704	80.001	20.009	100.333	20.057	18.399	0.147
66.001	90.112	80.001	20.008	100.328	20.055	18.736	0.143
68.000	90.488	80.001	20.008	100.354	20.057	18.404	0.223
70.000	90.921	80.001	20.008	100.370	20.055	18.644	0.196
72.000	91.354	80.000	20.009	100.352	20.056	18.523	0.236
74.000	91.833	80.001	20.009	100.357	20.050	19.541	0.242
76.000	92.203	80.001	20.008	100.348	20.050	19.424	0.208
78.000	92.730	80.001	20.009	100.369	20.050	19.507	0.249
80.000	93.258	80.000	20.008	100.373	20.043	20.563	0.309
82.000	93.787	80.001	20.008	100.392	20.046	20.091	0.264
84.001	94.331	80.001	20.008	100.394	20.045	20.330	0.261
86.001	94.898	80.000	20.009	100.408	20.043	20.512	0.273
88.000	95.518	80.001	20.009	100.430	20.043	20.567	0.338
90.001	96.131	80.001	20.009	100.416	20.040	21.025	0.302
92.001	96.745	80.002	20.008	100.418	20.038	21.430	0.287
94.000	97.482	80.001	20.009	100.413	20.037	21.516	0.348
96.001	98.138	80.001	20.009	100.419	20.041	20.930	0.346
98.000	98.975	80.000	20.009	100.425	20.039	21.262	0.441
100.001	99.761	80.000	20.009	100.417	20.042	20.698	0.405
102.000	100.510	80.001	20.009	100.446	20.042	20.716	0.394
104.001	101.378	79.999	20.009	100.435	20.039	21.164	0.426
106.000	102.233	80.001	20.009	100.442	20.040	21.100	0.429
108.000	103.075	80.001	20.008	100.430	20.041	20.843	0.426
110.000	103.971	80.000	20.009	100.444	20.043	20.653	0.423
112.000	104.863	80.000	20.009	100.455	20.042	20.708	0.468
114.001	105.755	80.001	20.008	100.435	20.044	20.425	0.452
116.000	106.675	79.999	20.009	100.447	20.045	20.335	0.465
118.000	107.643	79.998	20.009	100.442	20.043	20.522	0.501
120.000	108.602	80.001	20.009	100.431	20.045	20.312	0.523
122.000	109.581	80.001	20.009	100.432	20.045	20.205	0.530
124.001	110.616	80.001	20.009	100.418	20.047	19.928	0.548
126.001	111.630	80.001	20.009	100.427	20.047	20.037	0.506
128.000	112.738	80.000	20.009	100.416	20.046	20.175	0.528
130.000	113.762	80.000	20.009	100.429	20.045	20.223	0.504
132.000	114.924	80.001	20.009	100.404	20.047	19.915	0.554
134.000	115.972	80.000	20.009	100.414	20.050	19.530	0.568
136.000	117.076	79.999	20.009	100.410	20.048	19.739	0.577
138.000	118.212	80.000	20.009	100.412	20.051	19.330	0.564
140.000	119.371	80.000	20.008	100.428	20.052	19.110	0.568
142.000	120.469	80.000	20.009	100.417	20.051	19.282	0.565
144.000	121.603	80.001	20.009	100.416	20.053	19.057	0.551
146.000	122.748	80.000	20.009	100.399	20.054	18.923	0.576
148.000	123.916	80.001	20.009	100.409	20.054	18.931	0.586
150.000	125.053	80.000	20.009	100.399	20.057	18.342	0.573
152.000	126.202	80.000	20.009	100.396	20.057	18.311	0.574
154.000	127.411	80.001	20.008	100.377	20.057	18.429	0.593
156.000	128.551	80.001	20.009	100.377	20.055	18.768	0.598
158.000	129.693	80.001	20.009	100.378	20.056	18.536	0.592
160.000	130.839	80.001	20.009	100.369	20.058	18.209	0.566
162.000	132.076	80.001	20.009	100.373	20.057	18.349	0.631
164.000	133.263	80.001	20.009	100.361	20.058	18.237	0.593
166.000	134.488	80.000	20.009	100.358	20.061	17.694	0.625
168.000	135.692	80.000	20.009	100.352	20.058	18.269	0.629
170.001	136.873	80.000	20.008	100.347	20.062	17.645	0.585
172.000	138.007	80.001	20.008	100.356	20.063	17.470	0.606
174.000	139.225	79.999	20.008	100.349	20.065	17.158	0.595
176.000	140.402	80.000	20.009	100.357	20.065	17.152	0.607
178.000	141.560	80.000	20.008	100.351	20.067	16.733	0.579
180.000	142.771	80.001	20.009	100.355	20.068	16.662	0.589
182.000	144.001	80.000	20.009	100.344	20.071	16.187	0.620
184.000	145.161	80.001	20.009	100.341	20.071	16.147	0.553
186.000	146.351	79.999	20.008	100.331	20.073	15.881	0.592
188.000	147.566	80.000	20.009	100.305	20.072	16.022	0.574
190.000	148.705	80.000	20.009	100.314	20.070	16.406	0.616
192.000	149.909	80.000	20.008	100.299	20.069	16.534	0.599
194.000	151.086	79.999	20.009	100.306	20.069	16.570	0.594
196.000	152.293	80.001	20.009	100.283	20.071	16.143	0.613
198.000	153.473	79.999	20.011	100.316	20.067	16.849	0.628
200.000	154.557	80.001	20.008	100.249	20.070	16.396	0.553
202.000	155.740	80.000	20.006	100.255	20.073	15.925	0.560
204.000	156.918	80.001	20.008	100.428	20.075	15.623	0.580
206.000	158.002	80.001	20.009	100.323	20.075	15.517	0.569
208.000	159.135	80.001	20.008	100.312	20.076	15.422	0.586
210.000	160.230	80.000	20.009	100.321	20.080	14.841	0.546
212.001	161.404	80.000	20.008	100.331	20.078	15.108	0.591
214.000	162.538	80.000	20.009	100.330	20.075	15.534	0.556
216.000	163.594	80.000	20.008	100.299	20.075	15.576	0.526
218.000	164.736	80.001	20.008	100.302	20.073	15.896	0.548
220.000	165.822	80.001	20.007	100.342	20.079	14.903	0.565
222.000	166.929	80.001	20.009	100.378	20.079	14.957	0.570
224.000	168.046	80.002	20.009	100.348	20.078	15.096	0.560
226.000	169.181	79.999	20.008	100.242	20.080	14.796	0.563
228.000	170.274	80.000	20.007	100.346	20.082	14.516	0.571
230.000	171.380	80.000	20.009	100.363	20.077	15.235	0.562
232.000	172.412	80.000	20.009	100.296	20.072	15.958	0.527
234.000	173.534	80.001	20.003	100.311	20.067	16.795	0.568
236.000	174.650	79.999	20.007	100.221	20.069	16.511	0.584
238.000	175.710	80.000	20.007	100.259	20.068	16.584	0.520
240.000	176.810	80.001	20.009	100.387	20.068	16.628	0.529
242.000	177.911	80.000	20.009	100.286	20.069	16.466	0.548
244.000	178.990	79.999	20.009	100.311	20.070	16.376	0.549
246.000	180.034	80.000	20.009	100.272	20.067	16.834	0.547
248.000	181.065	80.000	20.009	100.250	20.069	16.472	0.523
250.000	182.135	79.999	20.008	100.239	20.065	17.049	0.534
252.000	183.178	80.001	20.009	100.240	20.064	17.242	0.491
254.000	184.237	80.000	20.008	100.249	20.066	17.009	0.539
256.000	185.298	80.000	20.009	100.242	20.066	16.956	0.499
258.000	186.349	80.001	20.008	100.245	20.068	16.579	0.500
260.000	187.408	80.000	20.008	100.228	20.069	16.486	0.508
262.000	188.459	80.000	20.009	100.254	20.069	16.498	0.544
264.000	189.524	80.001	20.009	100.263	20.071	16.222	0.517
266.000	190.593	80.001	20.009	100.277	20.069	16.421	0.529
268.000	191.626	80.001	20.009	100.258	20.073	15.950	0.525
270.000	192.640	80.000	20.009	100.296	20.071	16.219	0.522
272.000	193.659	80.001	20.009	100.278	20.072	16.089	0.507
274.000	194.722	79.998	20.008	100.273	20.065	17.183	0.544
276.000	195.702	80.000	20.008	100.224	20.069	16.462	0.461
278.000	196.705	79.999	20.006	100.214	20.073	15.825	0.480
280.000	197.719	80.000	20.009	100.408	20.071	16.168	0.486
282.000	198.731	80.000	20.008	100.295	20.074	15.702	0.517
284.000	199.764	80.001	20.009	100.271	20.072	15.973	0.480
286.000	200.735	80.000	20.009	100.250	20.071	16.128	0.508
288.000	201.736	80.000	20.009	100.244	20.068	16.633	0.488
290.000	202.675	80.001	20.013	100.251	20.064	17.206	0.524
292.000	203.736	80.000	20.008	100.129	20.069	16.483	0.510
294.000	204.725	80.001	20.008	100.173	20.068	16.584	0.499
296.000	205.732	80.001	20.009	100.382	20.068	16.581	0.514
298.000	206.747	80.001	20.009	100.262	20.068	16.564	0.538
300.000	207.729	80.000	20.009	100.256	20.071	16.102	0.502
302.000	208.771	80.001	20.009	100.277	20.068	16.660	0.532
304.000	209.765	80.000	20.008	100.259	20.068	16.698	0.519
306.000	210.737	80.000	20.009	100.257	20.068	16.710	0.492
308.000	211.792	80.000	20.009	100.254	20.070	16.301	0.526
310.000	212.718	80.000	20.009	100.238	20.070	16.363	0.470
312.000	213.752	80.000	20.008	100.260	20.070	16.270	0.529
314.000	214.754	80.001	20.009	100.268	20.070	16.300	0.552
316.000	215.711	80.002	20.008	100.282	20.070	16.343	0.501
318.000	216.689	80.000	20.009	100.244	20.069	16.505	0.480
320.000	217.688	79.999	20.009	100.245	20.066	16.915	0.505
322.000	218.680	80.001	20.008	100.212	20.068	16.690	0.490
324.000	219.709	80.000	20.009	100.239	20.069	16.463	0.502
326.000	220.745	80.000	20.008	100.237	20.068	16.718	0.539
328.000	221.717	80.001	20.009	100.242	20.066	16.954	0.477
330.000	222.692	79.999	20.009	100.242	20.066	17.014	0.504
332.000	223.724	80.001	20.009	100.241	20.066	16.985	0.495
334.000	224.720	79.999	20.008	100.245	20.067	16.864	0.490
336.000	225.788	80.001	20.009	100.235	20.066	16.945	0.552
338.000	226.802	80.000	20.008	100.263	20.068	16.626	0.516
340.000	227.797	80.000	20.009	100.231	20.068	16.708	0.530
342.000	228.785	80.001	20.009	100.238	20.066	16.940	0.456
344.000	229.797	80.001	20.009	100.216	20.068	16.602	0.484
346.000	230.760	80.000	20.009	100.217	20.066	16.951	0.487
348.000	231.861	80.000	20.008	100.206	20.066	16.897	0.552
350.000	232.843	80.000	20.009	100.214	20.062	17.529	0.532
352.000	233.837	80.000	20.009	100.211	20.063	17.355	0.462
354.000	234.843	80.001	20.009	100.211	20.068	16.682	0.463
356.000	235.891	80.000	20.009	100.215	20.068	16.595	0.503
358.000	236.932	79.999	20.009	100.219	20.067	16.792	0.509
360.000	237.966	80.001	20.009	100.225	20.066	16.879	0.548
362.000	238.951	80.000	20.009	100.222	20.070	16.354	0.491
364.000	240.014	80.000	20.009	100.246	20.065	17.050	0.486
366.000	240.944	80.001	20.008	100.252	20.071	16.248	0.474
368.000	242.007	80.001	20.009	100.200	20.067	16.801	0.543
370.000	243.085	80.000	20.011	100.221	20.065	17.057	0.514
372.001	244.101	80.001	20.011	100.070	20.065	17.113	0.511
374.000	245.097	80.001	20.010	100.179	20.069	16.435	0.498
376.000	246.096	79.999	20.007	100.266	20.065	17.071	0.483
378.000	247.133	80.002	20.008	100.238	20.067	16.815	0.531
380.000	248.134	80.001	20.008	100.251	20.070	16.268	0.476
382.000	249.213	80.001	20.008	100.223	20.071	16.110	0.533
384.000	250.142	80.001	20.008	100.213	20.073	15.857	0.462
386.000	251.169	80.002	20.008	100.171	20.073	15.903	0.500
388.000	252.191	80.001	20.009	100.179	20.070	16.317	0.486
390.000	253.160	80.001	20.008	100.191	20.069	16.418	0.482
392.000	254.105	80.002	20.008	100.208	20.069	16.510	0.458
394.000	255.116	80.002	20.008	100.206	20.069	16.438	0.504
396.000	256.132	80.002	20.008	100.210	20.065	17.106	0.492
398.000	257.092	80.001	20.008	100.229	20.069	16.488	0.496
400.000	258.142	80.000	20.008	100.249	20.068	16.661	0.516
402.000	259.170	80.001	20.008	100.239	20.071	16.123	0.532
404.001	260.140	80.001	20.008	100.242	20.069	16.477	0.532
406.000	261.127	80.001	20.008	100.259	20.070	16.283	0.513
408.000	262.102	80.001	20.008	100.235	20.070	16.372	0.492
410.000	263.052	80.001	20.007	100.231	20.067	16.850	0.448
412.000	264.055	80.000	20.008	100.193	20.065	17.149	0.482
414.000	265.083	80.001	20.008	100.214	20.065	17.030	0.499
416.000	266.091	80.002	20.008	100.227	20.063	17.418	0.497
418.000	267.171	80.001	20.008	100.259	20.066	16.924	0.517
420.000	268.134	80.001	20.008	100.247	20.063	17.422	0.477
422.000	269.144	80.001	20.008	100.241	20.062	17.576	0.521
424.000	270.191	80.001	20.008	100.218	20.060	17.868	0.518
426.000	271.204	80.001	20.008	100.195	20.057	18.399	0.503
428.000	272.202	80.001	20.008	100.174	20.056	18.443	0.516
430.000	273.218	80.002	20.008	100.188	20.057	18.401	0.489
432.000	274.213	80.001	20.008	100.239	20.054	18.796	0.515
434.000	275.260	80.000	20.008	100.227	20.052	19.112	0.517
436.000	276.282	80.002	20.008	100.215	20.047	19.864	0.536
438.000	277.278	80.000	20.008	100.214	20.050	19.439	0.500
440.000	278.329	80.000	20.008	100.239	20.047	19.924	0.493
442.000	279.319	80.000	20.008	100.225	20.044	20.389	0.473
444.000	280.350	80.000	20.008	100.227	20.037	21.520	0.544
446.000	281.359	80.001	20.008	100.222	20.039	21.165	0.513
448.000	282.349	80.000	20.008	100.205	20.037	21.526	0.487
450.000	283.381	80.001	20.008	100.222	20.034	21.961	0.489
452.000	284.377	80.002	20.008	100.209	20.034	22.009	0.520
454.000	285.421	80.001	20.008	100.224	20.031	22.401	0.526
456.000	286.391	80.001	20.008	100.229	20.031	22.444	0.462
458.000	287.418	80.001	20.008	100.251	20.030	22.641	0.495
460.000	288.381	80.002	20.008	100.237	20.025	23.386	0.501
462.000	289.391	80.001	20.008	100.232	20.019	24.299	0.481
464.000	290.384	80.001	20.008	100.230	20.018	24.503	0.511
466.000	291.390	80.001	20.008	100.225	20.014	25.090	0.528
468.000	292.412	80.001	20.008	100.226	20.013	25.229	0.530
470.000	293.402	80.000	20.008	100.230	20.013	25.230	0.475
472.000	294.367	80.001	20.007	100.247	20.012	25.404	0.477
474.000	295.399	80.001	20.008	100.217	20.007	26.148	0.496
476.000	296.350	80.001	20.008	100.233	20.006	26.279	0.508
478.000	297.367	80.001	20.008	100.241	20.003	26.856	0.494
480.000	298.391	80.001	20.008	100.236	20.001	27.106	0.514
482.000	299.398	80.000	20.008	100.232	20.000	27.298	0.539
484.000	300.366	80.002	20.008	100.233	20.001	27.184	0.514
486.000	301.395	80.001	20.008	100.237	20.000	27.333	0.469
488.000	302.417	80.001	20.008	100.225	20.002	26.897	0.508
490.000	303.388	80.001	20.008	100.247	20.000	27.201	0.498
492.000	304.390	80.000	20.008	100.228	19.998	27.534	0.491
494.000	305.452	80.000	20.008	100.242	19.993	28.315	0.532
496.000	306.444	80.000	20.008	100.212	19.991	28.654	0.520
498.000	307.435	80.002	20.008	100.221	19.989	28.964	0.489
500.000	308.520	80.001	20.008	100.208	19.985	29.567	0.537
502.000	309.473	80.001	20.008	100.215	19.981	30.233	0.504
504.000	310.565	80.001	20.008	100.197	19.976	31.007	0.508
506.000	311.610	80.002	20.008	100.199	19.971	31.808	0.516
508.000	312.650	80.000	20.007	100.195	19.964	32.906	0.518
510.000	313.624	80.001	20.008	100.191	19.960	33.591	0.513
512.000	314.621	80.000	20.007	100.229	19.957	34.032	0.513
514.000	315.658	79.999	20.008	100.223	19.946	35.636	0.533
516.000	316.637	80.001	20.008	100.213	19.935	37.359	0.528
518.000	317.692	80.001	20.008	100.191	19.928	38.568	0.545
520.001	318.713	80.001	20.007	100.202	19.919	39.993	0.500
522.000	319.729	80.001	20.008	100.186	19.907	41.780	0.481
524.000	320.764	80.001	20.008	100.217	19.898	43.148	0.542
526.000	321.744	80.000	20.008	100.229	19.887	44.882	0.489
528.000	322.849	80.001	20.008	100.203	19.876	46.746	0.534
530.000	323.863	80.000	20.007	100.213	19.861	48.921	0.513
532.000	324.894	80.000	20.008	100.218	19.842	52.033	0.518
534.000	325.887	80.001	20.007	100.221	19.828	54.048	0.495
536.000	326.909	80.001	20.008	100.201	19.796	59.192	0.485
538.000	327.839	80.001	20.007	100.222	19.763	64.346	0.478
540.000	328.898	80.000	20.008	100.240	19.736	68.587	0.522
542.000	329.954	80.001	20.008	100.226	19.717	71.548	0.520
544.000	330.969	80.000	20.008	100.186	19.699	74.399	0.537
546.000	331.984	80.001	20.008	100.175	19.678	77.604	0.508
548.000	332.903	79.999	20.008	100.141	19.659	80.638	0.470
550.000	333.943	80.001	20.008	100.144	19.638	83.877	0.551
552.000	334.921	80.000	20.008	100.194	19.615	87.424	0.487
554.000	335.916	80.000	20.008	100.203	19.588	91.586	0.493
556.000	336.959	80.000	20.009	100.238	19.552	97.231	0.527
558.000	337.910	79.999	20.008	100.231	19.514	103.272	0.492
560.000	338.887	79.999	20.008	100.254	19.486	107.628	0.491
562.000	339.876	79.999	20.009	100.217	19.455	112.425	0.484
564.000	340.877	80.001	20.009	100.213	19.425	117.065	0.476
566.000	341.825	79.999	20.008	100.183	19.387	123.132	0.486
568.000	342.870	80.000	20.009	100.183	19.354	128.290	0.547
570.000	343.847	80.001	20.009	100.198	19.316	134.168	0.492
572.000	344.864	80.001	20.009	100.216	19.278	140.163	0.523
574.000	345.798	80.000	20.009	100.213	19.245	145.348	0.448
576.000	346.842	80.000	20.010	100.200	19.216	149.930	0.510
578.000	347.794	80.000	20.009	100.208	19.182	155.120	0.512
580.000	348.741	79.999	20.009	100.200	19.143	161.239	0.486
582.000	349.738	79.999	20.008	100.218	19.104	167.487	0.479
584.000	350.690	80.000	20.009	100.228	19.075	172.010	0.484
586.000	351.742	80.000	20.008	100.259	19.047	176.249	0.524
588.000	352.722	80.000	20.009	100.230	19.021	180.363	0.501
590.000	353.701	80.000	20.009	100.241	18.992	184.972	0.499
592.000	354.706	80.000	20.008	100.237	18.958	190.321	0.532
594.000	355.688	79.999	20.008	100.257	18.929	194.717	0.475
596.000	356.699	80.000	20.008	100.260	18.906	198.298	0.512
598.000	357.657	80.000	20.009	100.256	18.889	201.176	0.493
600.000	358.688	80.000	20.008	100.248	18.875	203.345	0.520
602.000	359.629	80.001	20.009	100.255	18.858	205.900	0.476
604.000	360.672	80.000	20.009	100.252	18.842	208.436	0.523
606.000	361.636	80.000	20.009	100.245	18.830	210.360	0.479
608.000	362.586	79.999	20.009	100.226	18.821	211.793	0.508
610.000	363.578	80.000	20.009	100.248	18.813	212.986	0.499
612.000	364.571	79.999	20.009	100.328	18.806	214.120	0.495
614.000	365.574	80.000	20.009	100.297	18.799	215.310	0.507
616.000	366.546	80.001	20.009	100.301	18.794	215.941	0.476
618.000	367.514	80.000	20.008	100.304	18.790	216.522	0.461
620.000	368.492	80.000	20.008	100.303	18.793	216.107	0.499
622.000	369.461	79.999	20.009	100.279	18.802	214.762	0.468
624.000	370.411	79.999	20.009	100.279	18.795	215.942	0.465
626.000	371.372	80.000	20.009	100.298	18.798	215.620	0.484
628.000	372.334	80.001	20.008	100.317	18.831	210.183	0.481
630.000	373.341	80.001	20.009	100.270	18.858	205.835	0.521
632.000	374.360	80.001	20.009	100.254	18.874	203.407	0.512
634.000	375.304	80.001	20.008	100.301	18.886	201.465	0.506
636.000	376.267	80.000	20.010	100.310	18.899	199.604	0.500
638.000	377.322	79.999	20.008	100.389	18.929	194.922	0.529
640.000	378.299	80.000	20.009	100.373	18.966	189.083	0.501
642.000	379.192	79.999	20.009	100.284	19.008	182.530	0.456
644.000	380.220	80.000	20.008	100.249	19.050	176.103	0.472
646.000	381.192	80.001	20.010	100.269	19.092	169.530	0.480
648.000	382.127	79.999	20.009	100.255	19.141	161.813	0.461
650.001	383.062	80.000	20.008	100.319	19.190	154.047	0.473
652.000	383.995	80.000	20.008	100.306	19.229	147.928	0.439
654.000	384.966	80.000	20.009	100.332	19.264	142.475	0.506
656.000	385.967	80.001	20.008	100.361	19.297	137.366	0.492
658.000	386.926	80.000	20.009	100.376	19.330	132.161	0.474
660.000	387.945	80.001	20.009	100.384	19.370	125.878	0.488
662.000	388.861	80.001	20.009	100.356	19.404	120.636	0.461
664.000	389.905	80.000	20.008	100.328	19.439	115.115	0.499
666.000	390.906	80.000	20.009	100.294	19.469	110.305	0.510
668.000	391.889	79.999	20.009	100.308	19.500	105.497	0.464
670.000	392.917	80.000	20.009	100.341	19.526	101.382	0.495
672.000	393.905	79.999	20.009	100.337	19.555	96.928	0.446
674.000	394.871	79.999	20.008	100.336	19.586	92.022	0.503
676.000	395.931	80.001	20.009	100.316	19.618	87.069	0.507
678.000	396.964	79.999	20.008	100.305	19.651	81.848	0.496
680.000	397.982	80.000	20.009	100.276	19.686	76.430	0.508
682.000	399.000	80.000	20.009	100.293	19.718	71.366	0.494
684.000	399.996	80.000	20.009	100.277	19.749	66.509	0.500
686.000	400.994	80.001	20.009	100.297	19.778	62.094	0.479
688.000	401.974	80.001	20.009	100.295	19.807	57.529	0.497
690.000	403.031	80.001	20.009	100.317	19.832	53.565	0.517
692.000	403.967	80.000	20.008	100.320	19.851	50.584	0.501
694.000	404.968	80.001	20.009	100.288	19.872	47.237	0.484
696.000	405.941	80.001	20.009	100.283	19.890	44.427	0.487
698.000	406.970	80.000	20.008	100.295	19.909	41.537	0.503
700.000	407.985	80.000	20.008	100.283	19.926	38.835	0.509
702.000	409.013	80.001	20.007	100.274	19.939	36.801	0.518
704.000	409.974	79.999	20.009	100.266	19.953	34.614	0.514
706.000	410.997	80.001	20.008	100.259	19.967	32.500	0.517
708.000	412.002	80.000	20.009	100.244	19.978	30.686	0.514
710.000	413.027	80.000	20.009	100.252	19.992	28.473	0.532
712.000	414.046	79.999	20.009	100.228	20.001	27.098	0.489
714.000	415.038	80.001	20.008	100.221	20.010	25.738	0.499
716.000	416.080	80.001	20.008	100.226	20.019	24.232	0.524
718.000	417.099	79.999	20.008	100.255	20.027	23.072	0.533
720.000	418.138	80.001	20.008	100.239	20.035	21.741	0.534
722.000	419.118	80.001	20.008	100.232	20.043	20.583	0.503
724.000	420.093	80.000	20.008	100.230	20.047	19.916	0.489
726.000	421.151	80.001	20.009	100.216	20.049	19.662	0.528
728.000	422.126	80.001	20.009	100.203	20.050	19.506	0.498
730.000	423.119	80.001	20.009	100.196	20.056	18.472	0.540
732.000	424.093	79.998	20.008	100.197	20.060	17.968	0.474
734.000	425.099	80.001	20.009	100.207	20.063	17.361	0.499
736.000	426.052	80.001	20.008	100.219	20.070	16.260	0.497
738.000	427.073	80.001	20.008	100.193	20.071	16.221	0.487
740.000	428.064	80.001	20.008	100.208	20.073	15.843	0.491
742.000	429.007	80.001	20.008	100.217	20.076	15.318	0.472
744.000	429.999	80.001	20.008	100.244	20.079	14.958	0.493
746.000	430.973	80.000	20.009	100.219	20.082	14.494	0.498
748.000	431.995	80.001	20.008	100.209	20.084	14.098	0.488
750.000	433.031	80.000	20.008	100.196	20.087	13.654	0.490
752.000	434.001	80.000	20.008	100.209	20.089	13.347	0.491
754.000	434.959	80.000	20.008	100.192	20.092	12.871	0.499
756.000	435.876	80.000	20.008	100.199	20.094	12.579	0.500
758.000	436.821	80.001	20.008	100.199	20.094	12.607	0.436
760.000	437.790	80.000	20.008	100.194	20.098	11.874	0.483
762.000	438.815	80.001	20.008	100.158	20.098	11.997	0.467
764.000	439.810	80.001	20.008	100.184	20.100	11.588	0.483
766.000	440.792	80.001	20.008	100.185	20.097	12.063	0.496
768.000	441.735	80.001	20.008	100.183	20.100	11.645	0.463
770.000	442.767	80.000	20.008	100.178	20.100	11.701	0.510
772.000	443.724	80.000	20.008	100.194	20.104	11.072	0.510
774.000	444.691	80.001	20.008	100.185	20.102	11.365	0.493
776.000	445.713	80.001	20.008	100.195	20.105	10.861	0.497
778.000	446.712	80.000	20.007	100.176	20.107	10.476	0.507
780.000	447.676	80.000	20.008	100.198	20.105	10.781	0.477
782.000	448.628	80.001	20.008	100.191	20.108	10.364	0.473
784.000	449.619	80.001	20.008	100.209	20.110	10.067	0.482
786.000	450.600	80.001	20.007	100.201	20.109	10.213	0.500
788.000	451.584	80.002	20.008	100.205	20.109	10.290	0.496
790.000	452.576	80.001	20.008	100.215	20.109	10.243	0.479
792.000	453.508	80.001	20.008	100.201	20.111	9.839	0.445
794.000	454.541	80.001	20.008	100.206	20.113	9.675	0.507
796.000	455.528	80.000	20.008	100.219	20.110	10.060	0.489
798.000	456.572	80.001	20.008	100.216	20.108	10.361	0.496
800.000	457.577	80.002	20.008	100.186	20.111	9.868	0.502
802.000	458.584	80.001	20.008	100.222	20.112	9.751	0.510
804.000	459.584	80.002	20.008	100.224	20.112	9.717	0.507
806.000	460.531	80.001	20.008	100.218	20.113	9.669	0.492
808.000	461.612	80.001	20.008	100.197	20.111	9.905	0.523
810.000	462.629	80.001	20.007	100.239	20.114	9.522	0.515
812.000	463.558	80.002	20.008	100.209	20.114	9.413	0.454
814.000	464.491	80.001	20.008	100.206	20.112	9.686	0.476
816.000	465.509	80.001	20.008	100.210	20.114	9.389	0.481
818.000	466.502	80.002	20.007	100.212	20.116	9.077	0.472
820.000	467.501	80.000	20.008	100.216	20.113	9.541	0.488
822.000	468.475	80.001	20.008	100.217	20.118	8.818	0.485
824.000	469.445	79.999	20.007	100.229	20.115	9.216	0.466
826.000	470.453	80.000	20.008	100.212	20.118	8.849	0.522
828.000	471.377	80.000	20.008	100.222	20.117	8.972	0.460
830.000	472.331	80.000	20.008	100.219	20.118	8.841	0.440
832.000	473.312	80.000	20.008	100.227	20.119	8.712	0.468
834.000	474.294	80.001	20.007	100.213	20.114	9.453	0.495
836.000	475.227	80.001	20.008	100.205	20.114	9.517	0.463
838.000	476.200	80.000	20.008	100.214	20.111	9.930	0.498
840.000	477.144	80.000	20.008	100.176	20.112	9.817	0.490
842.000	478.130	80.000	20.008	100.178	20.110	10.079	0.471
844.000	479.137	80.001	20.008	100.176	20.106	10.730	0.484
846.000	480.090	80.000	20.007	100.167	20.105	10.779	0.467
848.000	481.063	80.001	20.008	100.166	20.105	10.777	0.496
850.000	481.997	80.000	20.008	100.169	20.105	10.822	0.464
852.000	483.026	80.001	20.008	100.174	20.105	10.890	0.513
854.000	484.042	80.001	20.008	100.164	20.105	10.831	0.500
856.000	485.089	80.000	20.008	100.182	20.107	10.578	0.541
858.000	486.058	80.000	20.008	100.196	20.107	10.573	0.512
860.000	487.029	80.002	20.008	100.193	20.107	10.471	0.493
862.000	488.000	80.002	20.008	100.202	20.110	10.021	0.480
864.000	489.044	80.002	20.008	100.197	20.112	9.753	0.501
866.000	490.037	80.002	20.008	100.202	20.110	10.124	0.508
868.000	491.046	80.001	20.008	100.207	20.112	9.768	0.504
870.000	492.074	80.001	20.008	100.204	20.110	10.004	0.551
872.000	493.012	80.002	20.008	100.201	20.108	10.456	0.496
874.000	494.037	80.000	20.008	100.189	20.113	9.541	0.523
876.000	495.031	80.001	20.008	100.191	20.111	9.875	0.519
878.000	496.007	80.000	20.008	100.177	20.111	9.848	0.481
880.000	496.986	80.000	20.008	100.147	20.108	10.389	0.456
882.000	497.978	80.000	20.008	100.205	20.112	9.718	0.445
884.000	498.954	80.000	20.008	100.198	20.116	9.167	0.491
886.000	499.957	80.001	20.008	100.184	20.112	9.718	0.498
888.000	500.914	80.001	20.008	100.181	20.114	9.490	0.468
890.000	501.974	80.000	20.008	100.182	20.112	9.734	0.518
892.000	502.897	80.001	20.008	100.179	20.112	9.806	0.482
894.000	503.896	80.001	20.008	100.148	20.112	9.738	0.487
896.000	504.763	80.001	20.008	100.137	20.110	10.097	0.434
898.000	505.697	80.000	20.008	100.144	20.110	10.045	0.472
900.000	506.675	80.001	20.008	100.181	20.109	10.221	0.483
902.000	507.596	80.000	20.008	100.157	20.104	10.943	0.463
904.000	508.537	80.002	20.008	100.159	20.104	10.968	0.445
906.000	509.493	80.000	20.007	100.165	20.106	10.628	0.460
908.000	510.504	80.000	20.008	100.160	20.103	11.156	0.498
910.001	511.427	80.001	20.008	100.178	20.103	11.108	0.468
912.000	512.389	80.000	20.008	100.163	20.104	11.069	0.479
914.000	513.351	80.000	20.008	100.180	20.105	10.796	0.506
916.000	514.318	80.001	20.008	100.168	20.104	10.933	0.495
918.000	515.306	80.001	20.008	100.185	20.107	10.589	0.508
920.000	516.279	80.000	20.007	100.205	20.109	10.165	0.497
922.000	517.302	80.000	20.007	100.202	20.108	10.418	0.529
924.000	518.247	80.000	20.008	100.242	20.110	10.123	0.511
926.000	519.270	80.000	20.008	100.209	20.107	10.619	0.479
928.000	520.251	79.999	20.008	100.207	20.104	10.948	0.493
930.000	521.268	80.000	20.008	100.204	20.108	10.432	0.507
932.000	522.277	80.000	20.008	100.210	20.109	10.194	0.487
934.000	523.293	80.000	20.010	100.221	20.110	10.031	0.520
936.000	524.246	80.000	20.008	100.222	20.110	10.108	0.507
938.000	525.246	80.000	20.008	100.226	20.111	9.932	0.502
940.000	526.270	80.000	20.008	100.226	20.109	10.193	0.494
942.000	527.285	80.001	20.008	100.239	20.112	9.782	0.527
944.000	528.327	79.999	20.008	100.229	20.111	9.840	0.523
946.000	529.333	80.001	20.008	100.230	20.111	9.848	0.468
948.000	530.378	79.999	20.007	100.229	20.112	9.752	0.476
950.000	531.430	80.001	20.008	100.227	20.113	9.603	0.508
952.000	532.419	80.000	20.007	100.241	20.115	9.262	0.524
954.000	533.403	80.001	20.008	100.205	20.110	10.139	0.487
956.000	534.393	80.000	20.008	100.229	20.112	9.699	0.484
958.000	535.410	80.000	20.008	100.230	20.114	9.438	0.503
960.000	536.436	80.002	20.008	100.239	20.112	9.767	0.491
962.000	537.440	80.001	20.008	100.195	20.109	10.261	0.512
964.000	538.432	80.000	20.008	100.208	20.110	10.043	0.472
966.000	539.443	80.000	20.007	100.205	20.108	10.346	0.487
968.000	540.460	80.001	20.008	100.209	20.106	10.621	0.450
970.000	541.461	80.001	20.007	100.212	20.108	10.460	0.522
972.000	542.409	79.999	20.008	100.193	20.108	10.338	0.531
974.000	543.468	80.001	20.008	100.211	20.108	10.358	0.519
976.000	544.457	80.001	20.008	100.209	20.106	10.720	0.458
978.000	545.474	80.001	20.008	100.223	20.108	10.394	0.516
980.000	546.474	80.000	20.007	100.202	20.109	10.252	0.502
982.000	547.491	80.001	20.008	100.223	20.108	10.380	0.479
984.000	548.525	80.000	20.008	100.219	20.107	10.462	0.515
986.000	549.513	80.001	20.008	100.207	20.101	11.405	0.503
988.000	550.513	80.002	20.008	100.202	20.099	11.797	0.503
990.000	551.546	79.999	20.008	100.196	20.104	11.065	0.496
992.000	552.570	80.000	20.007	100.183	20.104	10.978	0.525
994.000	553.542	80.000	20.007	100.193	20.104	11.054	0.501
996.000	554.553	80.000	20.007	100.224	20.110	10.032	0.532
998.000	555.549	80.000	20.007	100.202	20.109	10.178	0.501
1000.000	556.544	80.000	20.007	100.233	20.105	10.867	0.465
1002.000	557.507	80.001	20.007	100.191	20.106	10.694	0.487
1004.000	558.482	79.999	20.007	100.190	20.105	10.849	0.459
1006.000	559.512	80.000	20.007	100.184	20.102	11.252	0.523
1008.000	560.495	80.000	20.008	100.176	20.102	11.255	0.492
1010.000	561.407	79.999	20.007	100.171	20.103	11.210	0.476
1012.000	562.487	80.001	20.007	100.163	20.103	11.229	0.529
1014.000	563.449	80.001	20.007	100.181	20.103	11.205	0.485
1016.000	564.451	80.000	20.008	100.176	20.105	10.785	0.515
1018.000	565.415	80.000	20.007	100.186	20.105	10.780	0.511
1020.000	566.424	80.000	20.007	100.189	20.106	10.648	0.478
1022.000	567.424	80.000	20.007	100.206	20.104	11.035	0.502
1024.001	568.377	80.001	20.008	100.191	20.108	10.432	0.492
1026.001	569.450	80.001	20.007	100.210	20.109	10.158	0.529
1028.000	570.431	80.000	20.007	100.207	20.109	10.200	0.508
1030.000	571.411	80.000	20.008	100.187	20.110	10.114	0.517
1032.000	572.419	80.000	20.007	100.207	20.108	10.404	0.510
1034.000	573.386	80.000	20.008	100.198	20.111	9.974	0.487
1036.000	574.352	80.000	20.007	100.208	20.109	10.203	0.503
1038.000	575.289	80.001	20.007	100.194	20.111	9.907	0.479
1040.001	576.272	80.000	20.007	100.227	20.111	9.939	0.513
1042.000	577.309	80.000	20.008	100.232	20.112	9.696	0.517
1044.001	578.306	80.000	20.007	100.227	20.113	9.635	0.482
1046.001	579.254	80.000	20.008	100.236	20.109	10.155	0.493
1048.000	580.212	80.002	20.008	100.255	20.112	9.774	0.484
1050.000	581.252	80.001	20.007	100.208	20.110	10.098	0.496
1052.000	582.180	80.002	20.008	100.216	20.108	10.410	0.460
1054.000	583.202	79.999	20.008	100.195	20.108	10.448	0.463
1056.001	584.183	79.999	20.008	100.210	20.108	10.413	0.466
1058.000	585.198	80.000	20.007	100.200	20.107	10.592	0.525
1060.000	586.211	80.000	20.008	100.205	20.109	10.177	0.499
1062.001	587.187	80.002	20.008	100.220	20.110	10.113	0.488
1064.000	588.180	80.000	20.008	100.232	20.109	10.295	0.487
1066.000	589.130	80.000	20.007	100.221	20.109	10.212	0.455
1068.001	590.154	80.002	20.007	100.234	20.116	9.141	0.507
1070.000	591.112	79.999	20.007	100.268	20.117	8.953	0.508
1072.000	592.079	80.001	20.008	100.271	20.118	8.878	0.490
1074.000	593.077	80.000	20.007	100.272	20.119	8.601	0.502
1076.000	594.056	80.002	20.007	100.251	20.117	9.029	0.498
1078.001	595.074	80.001	20.007	100.230	20.112	9.823	0.528
1080.000	596.063	80.000	20.008	100.240	20.110	10.125	0.510
1082.000	597.046	80.000	20.008	100.197	20.117	8.982	0.469
1084.001	598.073	80.000	20.008	100.234	20.109	10.257	0.534
1086.000	599.071	80.001	20.008	100.204	20.107	10.480	0.495
1088.001	600.044	79.999	20.008	100.200	20.106	10.710	0.490
1090.000	600.995	80.000	20.008	100.204	20.108	10.384	0.453
1092.000	602.059	80.001	20.008	100.210	20.109	10.193	0.519
1094.001	602.996	79.999	20.007	100.260	20.111	9.965	0.479
1096.001	604.006	80.001	20.008	100.232	20.107	10.519	0.499
1098.001	605.116	80.001	20.008	100.247	20.109	10.305	0.586
1100.000	606.033	80.001	20.007	100.209	20.109	10.212	0.491
1102.000	607.114	79.998	20.008	100.283	20.119	8.719	0.531
1104.000	608.058	80.000	20.007	100.279	20.114	9.435	0.505
1106.000	609.069	79.999	20.008	100.244	20.110	10.007	0.504
1108.000	610.084	80.001	20.008	100.222	20.112	9.819	0.478
1110.000	611.076	80.001	20.008	100.212	20.112	9.766	0.498
1112.000	612.089	80.001	20.008	100.242	20.110	10.038	0.511
1114.001	613.071	80.001	20.008	100.233	20.111	9.875	0.515
1116.000	614.046	80.000	20.007	100.217	20.105	10.906	0.476
1118.000	615.053	80.000	20.008	100.196	20.106	10.726	0.511
1120.000	616.092	80.000	20.008	100.176	20.104	10.959	0.480
1122.001	617.057	80.000	20.008	100.210	20.107	10.485	0.487
1124.001	618.075	80.000	20.008	100.209	20.103	11.122	0.488
1126.001	619.058	80.001	20.008	100.206	20.102	11.311	0.497
1128.000	620.070	80.000	20.008	100.222	20.103	11.104	0.477
1130.000	621.063	80.000	20.008	100.209	20.104	10.953	0.477
1132.001	621.991	80.000	20.008	100.216	20.105	10.810	0.447
1134.000	622.966	80.000	20.008	100.224	20.108	10.448	0.491
1136.001	623.903	79.999	20.008	100.254	20.107	10.512	0.502
1138.001	624.858	80.000	20.008	100.240	20.106	10.733	0.496
1140.000	625.850	80.000	20.008	100.208	20.103	11.151	0.475
1142.000	626.869	80.001	20.008	100.215	20.102	11.386	0.473
1144.001	627.908	80.002	20.008	100.198	20.104	11.001	0.486
1146.001	628.864	79.999	20.008	100.230	20.103	11.119	0.494
1148.000	629.935	80.000	20.009	100.212	20.104	11.086	0.503
1150.001	630.915	80.000	20.008	100.212	20.103	11.146	0.504
1152.000	631.896	79.999	20.008	100.191	20.098	11.893	0.483
1154.000	632.926	80.000	20.007	100.165	20.100	11.688	0.502
1156.000	633.893	80.000	20.007	100.175	20.099	11.768	0.514
1158.000	634.863	80.000	20.008	100.191	20.103	11.161	0.473
1160.001	635.837	79.999	20.008	100.254	20.102	11.337	0.445
1162.000	636.860	80.000	20.008	100.255	20.100	11.679	0.474
1164.000	637.937	80.000	20.008	100.213	20.100	11.608	0.517
1166.001	638.904	80.000	20.007	100.213	20.102	11.376	0.485
1168.000	639.929	80.000	20.008	100.218	20.100	11.554	0.533
1170.000	640.953	80.000	20.008	100.244	20.099	11.848	0.512
1172.000	641.986	80.000	20.008	100.220	20.100	11.663	0.497
1174.000	643.083	80.000	20.008	100.233	20.098	11.955	0.544
1176.000	644.030	80.001	20.008	100.197	20.100	11.565	0.514
1178.000	645.109	79.999	20.008	100.228	20.102	11.337	0.506
1180.000	646.140	80.000	20.008	100.204	20.101	11.474	0.549
1182.001	647.168	80.002	20.008	100.210	20.101	11.409	0.524
1184.000	648.213	80.000	20.008	100.219	20.103	11.188	0.529
1186.001	649.239	80.001	20.008	100.239	20.108	10.400	0.470
1188.000	650.256	80.001	20.008	100.250	20.107	10.617	0.495
1190.000	651.291	80.000	20.007	100.221	20.109	10.255	0.543
1192.000	652.333	80.000	20.008	100.228	20.109	10.246	0.504
1194.000	653.383	80.001	20.008	100.219	20.109	10.298	0.531
1196.000	654.419	80.000	20.008	100.213	20.107	10.525	0.511
1198.000	655.420	80.000	20.008	100.195	20.105	10.916	0.492
1200.000	656.467	80.000	20.008	100.216	20.107	10.476	0.515
1202.000	657.549	80.000	20.008	100.205	20.103	11.194	0.543
1204.000	658.560	80.001	20.008	100.215	20.105	10.913	0.523
1206.000	659.540	80.000	20.008	100.203	20.104	11.033	0.495
1208.000	660.583	80.001	20.008	100.222	20.104	11.029	0.550
1210.000	661.591	80.000	20.008	100.209	20.103	11.113	0.552
1212.000	662.620	80.001	20.008	100.218	20.104	10.963	0.475
1214.000	663.682	80.001	20.008	100.218	20.103	11.154	0.526
1216.001	664.711	80.001	20.008	100.221	20.104	11.044	0.503
1218.001	665.752	80.001	20.008	100.233	20.108	10.460	0.510
1220.000	666.709	80.001	20.008	100.233	20.105	10.797	0.491
1222.000	667.757	80.001	20.008	100.237	20.106	10.647	0.522
1224.001	668.749	79.999	20.008	100.235	20.110	10.116	0.536
1226.000	669.748	80.000	20.008	100.243	20.107	10.477	0.494
1228.001	670.709	80.001	20.009	100.228	20.105	10.855	0.467
1230.001	671.701	79.999	20.007	100.217	20.108	10.438	0.514
1232.001	672.697	80.002	20.008	100.215	20.107	10.594	0.511
1234.000	673.676	80.000	20.008	100.235	20.105	10.809	0.497
1236.001	674.670	80.000	20.008	100.222	20.105	10.870	0.480
1238.000	675.640	80.001	20.008	100.224	20.105	10.904	0.492
1240.001	676.680	80.001	20.008	100.229	20.104	11.075	0.531
1242.000	677.628	80.000	20.008	100.246	20.104	11.075	0.471
1244.001	678.675	79.999	20.008	100.221	20.106	10.694	0.524
1246.001	679.710	80.001	20.008	100.242	20.106	10.720	0.489
1248.000	680.709	80.000	20.008	100.239	20.105	10.872	0.503
1250.001	681.724	80.001	20.008	100.247	20.103	11.197	0.541
1252.001	682.734	80.000	20.008	100.223	20.103	11.219	0.524
1254.001	683.765	80.001	20.008	100.230	20.103	11.163	0.526
1256.001	684.808	80.001	20.007	100.240	20.101	11.488	0.539
1258.000	685.827	80.000	20.008	100.240	20.105	10.870	0.513
1260.001	686.853	80.001	20.008	100.225	20.108	10.386	0.506
1262.000	687.865	79.999	20.008	100.249	20.112	9.826	0.520
1264.001	688.883	80.000	20.008	100.308	20.112	9.687	0.487
1266.000	689.847	79.999	20.009	100.266	20.108	10.403	0.489
1268.000	690.822	79.999	20.008	100.228	20.106	10.758	0.480
1270.000	691.753	80.000	20.008	100.220	20.105	10.868	0.405
1272.001	692.741	80.001	20.008	100.232	20.107	10.500	0.517
1274.000	693.747	80.002	20.008	100.231	20.107	10.559	0.471
1276.000	694.737	80.001	20.008	100.238	20.106	10.671	0.484
1278.000	695.754	80.000	20.008	100.249	20.107	10.488	0.495
1280.000	696.762	80.000	20.007	100.250	20.108	10.454	0.497
1282.000	697.777	79.999	20.008	100.240	20.108	10.376	0.503
1284.000	698.784	79.999	20.007	100.254	20.103	11.095	0.517
1286.000	699.806	80.001	20.008	100.232	20.106	10.635	0.507
1288.001	700.838	80.000	20.008	100.239	20.105	10.803	0.505
1290.000	701.779	80.000	20.008	100.238	20.106	10.689	0.503
1292.000	702.859	80.000	20.008	100.252	20.106	10.722	0.527
1294.001	703.867	80.000	20.008	100.239	20.104	10.956	0.500
1296.000	704.849	79.999	20.008	100.250	20.105	10.843	0.468
1298.000	705.942	80.001	20.008	100.246	20.110	10.021	0.559
1300.001	706.916	80.001	20.008	100.272	20.110	10.081	0.510
1302.000	707.910	79.999	20.008	100.262	20.109	10.240	0.521
1304.000	708.990	80.000	20.008	100.265	20.108	10.408	0.548
1306.000	709.974	79.999	20.009	100.233	20.108	10.455	0.521
1308.001	711.014	80.000	20.008	100.243	20.105	10.872	0.527
1310.000	712.027	80.000	20.008	100.232	20.105	10.884	0.484
1312.000	713.038	80.001	20.008	100.238	20.103	11.100	0.501
1314.000	714.036	79.999	20.009	100.183	20.103	11.189	0.481
1316.000	715.044	80.001	20.008	100.197	20.104	11.034	0.495
1318.000	716.097	80.002	20.008	100.231	20.105	10.892	0.486
1320.000	717.073	80.000	20.008	100.260	20.105	10.875	0.503
1322.000	718.023	80.000	20.008	100.267	20.108	10.462	0.469
1324.001	719.022	80.001	20.008	100.259	20.107	10.525	0.496
1326.001	719.997	80.000	20.008	100.227	20.103	11.120	0.505
1328.001	720.923	80.000	20.008	100.253	20.104	11.074	0.471
1330.000	721.823	80.000	20.008	100.235	20.106	10.656	0.475
1332.001	722.827	80.000	20.008	100.257	20.104	11.020	0.484
1334.000	723.735	80.000	20.008	100.227	20.102	11.279	0.481
1336.000	724.742	79.999	20.008	100.250	20.105	10.925	0.512
1338.000	725.777	80.001	20.007	100.228	20.103	11.096	0.510
1340.000	726.782	80.001	20.007	100.272	20.104	11.056	0.516
1342.000	727.778	80.000	20.008	100.268	20.102	11.343	0.470
1344.001	728.829	80.000	20.008	100.248	20.103	11.201	0.515
1346.001	729.821	79.999	20.008	100.225	20.102	11.332	0.510
1348.000	730.822	80.000	20.008	100.252	20.103	11.173	0.503
1350.000	731.855	80.001	20.008	100.232	20.102	11.371	0.513
1352.000	732.878	80.001	20.008	100.226	20.102	11.326	0.508
1354.001	733.903	79.999	20.007	100.206	20.103	11.196	0.510
1356.001	734.954	80.000	20.008	100.234	20.102	11.248	0.496
1358.001	736.013	80.001	20.007	100.238	20.100	11.680	0.502
1360.000	737.092	80.001	20.008	100.238	20.102	11.277	0.520
1362.001	738.148	80.000	20.007	100.229	20.103	11.243	0.517
1364.001	739.131	80.001	20.008	100.239	20.103	11.192	0.504
1366.000	740.207	80.000	20.007	100.235	20.106	10.742	0.567
1368.001	741.242	80.001	20.008	100.232	20.108	10.448	0.505
1369.501	742.088	80.000	20.007	100.244	20.106	10.730	0.564