File: Experiments/TUBS/mcc/mcc_powder_3mg_dyn30_r2.txt
Sample Weight (mg):	3.04
Heating Rate (C/s):	0.5
Combustor Temp (C):	900
N2 Flow Rate (cc/min):	80
O2 Flow Rate (cc/min):	20
Time (s)	Temperature (C)	N2 flow rate (cc/min)	O2 flow rate (cc/min)	Flow Rate (cc/min)	Oxygen (%)	HRR (W/g)	Heating rate (C/s)
0.000	90.697	79.998	20.008	99.991	20.160	-7.521	0.009
2.000	90.796	80.003	20.009	100.016	20.147	-6.166	0.028
4.000	90.781	80.002	20.009	100.126	20.128	-4.182	0.007
6.000	90.775	80.003	20.009	100.339	20.112	-2.582	0.003
8.000	90.770	80.002	20.009	100.454	20.100	-1.270	-0.006
10.001	90.871	80.003	20.009	100.489	20.095	-0.770	0.043
12.001	90.845	80.001	20.010	100.490	20.089	-0.133	-0.023
14.000	90.836	80.000	20.010	100.531	20.078	0.954	0.012
16.000	90.920	80.002	20.009	100.566	20.076	1.158	0.032
18.000	91.028	80.002	20.009	100.597	20.067	2.105	0.034
20.000	91.122	80.002	20.009	100.563	20.062	2.629	0.073
22.000	91.294	80.001	20.009	100.625	20.064	2.432	0.101
24.000	91.419	80.002	20.010	100.614	20.060	2.840	0.031
26.000	91.660	80.002	20.009	100.625	20.060	2.847	0.130
28.000	91.912	80.001	20.009	100.586	20.061	2.773	0.160
30.000	92.052	80.003	20.009	100.597	20.057	3.116	0.077
32.000	92.342	80.002	20.009	100.581	20.058	3.002	0.101
34.000	92.552	80.001	20.009	100.634	20.055	3.328	0.084
36.000	92.822	80.003	20.010	100.642	20.051	3.746	0.152
38.001	93.173	80.001	20.010	100.666	20.050	3.889	0.147
40.001	93.492	80.002	20.010	100.632	20.058	2.997	0.208
42.000	93.911	80.003	20.010	100.610	20.053	3.523	0.172
44.001	94.205	80.002	20.009	100.618	20.056	3.224	0.138
46.000	94.606	80.002	20.010	100.599	20.053	3.559	0.166
48.001	95.057	80.002	20.010	100.641	20.054	3.427	0.214
50.000	95.463	80.003	20.010	100.657	20.051	3.799	0.156
52.001	95.897	80.003	20.009	100.668	20.050	3.871	0.174
54.001	96.347	80.001	20.009	100.622	20.049	3.972	0.148
56.001	96.916	80.001	20.009	100.672	20.044	4.482	0.283
58.001	97.314	80.002	20.010	100.650	20.044	4.492	0.141
60.000	97.905	80.003	20.010	100.716	20.037	5.171	0.309
62.001	98.456	80.001	20.009	100.717	20.033	5.655	0.333
64.000	99.032	80.002	20.009	100.737	20.033	5.626	0.292
66.001	99.591	80.001	20.010	100.715	20.030	5.965	0.349
68.001	100.197	80.002	20.010	100.756	20.032	5.740	0.311
70.001	100.908	80.002	20.010	100.739	20.031	5.883	0.349
72.001	101.532	80.004	20.010	100.759	20.030	5.978	0.335
74.000	102.304	80.001	20.009	100.749	20.026	6.339	0.389
76.000	103.011	80.001	20.009	100.760	20.022	6.749	0.369
78.000	103.747	80.002	20.010	100.773	20.026	6.377	0.373
80.001	104.537	80.001	20.009	100.761	20.026	6.384	0.368
82.000	105.400	80.001	20.010	100.784	20.022	6.731	0.411
84.001	106.269	80.001	20.010	100.762	20.020	6.929	0.413
86.000	107.124	80.002	20.010	100.801	20.022	6.808	0.450
88.001	107.953	80.001	20.010	100.772	20.023	6.715	0.432
90.001	108.856	80.001	20.010	100.791	20.020	7.006	0.431
92.001	109.673	80.000	20.010	100.787	20.021	6.864	0.431
94.001	110.717	80.002	20.010	100.790	20.020	6.966	0.515
96.001	111.750	80.001	20.010	100.801	20.018	7.136	0.520
98.001	112.707	80.002	20.010	100.787	20.017	7.312	0.497
100.000	113.718	80.002	20.010	100.798	20.015	7.498	0.518
102.000	114.729	80.001	20.009	100.780	20.014	7.570	0.492
104.001	115.852	80.001	20.010	100.804	20.014	7.622	0.590
106.000	116.845	80.001	20.009	100.775	20.012	7.835	0.477
108.001	117.955	80.002	20.009	100.803	20.015	7.461	0.531
110.001	119.071	80.001	20.010	100.758	20.014	7.614	0.556
112.001	120.161	80.001	20.010	100.778	20.012	7.852	0.545
114.000	121.259	80.001	20.010	100.749	20.014	7.642	0.535
116.000	122.429	80.002	20.009	100.787	20.012	7.847	0.570
118.000	123.583	80.002	20.010	100.759	20.014	7.587	0.573
120.000	124.700	80.002	20.009	100.750	20.013	7.739	0.580
122.000	125.879	80.001	20.010	100.752	20.015	7.473	0.605
124.000	127.075	80.001	20.010	100.742	20.016	7.422	0.654
126.001	128.220	80.001	20.009	100.759	20.017	7.267	0.596
128.000	129.371	80.001	20.010	100.734	20.013	7.647	0.608
130.000	130.611	80.002	20.010	100.758	20.017	7.282	0.649
132.000	131.748	80.001	20.009	100.710	20.015	7.503	0.570
134.000	133.013	80.002	20.009	100.733	20.013	7.652	0.639
136.000	134.248	80.003	20.010	100.703	20.014	7.614	0.630
138.000	135.472	80.000	20.010	100.729	20.013	7.659	0.615
140.000	136.674	80.001	20.010	100.690	20.015	7.454	0.631
142.000	137.898	80.002	20.010	100.712	20.012	7.773	0.591
144.000	139.043	80.001	20.010	100.694	20.005	8.488	0.592
146.000	140.294	80.003	20.009	100.694	20.006	8.399	0.639
148.000	141.460	80.000	20.009	100.682	20.009	8.120	0.576
150.000	142.686	80.000	20.009	100.690	20.004	8.592	0.610
152.000	143.850	80.001	20.009	100.677	19.999	9.183	0.613
154.000	145.068	80.003	20.009	100.648	19.994	9.636	0.618
156.000	146.261	80.002	20.009	100.690	19.996	9.421	0.626
158.000	147.452	80.001	20.009	100.645	19.992	9.878	0.581
160.000	148.577	80.002	20.010	100.688	19.991	9.984	0.542
162.000	149.754	80.002	20.010	100.665	19.990	10.073	0.582
164.000	150.961	80.001	20.009	100.691	19.987	10.359	0.625
166.000	152.105	80.001	20.009	100.651	19.983	10.809	0.585
168.000	153.247	80.001	20.009	100.680	19.981	11.003	0.607
170.000	154.361	80.002	20.009	100.645	19.971	11.993	0.586
172.000	155.634	80.001	20.008	100.642	19.969	12.248	0.624
174.000	156.709	80.002	20.009	100.635	19.965	12.617	0.583
176.000	157.944	80.002	20.008	100.640	19.962	13.004	0.661
178.000	159.084	80.002	20.009	100.650	19.956	13.629	0.588
180.000	160.272	80.002	20.009	100.624	19.950	14.234	0.605
182.000	161.368	80.002	20.009	100.641	19.950	14.192	0.567
184.000	162.584	80.002	20.009	100.607	19.946	14.645	0.583
186.000	163.658	80.000	20.009	100.623	19.939	15.361	0.566
188.000	164.790	80.002	20.010	100.599	19.935	15.738	0.537
190.001	165.956	80.002	20.010	100.630	19.935	15.701	0.627
192.000	167.027	80.002	20.010	100.597	19.932	16.071	0.537
194.000	168.189	80.002	20.009	100.604	19.932	16.095	0.580
196.000	169.284	80.002	20.009	100.616	19.932	16.015	0.543
198.000	170.384	80.002	20.009	100.593	19.934	15.828	0.544
200.000	171.461	80.003	20.010	100.641	19.932	16.011	0.538
202.000	172.508	80.002	20.010	100.595	19.936	15.655	0.504
204.000	173.592	80.002	20.008	100.609	19.940	15.254	0.528
206.000	174.731	80.002	20.010	100.583	19.939	15.367	0.550
208.000	175.788	80.003	20.009	100.610	19.942	15.034	0.532
210.000	176.883	80.003	20.009	100.597	19.950	14.222	0.578
212.000	177.952	80.001	20.009	100.609	19.956	13.620	0.554
214.000	179.054	80.002	20.009	100.630	19.959	13.229	0.558
216.000	180.056	80.002	20.009	100.599	19.964	12.753	0.488
218.000	181.131	80.003	20.009	100.614	19.971	12.030	0.561
220.000	182.157	80.002	20.009	100.597	19.975	11.644	0.512
222.000	183.205	80.002	20.009	100.636	19.984	10.637	0.484
224.000	184.252	80.002	20.010	100.608	19.992	9.838	0.533
226.000	185.307	80.002	20.009	100.613	19.996	9.433	0.538
228.000	186.363	80.002	20.010	100.636	20.001	8.953	0.506
230.000	187.340	80.000	20.009	100.617	20.006	8.373	0.461
232.000	188.382	80.002	20.009	100.651	20.009	8.071	0.499
234.000	189.427	80.003	20.010	100.619	20.009	8.107	0.533
236.000	190.437	80.003	20.009	100.650	20.012	7.764	0.453
238.000	191.461	80.002	20.010	100.618	20.013	7.714	0.477
240.000	192.502	80.001	20.010	100.626	20.015	7.534	0.487
242.000	193.506	80.003	20.010	100.615	20.020	7.004	0.488
244.000	194.498	80.002	20.010	100.600	20.021	6.813	0.529
246.000	195.483	80.002	20.010	100.641	20.021	6.847	0.491
248.000	196.488	80.002	20.009	100.598	20.021	6.891	0.525
250.000	197.455	80.001	20.010	100.633	20.023	6.621	0.483
252.000	198.407	80.003	20.009	100.594	20.027	6.249	0.467
254.000	199.465	80.001	20.009	100.632	20.029	6.033	0.530
256.001	200.369	80.003	20.010	100.615	20.030	5.983	0.459
258.000	201.438	80.001	20.010	100.585	20.029	6.010	0.526
260.000	202.423	80.003	20.010	100.628	20.031	5.865	0.512
262.000	203.371	80.000	20.009	100.586	20.030	5.913	0.443
264.000	204.351	80.002	20.009	100.606	20.029	6.038	0.518
266.000	205.341	80.002	20.010	100.592	20.030	5.931	0.477
268.000	206.369	80.002	20.010	100.587	20.027	6.259	0.522
270.000	207.370	80.003	20.010	100.599	20.027	6.214	0.515
272.000	208.380	80.001	20.010	100.582	20.031	5.849	0.515
274.000	209.350	80.002	20.009	100.624	20.032	5.718	0.447
276.000	210.352	80.003	20.010	100.575	20.028	6.121	0.505
278.000	211.392	80.004	20.010	100.603	20.032	5.702	0.548
280.000	212.330	80.002	20.010	100.591	20.031	5.852	0.486
282.000	213.348	80.002	20.009	100.571	20.032	5.675	0.466
284.000	214.323	80.003	20.010	100.618	20.032	5.752	0.501
286.000	215.301	80.003	20.010	100.577	20.034	5.570	0.520
288.000	216.333	80.003	20.009	100.609	20.034	5.520	0.496
290.000	217.392	80.002	20.010	100.598	20.038	5.147	0.561
292.000	218.314	80.003	20.009	100.584	20.035	5.460	0.486
294.000	219.361	80.002	20.010	100.594	20.035	5.376	0.480
296.000	220.425	80.002	20.009	100.553	20.038	5.090	0.546
298.000	221.359	80.002	20.010	100.607	20.039	5.001	0.539
300.000	222.350	80.002	20.009	100.575	20.040	4.914	0.473
302.000	223.378	80.001	20.009	100.573	20.041	4.814	0.531
304.000	224.434	80.002	20.010	100.592	20.042	4.652	0.541
306.000	225.415	80.002	20.010	100.583	20.043	4.621	0.510
308.000	226.397	80.001	20.010	100.612	20.044	4.457	0.497
310.001	227.420	80.003	20.010	100.591	20.045	4.385	0.512
312.000	228.403	80.001	20.010	100.627	20.042	4.666	0.446
314.000	229.464	80.002	20.010	100.585	20.041	4.753	0.567
316.000	230.432	80.002	20.009	100.592	20.043	4.597	0.534
318.001	231.443	80.002	20.010	100.582	20.043	4.549	0.538
320.001	232.420	80.002	20.010	100.568	20.043	4.559	0.493
322.000	233.415	80.003	20.009	100.597	20.043	4.618	0.482
324.000	234.441	80.003	20.009	100.574	20.043	4.580	0.503
326.000	235.458	80.003	20.010	100.601	20.040	4.915	0.521
328.000	236.406	80.001	20.009	100.583	20.040	4.916	0.449
330.000	237.468	80.002	20.008	100.559	20.043	4.626	0.539
332.000	238.484	80.002	20.008	100.601	20.041	4.783	0.535
334.000	239.518	80.004	20.009	100.563	20.040	4.853	0.532
336.000	240.539	80.004	20.009	100.622	20.041	4.767	0.465
338.000	241.574	80.002	20.009	100.590	20.043	4.640	0.511
340.000	242.636	80.002	20.010	100.589	20.040	4.885	0.525
342.000	243.657	80.003	20.009	100.539	20.044	4.524	0.515
344.000	244.662	80.002	20.009	100.593	20.040	4.930	0.548
346.000	245.755	80.002	20.009	100.584	20.040	4.864	0.569
348.000	246.755	80.002	20.009	100.574	20.037	5.240	0.564
350.000	247.802	80.002	20.009	100.597	20.039	5.049	0.531
352.000	248.824	80.002	20.009	100.587	20.036	5.270	0.519
354.000	249.815	80.003	20.009	100.603	20.035	5.462	0.549
356.000	250.885	80.002	20.010	100.573	20.033	5.652	0.494
358.000	251.926	80.002	20.010	100.583	20.034	5.543	0.550
360.000	252.938	80.002	20.010	100.555	20.030	5.940	0.510
362.000	253.904	80.003	20.010	100.556	20.027	6.215	0.525
364.000	254.947	80.002	20.009	100.559	20.027	6.224	0.523
366.000	255.941	80.004	20.010	100.548	20.026	6.372	0.498
368.000	256.901	80.002	20.009	100.595	20.021	6.817	0.468
370.000	257.963	80.002	20.010	100.566	20.021	6.820	0.534
372.000	259.017	80.003	20.010	100.605	20.021	6.909	0.545
374.000	259.998	80.002	20.010	100.560	20.017	7.318	0.492
376.000	261.046	80.002	20.010	100.567	20.015	7.484	0.541
378.000	262.025	80.001	20.009	100.585	20.011	7.891	0.488
380.000	263.064	80.003	20.010	100.557	20.008	8.208	0.503
382.000	263.999	80.002	20.009	100.592	20.007	8.315	0.537
384.000	265.006	80.003	20.009	100.546	20.001	8.949	0.509
386.000	266.128	80.002	20.010	100.576	19.997	9.289	0.547
388.000	266.933	80.002	20.009	100.553	19.991	9.903	0.409
390.000	268.124	80.004	20.010	100.565	19.985	10.590	0.600
392.000	269.038	80.003	20.010	100.550	19.982	10.895	0.476
394.000	270.067	80.002	20.009	100.520	19.976	11.497	0.557
396.000	271.079	80.003	20.010	100.552	19.975	11.612	0.435
398.000	271.999	80.003	20.010	100.511	19.967	12.426	0.473
400.000	273.047	80.001	20.010	100.555	19.965	12.679	0.473
402.000	274.003	80.003	20.010	100.510	19.959	13.258	0.457
404.000	274.977	80.003	20.009	100.517	19.952	13.915	0.484
406.000	275.873	80.001	20.010	100.506	19.947	14.518	0.476
408.000	276.917	80.004	20.010	100.529	19.943	14.896	0.501
410.000	277.914	80.003	20.010	100.574	19.941	15.130	0.532
412.000	278.898	80.003	20.010	100.542	19.935	15.747	0.519
414.000	279.887	79.999	20.005	100.590	19.927	16.576	0.492
416.000	280.846	80.001	20.008	100.464	19.925	16.773	0.475
418.000	281.871	80.003	20.007	100.538	19.925	16.723	0.514
420.000	282.848	80.003	20.010	100.700	19.923	16.937	0.508
422.000	283.783	80.004	20.010	100.575	19.918	17.455	0.476
424.000	284.753	80.001	20.010	100.547	19.913	18.019	0.502
426.000	285.771	80.002	20.010	100.560	19.909	18.399	0.530
428.000	286.739	80.003	20.010	100.579	19.906	18.762	0.501
430.000	287.736	80.002	20.010	100.528	19.903	19.011	0.468
432.000	288.715	80.002	20.009	100.585	19.902	19.164	0.525
434.000	289.661	80.002	20.010	100.557	19.900	19.342	0.493
436.000	290.641	80.002	20.009	100.557	19.894	19.965	0.498
438.000	291.647	80.002	20.009	100.564	19.894	19.973	0.503
440.000	292.639	80.003	20.010	100.543	19.889	20.464	0.498
442.000	293.595	80.003	20.010	100.565	19.885	20.925	0.509
444.000	294.554	80.003	20.009	100.524	19.879	21.481	0.483
446.001	295.557	80.003	20.010	100.570	19.876	21.785	0.487
448.000	296.629	80.001	20.010	100.561	19.874	21.983	0.538
450.000	297.623	80.001	20.009	100.591	19.873	22.175	0.497
452.000	298.647	80.002	20.009	100.575	19.863	23.134	0.505
454.000	299.683	80.004	20.009	100.544	19.860	23.493	0.514
456.000	300.642	80.002	20.009	100.569	19.855	24.035	0.484
458.000	301.633	80.002	20.010	100.529	19.850	24.493	0.514
460.001	302.669	80.002	20.009	100.568	19.844	25.102	0.514
462.000	303.680	80.003	20.009	100.548	19.835	26.058	0.536
464.000	304.658	80.002	20.009	100.558	19.827	26.832	0.500
466.000	305.683	80.002	20.009	100.561	19.817	27.883	0.532
468.000	306.669	80.004	20.010	100.550	19.805	29.182	0.507
470.000	307.715	80.002	20.009	100.564	19.794	30.309	0.518
472.000	308.692	80.003	20.009	100.534	19.780	31.765	0.506
474.000	309.766	80.001	20.010	100.555	19.762	33.580	0.531
476.000	310.745	80.002	20.010	100.505	19.750	34.804	0.516
478.000	311.709	80.002	20.009	100.556	19.730	36.884	0.487
480.000	312.752	80.003	20.010	100.529	19.710	38.927	0.495
482.000	313.718	80.003	20.009	100.518	19.693	40.721	0.545
484.000	314.677	80.003	20.010	100.538	19.673	42.767	0.499
486.001	315.668	80.003	20.009	100.510	19.652	44.958	0.492
488.000	316.635	80.003	20.009	100.557	19.627	47.518	0.446
490.000	317.623	80.004	20.010	100.512	19.601	50.212	0.472
492.000	318.663	80.002	20.010	100.537	19.576	52.705	0.520
494.000	319.615	80.002	20.010	100.512	19.551	55.321	0.469
496.000	320.657	80.002	20.010	100.512	19.522	58.295	0.539
498.000	321.704	80.003	20.009	100.525	19.494	61.221	0.515
500.000	322.696	80.002	20.009	100.487	19.467	64.033	0.514
502.000	323.678	80.002	20.010	100.524	19.436	67.148	0.524
504.000	324.640	80.003	20.010	100.484	19.407	70.223	0.477
506.000	325.615	80.001	20.010	100.481	19.378	73.124	0.484
508.000	326.619	80.002	20.010	100.501	19.346	76.521	0.461
510.000	327.609	80.002	20.010	100.468	19.312	80.004	0.498
512.000	328.596	80.002	20.010	100.500	19.281	83.202	0.505
514.000	329.620	80.002	20.010	100.473	19.249	86.457	0.526
516.000	330.666	80.003	20.009	100.484	19.215	89.942	0.564
518.000	331.605	80.002	20.010	100.507	19.182	93.405	0.460
520.000	332.607	80.003	20.009	100.483	19.151	96.600	0.485
522.000	333.651	80.002	20.009	100.502	19.118	99.984	0.578
524.000	334.641	80.002	20.009	100.491	19.083	103.680	0.495
526.000	335.578	80.002	20.010	100.497	19.054	106.603	0.474
528.000	336.611	80.001	20.010	100.492	19.020	110.069	0.502
530.000	337.648	80.002	20.009	100.465	18.992	113.008	0.501
532.000	338.632	80.002	20.009	100.509	18.962	116.109	0.506
534.000	339.578	80.003	20.010	100.478	18.934	119.048	0.502
536.000	340.683	80.002	20.009	100.511	18.907	121.797	0.518
538.001	341.657	80.001	20.010	100.511	18.880	124.586	0.518
540.000	342.563	80.002	20.009	100.485	18.853	127.338	0.500
542.000	343.671	80.002	20.009	100.521	18.831	129.730	0.547
544.000	344.660	80.001	20.010	100.496	18.808	132.060	0.517
546.000	345.627	80.002	20.009	100.524	18.783	134.595	0.471
548.000	346.646	80.000	20.010	100.533	18.766	136.402	0.505
550.000	347.624	80.002	20.010	100.537	18.746	138.554	0.520
552.000	348.583	80.001	20.009	100.552	18.729	140.374	0.491
554.000	349.615	80.001	20.010	100.538	18.715	141.764	0.508
556.000	350.576	80.001	20.009	100.592	18.696	143.712	0.472
558.000	351.621	80.002	20.010	100.568	18.674	145.922	0.497
560.000	352.615	80.002	20.010	100.577	18.651	148.327	0.485
562.000	353.555	80.001	20.010	100.609	18.624	151.140	0.522
564.000	354.506	80.002	20.010	100.619	18.590	154.597	0.486
566.000	355.510	80.002	20.009	100.672	18.555	158.146	0.492
568.000	356.484	80.002	20.010	100.641	18.525	161.244	0.505
570.000	357.427	80.001	20.009	100.627	18.469	166.812	0.463
572.000	358.438	80.001	20.010	100.613	18.424	171.547	0.518
574.000	359.410	80.002	20.011	100.627	18.401	173.913	0.463
576.000	360.383	80.002	20.009	100.606	18.372	176.861	0.505
578.000	361.373	80.002	20.009	100.530	18.336	180.725	0.510
580.000	362.377	80.003	20.009	100.571	18.335	181.039	0.496
582.000	363.351	80.003	20.009	100.473	18.357	178.760	0.507
584.000	364.375	80.003	20.008	100.468	18.372	177.414	0.522
586.000	365.307	80.003	20.008	100.482	18.412	173.297	0.475
588.000	366.359	80.003	20.008	100.488	18.446	169.838	0.537
590.001	367.379	80.001	20.009	100.502	18.482	166.024	0.513
592.000	368.370	80.002	20.009	100.610	18.514	162.767	0.501
594.000	369.380	80.002	20.009	100.672	18.543	159.734	0.492
596.000	370.355	80.001	20.009	100.719	18.568	157.115	0.494
598.000	371.381	80.001	20.009	100.811	18.592	154.665	0.476
600.000	372.393	80.002	20.009	100.785	18.611	152.653	0.505
602.001	373.383	80.001	20.009	100.826	18.631	150.648	0.496
604.000	374.428	80.001	20.010	100.763	18.654	148.147	0.517
606.000	375.360	80.002	20.009	100.781	18.677	145.805	0.481
608.000	376.288	80.003	20.009	100.747	18.702	143.167	0.471
610.000	377.358	80.001	20.009	100.759	18.723	141.088	0.526
612.001	378.344	80.002	20.009	100.730	18.748	138.458	0.474
614.000	379.376	80.002	20.009	100.757	18.768	136.390	0.579
616.000	380.316	80.003	20.010	100.723	18.797	133.349	0.500
618.000	381.319	80.001	20.010	100.739	18.832	129.842	0.501
620.000	382.343	80.003	20.010	100.727	18.860	126.971	0.524
622.000	383.342	80.002	20.009	100.731	18.895	123.327	0.509
624.000	384.307	80.002	20.010	100.737	18.929	119.815	0.520
626.000	385.275	80.001	20.009	100.728	18.965	116.070	0.469
628.000	386.324	80.001	20.009	100.747	19.001	112.372	0.519
630.000	387.218	80.002	20.009	100.712	19.041	108.187	0.478
632.000	388.229	80.003	20.009	100.770	19.082	104.022	0.499
634.000	389.274	80.002	20.010	100.736	19.121	99.990	0.519
636.000	390.261	80.002	20.009	100.768	19.164	95.527	0.467
638.000	391.304	80.001	20.010	100.749	19.200	91.788	0.474
640.000	392.283	80.003	20.010	100.746	19.244	87.210	0.510
642.000	393.326	80.004	20.010	100.754	19.285	83.028	0.522
644.000	394.346	80.003	20.010	100.767	19.324	78.991	0.503
646.000	395.348	80.001	20.010	100.781	19.365	74.721	0.457
648.000	396.339	80.002	20.010	100.798	19.403	70.781	0.529
650.000	397.329	80.003	20.010	100.766	19.444	66.507	0.466
652.000	398.390	80.001	20.010	100.754	19.483	62.509	0.539
654.000	399.303	80.002	20.010	100.763	19.520	58.686	0.496
656.000	400.376	80.002	20.010	100.758	19.555	55.021	0.547
658.001	401.392	80.004	20.010	100.743	19.587	51.750	0.502
660.000	402.361	80.003	20.009	100.764	19.621	48.262	0.498
662.000	403.327	80.002	20.009	100.746	19.654	44.783	0.468
664.000	404.311	80.001	20.009	100.764	19.689	41.175	0.524
666.000	405.263	80.001	20.009	100.738	19.717	38.299	0.460
668.000	406.267	80.002	20.010	100.752	19.744	35.456	0.548
670.000	407.215	80.002	20.010	100.715	19.775	32.319	0.531
672.000	408.263	80.002	20.010	100.742	19.800	29.660	0.531
674.008	409.171	80.003	20.010	100.716	19.824	27.224	0.488
676.009	410.135	80.002	20.010	100.725	19.846	24.994	0.475
678.004	411.122	80.000	20.010	100.687	19.869	22.584	0.525
680.001	412.153	80.001	20.009	100.715	19.887	20.724	0.548
682.003	413.120	80.002	20.009	100.683	19.904	18.938	0.480
684.001	414.037	80.003	20.009	100.703	19.918	17.460	0.496
686.004	415.028	80.002	20.009	100.660	19.932	16.013	0.468
688.008	415.989	80.002	20.010	100.700	19.946	14.564	0.494
690.000	416.954	80.002	20.009	100.663	19.961	13.033	0.433
692.005	418.003	80.001	20.009	100.679	19.974	11.745	0.472
694.004	418.952	80.002	20.009	100.648	19.982	10.845	0.441
696.008	419.909	80.002	20.008	100.648	19.991	9.953	0.506
698.004	420.917	80.003	20.009	100.618	19.998	9.273	0.467
700.007	421.824	80.003	20.009	100.639	20.004	8.636	0.458
702.007	422.798	80.000	20.009	100.619	20.009	8.096	0.467
704.009	423.832	80.001	20.009	100.607	20.015	7.477	0.497
706.004	424.807	80.003	20.008	100.605	20.019	7.048	0.489
708.004	425.755	80.002	20.009	100.595	20.027	6.266	0.480
710.008	426.793	80.003	20.009	100.591	20.032	5.716	0.506
712.005	427.725	80.002	20.010	100.588	20.035	5.391	0.479
714.007	428.703	80.001	20.010	100.592	20.038	5.133	0.470
716.000	429.656	80.003	20.009	100.567	20.041	4.844	0.434
718.000	430.690	80.002	20.009	100.596	20.048	4.053	0.494
720.000	431.680	80.002	20.009	100.558	20.047	4.187	0.482
722.001	432.620	80.004	20.010	100.565	20.052	3.676	0.454
724.003	433.734	80.002	20.009	100.547	20.052	3.611	0.530
726.000	434.660	80.002	20.009	100.565	20.058	3.013	0.482
728.000	435.697	80.002	20.009	100.551	20.056	3.275	0.556
730.000	436.668	80.003	20.009	100.555	20.061	2.690	0.510
732.000	437.647	80.001	20.008	100.543	20.064	2.422	0.471
734.000	438.637	80.003	20.009	100.530	20.062	2.647	0.524
736.000	439.648	80.003	20.009	100.543	20.061	2.693	0.518
738.000	440.642	80.004	20.009	100.527	20.061	2.737	0.489
740.000	441.655	80.002	20.010	100.549	20.063	2.506	0.474
742.000	442.643	80.002	20.009	100.520	20.059	2.951	0.511
744.000	443.638	80.002	20.009	100.543	20.064	2.420	0.518
746.000	444.697	80.003	20.009	100.519	20.065	2.329	0.567
748.000	445.686	80.001	20.009	100.555	20.062	2.640	0.502
750.000	446.663	80.002	20.009	100.532	20.063	2.477	0.510
752.000	447.650	80.003	20.009	100.562	20.063	2.520	0.519
754.000	448.609	80.002	20.010	100.543	20.067	2.156	0.493
756.000	449.608	80.003	20.010	100.552	20.067	2.062	0.488
758.000	450.569	80.002	20.009	100.528	20.066	2.189	0.490
760.000	451.647	80.003	20.010	100.525	20.065	2.306	0.507
762.000	452.625	80.002	20.010	100.535	20.062	2.598	0.486
764.000	453.591	80.002	20.010	100.538	20.063	2.512	0.502
766.000	454.530	80.002	20.010	100.537	20.063	2.474	0.443
768.000	455.587	80.001	20.010	100.510	20.063	2.557	0.485
770.000	456.598	80.003	20.010	100.525	20.062	2.664	0.549
772.000	457.614	80.003	20.009	100.512	20.061	2.717	0.501
774.000	458.611	80.001	20.009	100.517	20.062	2.668	0.553
776.000	459.611	80.002	20.009	100.506	20.061	2.708	0.525
778.000	460.523	80.002	20.008	100.528	20.065	2.365	0.462
780.000	461.523	80.003	20.009	100.509	20.062	2.632	0.508
782.000	462.536	80.002	20.009	100.520	20.067	2.156	0.516
784.000	463.429	80.002	20.008	100.520	20.069	1.925	0.470
786.000	464.363	80.001	20.009	100.531	20.068	2.043	0.473
788.000	465.343	80.003	20.009	100.532	20.069	1.932	0.486
790.001	466.263	80.002	20.010	100.522	20.066	2.254	0.478
792.001	467.168	80.001	20.008	100.528	20.064	2.437	0.449
794.000	468.184	80.002	20.009	100.524	20.066	2.238	0.521
796.000	469.120	80.002	20.009	100.518	20.067	2.084	0.448
798.000	470.088	80.001	20.009	100.511	20.064	2.387	0.461
800.000	471.039	80.002	20.009	100.534	20.064	2.431	0.495
802.000	472.048	80.001	20.009	100.510	20.062	2.637	0.541
804.000	472.989	80.002	20.009	100.527	20.061	2.757	0.500
806.000	473.938	80.001	20.010	100.496	20.062	2.668	0.474
808.000	474.919	80.002	20.009	100.519	20.064	2.441	0.522
810.000	475.922	80.002	20.009	100.495	20.067	2.123	0.532
812.000	476.906	80.002	20.009	100.526	20.065	2.337	0.484
814.000	477.890	80.003	20.010	100.500	20.069	1.869	0.430
816.000	478.871	80.002	20.010	100.513	20.068	1.986	0.504
818.000	479.911	80.002	20.009	100.506	20.069	1.947	0.532
820.001	480.842	80.002	20.009	100.532	20.065	2.267	0.473
822.000	481.863	80.002	20.009	100.513	20.067	2.160	0.497
824.000	482.856	80.003	20.009	100.522	20.066	2.230	0.507
826.000	483.907	80.002	20.010	100.519	20.066	2.213	0.524
828.000	484.882	80.003	20.010	100.534	20.066	2.174	0.508
830.000	485.924	80.002	20.009	100.540	20.067	2.139	0.519
832.000	486.859	80.002	20.009	100.524	20.068	2.056	0.493
834.001	487.865	80.002	20.010	100.517	20.065	2.278	0.519
836.000	488.819	80.002	20.009	100.503	20.066	2.228	0.482
838.000	489.798	80.002	20.008	100.521	20.065	2.322	0.518
840.000	490.760	80.004	20.009	100.517	20.066	2.189	0.478
842.000	491.788	80.002	20.009	100.543	20.065	2.293	0.503
844.000	492.727	80.002	20.009	100.505	20.067	2.158	0.504
846.000	493.718	80.002	20.009	100.535	20.066	2.223	0.495
848.000	494.738	80.003	20.009	100.514	20.066	2.245	0.508
850.000	495.730	80.003	20.009	100.536	20.064	2.420	0.504
852.001	496.738	80.003	20.009	100.509	20.063	2.487	0.518
854.000	497.743	80.005	20.009	100.519	20.063	2.561	0.496
856.000	498.733	80.003	20.009	100.492	20.064	2.413	0.474
858.000	499.768	80.003	20.009	100.512	20.062	2.651	0.511
860.000	500.808	80.003	20.010	100.496	20.060	2.864	0.510
862.000	501.753	80.002	20.010	100.524	20.062	2.599	0.475
864.000	502.808	80.002	20.009	100.504	20.061	2.696	0.529
866.000	503.755	80.002	20.009	100.510	20.061	2.681	0.467
868.000	504.717	80.002	20.009	100.508	20.066	2.217	0.495
870.000	505.728	80.002	20.009	100.505	20.067	2.080	0.493
872.000	506.729	80.002	20.010	100.519	20.065	2.304	0.510
874.000	507.660	80.002	20.009	100.503	20.068	2.016	0.523
876.000	508.639	80.002	20.008	100.529	20.066	2.180	0.498
878.000	509.646	80.002	20.009	100.496	20.066	2.193	0.496
880.000	510.606	80.002	20.008	100.529	20.067	2.112	0.480
882.000	511.585	80.003	20.009	100.492	20.069	1.938	0.504
884.001	512.648	80.002	20.009	100.521	20.066	2.231	0.534
886.000	513.601	80.002	20.008	100.505	20.066	2.265	0.458
888.001	514.587	80.001	20.009	100.521	20.065	2.362	0.478
890.000	515.514	80.002	20.009	100.512	20.068	1.984	0.484
892.000	516.594	80.001	20.009	100.518	20.064	2.426	0.511
894.000	517.553	80.002	20.008	100.508	20.067	2.089	0.500
896.000	518.520	80.003	20.009	100.488	20.065	2.269	0.475
898.000	519.526	80.001	20.009	100.500	20.067	2.102	0.476
900.000	520.472	80.001	20.009	100.505	20.064	2.382	0.457
902.000	521.447	80.002	20.008	100.499	20.067	2.143	0.512
904.000	522.403	80.002	20.009	100.502	20.063	2.539	0.495
906.000	523.392	80.001	20.008	100.541	20.063	2.533	0.521
908.000	524.351	80.002	20.009	100.517	20.062	2.596	0.464
910.000	525.363	80.002	20.008	100.535	20.066	2.265	0.464
912.000	526.311	80.002	20.009	100.504	20.062	2.603	0.475
914.000	527.338	80.003	20.008	100.519	20.066	2.217	0.528
916.000	528.262	80.001	20.009	100.498	20.064	2.459	0.493
918.000	529.315	80.001	20.008	100.532	20.064	2.463	0.517
920.000	530.254	80.003	20.009	100.505	20.061	2.754	0.496
922.000	531.229	80.003	20.008	100.530	20.061	2.707	0.474
924.000	532.191	80.002	20.008	100.507	20.063	2.514	0.486
926.000	533.276	80.002	20.009	100.519	20.064	2.472	0.528
928.000	534.249	80.002	20.009	100.497	20.064	2.379	0.504
930.000	535.286	80.001	20.009	100.528	20.068	2.008	0.507
932.000	536.266	80.002	20.008	100.510	20.067	2.080	0.474
934.000	537.203	80.002	20.009	100.524	20.067	2.066	0.483
936.000	538.229	80.002	20.008	100.514	20.070	1.816	0.517
938.000	539.214	80.003	20.009	100.529	20.067	2.149	0.467
940.000	540.235	80.001	20.008	100.531	20.068	2.014	0.509
942.000	541.240	80.003	20.009	100.521	20.066	2.261	0.516
944.000	542.255	80.002	20.009	100.537	20.063	2.502	0.504
946.000	543.307	80.002	20.009	100.492	20.064	2.461	0.497
948.000	544.302	80.001	20.009	100.521	20.064	2.424	0.477
950.000	545.328	80.001	20.009	100.505	20.060	2.821	0.543
952.000	546.319	80.002	20.009	100.515	20.063	2.524	0.478
954.000	547.285	80.001	20.009	100.501	20.060	2.858	0.486
956.000	548.319	80.002	20.009	100.515	20.062	2.624	0.512
958.000	549.285	80.001	20.008	100.500	20.061	2.740	0.508
960.000	550.241	80.003	20.009	100.512	20.062	2.583	0.479
962.000	551.273	80.002	20.008	100.504	20.061	2.736	0.500
964.000	552.269	80.002	20.009	100.511	20.064	2.469	0.532
966.000	553.201	80.002	20.008	100.508	20.059	2.926	0.489
968.000	554.228	80.003	20.009	100.515	20.062	2.594	0.509
970.000	555.196	80.002	20.009	100.520	20.062	2.638	0.465
972.000	556.225	80.003	20.008	100.500	20.064	2.402	0.515
974.000	557.214	80.002	20.008	100.515	20.062	2.576	0.480
976.000	558.120	80.001	20.009	100.489	20.064	2.441	0.439
978.000	559.157	80.001	20.008	100.506	20.065	2.368	0.510
980.000	560.105	80.002	20.009	100.505	20.067	2.163	0.513
982.000	561.059	80.002	20.009	100.522	20.061	2.699	0.471
984.000	562.037	80.001	20.009	100.479	20.065	2.344	0.522
986.000	563.003	80.001	20.009	100.509	20.066	2.250	0.482
988.000	563.950	80.002	20.009	100.483	20.065	2.363	0.442
990.000	564.913	80.002	20.009	100.527	20.064	2.391	0.464
992.000	565.903	80.001	20.008	100.521	20.067	2.066	0.503
994.001	566.853	80.002	20.009	100.549	20.067	2.149	0.480
996.000	567.845	80.002	20.009	100.512	20.068	2.045	0.493
998.000	568.746	80.001	20.009	100.536	20.069	1.903	0.426
1000.000	569.774	80.001	20.009	100.503	20.068	2.016	0.485
1002.001	570.790	80.001	20.009	100.530	20.070	1.766	0.524
1004.000	571.759	80.001	20.009	100.497	20.068	1.990	0.485
1006.000	572.766	80.002	20.008	100.514	20.066	2.212	0.517
1008.000	573.737	80.002	20.008	100.500	20.065	2.273	0.507
1010.000	574.690	80.001	20.009	100.537	20.066	2.217	0.455
1012.000	575.699	80.001	20.009	100.504	20.065	2.348	0.516
1014.000	576.721	80.002	20.009	100.529	20.065	2.369	0.463
1016.000	577.738	80.001	20.008	100.491	20.068	2.001	0.498
1018.000	578.693	80.001	20.008	100.501	20.066	2.195	0.469
1020.000	579.682	80.003	20.008	100.475	20.066	2.235	0.475
1022.000	580.609	80.002	20.009	100.524	20.066	2.189	0.458
1024.000	581.536	80.001	20.008	100.498	20.069	1.951	0.461
1026.000	582.532	80.001	20.008	100.520	20.068	2.047	0.506
1028.000	583.496	80.001	20.009	100.495	20.066	2.175	0.488
1030.000	584.492	80.002	20.008	100.541	20.069	1.870	0.502
1032.000	585.507	80.002	20.008	100.510	20.064	2.391	0.493
1034.000	586.486	80.002	20.009	100.536	20.065	2.335	0.478
1036.001	587.524	80.002	20.009	100.497	20.067	2.088	0.517
1038.000	588.514	80.003	20.009	100.516	20.068	2.008	0.529
1040.000	589.567	80.003	20.009	100.495	20.067	2.066	0.556
1042.000	590.578	80.001	20.009	100.500	20.063	2.518	0.521
1044.000	591.567	80.002	20.009	100.510	20.067	2.153	0.489
1046.000	592.596	80.001	20.009	100.488	20.066	2.228	0.530
1048.000	593.600	80.001	20.009	100.508	20.067	2.082	0.471
1050.000	594.627	80.002	20.009	100.500	20.067	2.103	0.507
1052.000	595.666	80.003	20.009	100.523	20.067	2.099	0.535
1054.000	596.708	80.002	20.009	100.494	20.066	2.255	0.513
1056.000	597.748	80.001	20.009	100.511	20.067	2.125	0.496
1058.000	598.786	80.001	20.009	100.484	20.065	2.297	0.532
1060.000	599.803	80.002	20.008	100.544	20.067	2.112	0.492
1062.000	600.831	80.001	20.009	100.506	20.064	2.381	0.497
1064.000	601.855	80.002	20.009	100.489	20.066	2.254	0.544
1066.000	602.826	80.002	20.010	100.504	20.065	2.337	0.496
1068.000	603.823	80.002	20.009	100.484	20.065	2.319	0.491
1070.000	604.862	80.002	20.009	100.504	20.062	2.596	0.502
1072.000	605.860	80.001	20.009	100.492	20.064	2.393	0.502
1074.000	606.876	80.002	20.010	100.536	20.063	2.494	0.513
1076.000	607.898	80.002	20.009	100.498	20.065	2.293	0.475
1078.000	608.866	80.003	20.009	100.515	20.064	2.392	0.495
1080.000	609.832	80.002	20.009	100.489	20.063	2.504	0.477
1082.000	610.796	80.002	20.009	100.525	20.063	2.544	0.495
1084.000	611.809	80.001	20.010	100.493	20.062	2.665	0.508
1086.000	612.757	80.002	20.009	100.514	20.062	2.622	0.465
1088.000	613.725	80.003	20.009	100.525	20.067	2.145	0.475
1090.000	614.735	80.003	20.009	100.516	20.064	2.428	0.489
1092.000	615.820	80.002	20.010	100.523	20.065	2.359	0.539
1094.000	616.894	80.003	20.009	100.482	20.064	2.420	0.574
1096.000	617.826	80.004	20.009	100.507	20.062	2.675	0.460
1098.000	618.851	80.003	20.009	100.466	20.063	2.555	0.500
1100.000	619.826	80.003	20.009	100.517	20.062	2.585	0.515
1102.000	620.846	80.002	20.009	100.511	20.063	2.488	0.492
1104.000	621.908	80.001	20.009	100.503	20.063	2.550	0.496
1106.000	622.880	80.003	20.009	100.544	20.063	2.557	0.457
1108.000	623.892	80.002	20.010	100.484	20.065	2.278	0.527
1110.000	624.912	80.001	20.010	100.530	20.064	2.389	0.517
1112.000	625.881	80.003	20.009	100.494	20.064	2.424	0.505
1114.000	626.904	80.002	20.010	100.520	20.063	2.554	0.509
1116.000	627.887	80.002	20.010	100.517	20.066	2.217	0.507
1118.000	628.923	80.003	20.010	100.493	20.066	2.164	0.483
1120.000	629.938	80.002	20.009	100.516	20.063	2.474	0.484
1122.000	630.892	80.003	20.009	100.484	20.063	2.520	0.504
1124.000	632.025	80.003	20.008	100.517	20.062	2.620	0.575
1126.000	632.950	80.002	20.008	100.507	20.062	2.623	0.499
1128.001	633.889	80.003	20.008	100.510	20.065	2.337	0.468
1130.000	634.855	80.000	20.009	100.526	20.065	2.337	0.461
1132.000	635.894	80.002	20.009	100.491	20.062	2.581	0.473
1134.000	636.906	80.003	20.009	100.520	20.062	2.586	0.485
1136.000	637.867	80.002	20.009	100.480	20.063	2.561	0.512
1138.000	638.949	80.002	20.009	100.518	20.064	2.435	0.543
1140.000	639.915	80.001	20.009	100.508	20.064	2.446	0.500
1142.000	640.915	80.001	20.008	100.520	20.062	2.664	0.528
1144.000	641.943	80.001	20.009	100.519	20.061	2.719	0.542
1146.000	642.912	80.002	20.009	100.509	20.063	2.568	0.488
1148.000	643.925	80.002	20.009	100.539	20.062	2.653	0.505
1150.000	644.890	80.002	20.009	100.492	20.059	2.942	0.499
1152.000	645.918	80.002	20.009	100.531	20.061	2.767	0.502
1154.000	646.927	80.002	20.010	100.495	20.059	2.945	0.492
1156.000	647.954	80.002	20.009	100.526	20.063	2.487	0.533
1158.000	648.935	80.003	20.010	100.520	20.062	2.620	0.529
1160.000	649.921	80.002	20.009	100.508	20.064	2.469	0.518
1162.000	650.849	80.003	20.009	100.493	20.063	2.522	0.462
1164.001	651.861	80.002	20.009	100.491	20.063	2.546	0.493
1166.001	652.806	80.002	20.009	100.527	20.064	2.372	0.450
1168.000	653.825	80.002	20.009	100.482	20.061	2.685	0.497
1170.000	654.781	80.002	20.008	100.508	20.062	2.673	0.467
1172.000	655.832	80.002	20.008	100.476	20.064	2.441	0.532
1174.000	656.788	80.002	20.009	100.525	20.061	2.723	0.519
1176.000	657.751	80.004	20.009	100.499	20.062	2.628	0.505
1178.000	658.745	80.001	20.009	100.521	20.060	2.825	0.511
1180.000	659.730	80.003	20.009	100.493	20.058	3.034	0.505
1182.000	660.714	80.002	20.009	100.502	20.058	3.080	0.506
1184.000	661.670	80.002	20.009	100.504	20.060	2.829	0.470
1186.000	662.643	80.002	20.009	100.499	20.054	3.403	0.483
1188.000	663.650	80.003	20.009	100.503	20.061	2.779	0.469
1190.000	664.663	80.002	20.009	100.488	20.063	2.572	0.486
1192.000	665.633	80.002	20.009	100.510	20.062	2.651	0.485
1194.000	666.610	80.002	20.008	100.492	20.062	2.633	0.490
1196.000	667.631	80.001	20.009	100.506	20.064	2.461	0.496
1198.000	668.662	80.002	20.009	100.487	20.060	2.868	0.508
1200.000	669.690	80.002	20.009	100.520	20.060	2.823	0.544
1202.000	670.650	80.001	20.009	100.482	20.060	2.879	0.491
1204.000	671.687	80.002	20.009	100.517	20.059	2.912	0.505
1206.000	672.723	80.002	20.009	100.490	20.059	2.980	0.496
1208.000	673.713	80.003	20.009	100.502	20.058	3.040	0.496
1210.000	674.702	80.003	20.009	100.498	20.062	2.655	0.490
1212.000	675.738	80.003	20.009	100.510	20.060	2.844	0.500
1214.001	676.774	80.001	20.009	100.523	20.056	3.229	0.486
1216.000	677.792	80.001	20.008	100.497	20.060	2.855	0.528
1218.000	678.808	80.003	20.009	100.527	20.063	2.506	0.497
1220.000	679.865	80.003	20.009	100.482	20.058	2.994	0.488
1222.000	680.851	80.001	20.009	100.505	20.061	2.746	0.487
1224.000	681.845	80.003	20.008	100.493	20.061	2.760	0.506
1226.000	682.870	80.002	20.008	100.508	20.059	2.916	0.545
1228.000	683.943	80.002	20.008	100.511	20.061	2.729	0.531
1230.000	684.872	80.003	20.009	100.472	20.058	3.005	0.467
1232.001	685.906	80.001	20.008	100.494	20.059	2.905	0.508
1234.000	686.957	80.003	20.009	100.484	20.059	2.896	0.527
1236.000	687.919	80.002	20.008	100.504	20.060	2.829	0.497
1238.000	688.970	80.001	20.008	100.515	20.061	2.716	0.538
1240.001	690.000	80.002	20.008	100.496	20.061	2.735	0.505
1242.001	690.976	80.002	20.009	100.493	20.059	2.899	0.485
1244.000	691.966	80.002	20.009	100.464	20.060	2.875	0.510
1246.000	692.936	80.002	20.008	100.512	20.059	2.960	0.467
1248.000	693.968	80.003	20.010	100.463	20.061	2.770	0.521
1250.000	694.917	80.001	20.008	100.515	20.059	2.907	0.486
1252.001	695.886	80.002	20.009	100.494	20.058	2.995	0.455
1254.000	696.974	80.002	20.008	100.505	20.059	2.950	0.528
1256.001	697.931	80.002	20.009	100.508	20.062	2.657	0.482
1258.000	698.934	80.002	20.008	100.501	20.060	2.794	0.481
1260.000	700.001	80.002	20.008	100.527	20.061	2.689	0.525
1262.000	700.966	80.003	20.009	100.476	20.060	2.883	0.496
1264.000	701.956	80.002	20.008	100.493	20.061	2.765	0.519
1266.000	702.974	80.002	20.008	100.475	20.062	2.583	0.523
1268.000	703.991	80.001	20.009	100.470	20.058	2.990	0.520
1270.001	704.963	80.003	20.009	100.503	20.059	2.952	0.460
1272.000	706.061	80.002	20.008	100.470	20.059	2.973	0.527
1274.000	707.042	80.003	20.008	100.503	20.057	3.182	0.477
1276.000	708.122	80.003	20.009	100.474	20.062	2.654	0.481
1278.000	709.134	80.001	20.008	100.501	20.058	3.067	0.446
1280.000	710.245	80.003	20.008	100.517	20.058	3.024	0.558
1282.001	711.243	80.002	20.009	100.505	20.060	2.831	0.499
1284.000	712.235	80.002	20.008	100.533	20.060	2.799	0.461
1286.001	713.289	80.003	20.009	100.485	20.059	2.977	0.530
1288.000	714.351	80.002	20.008	100.530	20.058	3.077	0.502
1290.000	715.394	80.002	20.008	100.518	20.061	2.766	0.517
1292.000	716.454	80.002	20.009	100.510	20.060	2.835	0.563
1294.001	717.448	80.003	20.008	100.520	20.058	3.015	0.500
1296.000	718.464	80.002	20.008	100.497	20.058	3.022	0.472
1298.000	719.478	80.002	20.009	100.514	20.056	3.230	0.521
1300.000	720.527	80.002	20.009	100.472	20.055	3.398	0.541
1302.000	721.455	80.002	20.008	100.512	20.057	3.131	0.489
1304.000	722.466	80.002	20.009	100.470	20.058	3.074	0.506
1306.000	723.494	80.002	20.008	100.492	20.060	2.877	0.518
1308.000	724.485	80.002	20.009	100.483	20.059	2.989	0.474
1310.000	725.539	80.001	20.009	100.469	20.059	2.960	0.530
1312.000	726.528	80.002	20.008	100.501	20.058	3.011	0.527
1314.000	727.515	80.001	20.008	100.493	20.058	3.021	0.472
1316.000	728.552	80.001	20.008	100.547	20.059	2.950	0.503
1318.000	729.585	80.002	20.009	100.491	20.058	3.004	0.474
1320.000	730.632	80.002	20.008	100.523	20.057	3.112	0.502
1322.000	731.681	80.002	20.009	100.509	20.059	2.958	0.516
1324.000	732.700	80.003	20.008	100.502	20.056	3.234	0.512
1326.001	733.738	80.002	20.009	100.517	20.058	3.010	0.494
1328.000	734.790	80.001	20.009	100.501	20.061	2.779	0.561
1330.000	735.783	80.001	20.008	100.534	20.061	2.702	0.531
1332.000	736.837	80.002	20.009	100.502	20.062	2.649	0.504
1334.000	737.890	80.001	20.009	100.511	20.061	2.713	0.496
1336.000	738.916	80.001	20.009	100.487	20.061	2.714	0.507
1338.000	739.912	80.002	20.009	100.472	20.061	2.683	0.493
1340.000	740.850	80.002	20.008	100.513	20.061	2.693	0.503
1342.000	741.850	80.002	20.009	100.473	20.062	2.637	0.529
1343.500	742.604	80.002	20.009	100.495	20.061	2.738	0.518