File: Experiments/TUBS/mcc/mcc_piece_3mg_dyn30_r1.txt
Sample Weight (mg):	3.01
Heating Rate (C/s):	0.5
Combustor Temp (C):	900
N2 Flow Rate (cc/min):	80
O2 Flow Rate (cc/min):	20
Time (s)	Temperature (C)	N2 flow rate (cc/min)	O2 flow rate (cc/min)	Flow Rate (cc/min)	Oxygen (%)	HRR (W/g)	Heating rate (C/s)
0.000	87.794	80.003	20.008	100.508	20.190	0.476	-0.067
2.000	87.813	80.002	20.009	100.524	20.189	0.544	-0.003
4.000	87.748	80.002	20.008	100.499	20.189	0.572	-0.033
6.000	87.689	80.003	20.009	100.517	20.192	0.244	-0.017
8.000	87.705	80.002	20.009	100.500	20.191	0.414	-0.001
10.001	87.744	80.003	20.008	100.525	20.191	0.405	-0.007
12.000	87.757	80.004	20.009	100.506	20.191	0.377	0.049
14.000	87.727	80.003	20.008	100.517	20.190	0.487	-0.066
16.000	87.782	80.003	20.008	100.492	20.188	0.678	0.040
18.000	87.701	80.001	20.008	100.511	20.187	0.824	-0.090
20.000	87.784	80.003	20.009	100.501	20.183	1.182	-0.024
22.000	87.816	80.002	20.009	100.524	20.184	1.096	0.001
24.000	87.965	80.002	20.008	100.519	20.183	1.189	0.058
26.000	87.945	80.003	20.009	100.544	20.185	1.033	0.010
28.000	88.013	80.004	20.009	100.534	20.182	1.304	0.020
30.000	88.112	80.003	20.009	100.544	20.185	0.980	0.020
32.000	88.222	80.003	20.008	100.522	20.184	1.102	0.060
34.000	88.339	80.003	20.008	100.519	20.186	0.890	0.041
36.000	88.413	80.002	20.008	100.535	20.183	1.203	0.065
38.000	88.509	80.002	20.009	100.540	20.180	1.505	0.060
40.001	88.675	80.003	20.008	100.543	20.181	1.431	0.058
42.000	88.857	80.003	20.008	100.543	20.179	1.662	0.080
44.001	88.920	80.001	20.008	100.575	20.177	1.886	0.046
46.000	89.119	80.002	20.009	100.587	20.177	1.879	0.073
48.001	89.281	80.002	20.008	100.608	20.176	1.969	0.068
50.000	89.489	80.003	20.008	100.599	20.178	1.731	0.098
52.000	89.627	80.003	20.008	100.605	20.176	1.971	0.081
54.000	89.830	80.004	20.008	100.642	20.176	1.980	0.105
56.001	90.077	80.002	20.009	100.658	20.172	2.393	0.110
58.001	90.297	80.002	20.008	100.689	20.173	2.310	0.141
60.000	90.514	80.003	20.008	100.653	20.174	2.145	0.125
62.001	90.772	80.003	20.008	100.669	20.173	2.278	0.073
64.000	91.141	80.003	20.008	100.658	20.169	2.710	0.140
66.000	91.470	80.002	20.008	100.678	20.169	2.638	0.170
68.000	91.782	80.003	20.009	100.667	20.167	2.854	0.170
70.000	92.167	80.002	20.008	100.716	20.163	3.290	0.161
72.000	92.472	80.004	20.008	100.748	20.156	4.008	0.178
74.000	92.879	80.003	20.008	100.749	20.156	4.000	0.196
76.000	93.313	80.002	20.009	100.757	20.154	4.284	0.218
78.000	93.730	80.003	20.008	100.740	20.150	4.668	0.265
80.000	94.143	80.002	20.008	100.779	20.147	4.964	0.178
82.000	94.685	80.003	20.009	100.783	20.144	5.262	0.252
84.000	95.182	80.003	20.008	100.820	20.141	5.565	0.283
86.000	95.745	80.002	20.008	100.821	20.137	5.999	0.226
88.000	96.378	80.003	20.009	100.821	20.137	6.029	0.334
90.000	96.947	80.003	20.008	100.815	20.135	6.209	0.329
92.001	97.577	80.003	20.008	100.790	20.137	6.006	0.318
94.001	98.288	80.002	20.008	100.787	20.132	6.498	0.370
96.000	98.987	80.003	20.008	100.802	20.134	6.308	0.305
98.001	99.689	80.002	20.008	100.779	20.137	5.972	0.336
100.001	100.439	80.001	20.009	100.799	20.139	5.822	0.383
102.001	101.195	80.004	20.009	100.785	20.136	6.126	0.338
104.000	101.939	80.003	20.008	100.813	20.139	5.847	0.387
106.000	102.742	80.003	20.009	100.805	20.137	6.065	0.420
108.000	103.560	80.003	20.008	100.811	20.136	6.098	0.400
110.000	104.376	80.003	20.009	100.780	20.138	5.911	0.371
112.000	105.227	80.003	20.009	100.817	20.136	6.117	0.425
114.001	106.133	80.003	20.009	100.804	20.133	6.399	0.466
116.000	106.970	80.002	20.008	100.797	20.135	6.272	0.433
118.000	107.875	80.003	20.008	100.807	20.132	6.576	0.466
120.000	108.785	80.003	20.008	100.820	20.135	6.254	0.416
122.000	109.738	80.003	20.008	100.841	20.133	6.396	0.519
124.000	110.668	80.002	20.008	100.799	20.129	6.849	0.454
126.000	111.651	80.002	20.008	100.821	20.130	6.752	0.492
128.000	112.588	80.003	20.008	100.816	20.127	7.055	0.463
130.000	113.538	80.003	20.008	100.827	20.130	6.777	0.492
132.000	114.601	80.003	20.009	100.811	20.132	6.509	0.483
134.000	115.605	80.003	20.008	100.837	20.133	6.444	0.520
136.000	116.604	80.002	20.008	100.810	20.136	6.162	0.511
138.000	117.646	80.002	20.008	100.802	20.135	6.247	0.476
140.000	118.710	80.003	20.008	100.807	20.133	6.470	0.536
142.000	119.812	80.003	20.008	100.816	20.132	6.513	0.548
144.000	120.890	80.001	20.008	100.814	20.133	6.393	0.556
146.000	121.976	80.002	20.008	100.821	20.133	6.467	0.562
148.000	123.127	80.002	20.008	100.805	20.137	6.068	0.561
150.000	124.263	80.003	20.009	100.794	20.136	6.169	0.542
152.000	125.416	80.002	20.008	100.795	20.141	5.636	0.565
154.000	126.547	80.003	20.008	100.781	20.137	6.033	0.557
156.000	127.598	80.003	20.008	100.789	20.140	5.750	0.504
158.000	128.765	80.002	20.008	100.792	20.141	5.610	0.603
160.000	129.937	80.004	20.009	100.792	20.134	6.333	0.583
162.000	131.045	80.005	20.009	100.764	20.139	5.767	0.561
164.000	132.187	80.002	20.009	100.754	20.137	5.985	0.581
166.000	133.357	80.004	20.008	100.745	20.134	6.306	0.574
168.000	134.478	80.002	20.008	100.743	20.137	6.041	0.585
170.000	135.659	80.002	20.009	100.739	20.136	6.133	0.581
172.000	136.765	80.003	20.009	100.765	20.140	5.715	0.577
174.000	137.891	80.002	20.008	100.749	20.138	5.962	0.532
176.000	138.988	80.003	20.008	100.760	20.141	5.570	0.517
178.000	140.140	80.002	20.008	100.747	20.145	5.235	0.572
180.000	141.429	80.003	20.009	100.754	20.141	5.587	0.600
182.000	142.402	80.003	20.009	100.739	20.142	5.509	0.637
184.000	143.559	80.002	20.008	100.753	20.145	5.183	0.552
186.000	144.724	80.003	20.009	100.730	20.145	5.221	0.587
188.000	145.889	80.002	20.008	100.729	20.142	5.480	0.566
190.000	147.066	80.002	20.009	100.697	20.142	5.488	0.582
192.000	148.148	80.002	20.008	100.744	20.141	5.597	0.561
194.000	149.372	80.003	20.008	100.724	20.142	5.488	0.606
196.000	150.463	80.002	20.008	100.735	20.142	5.529	0.594
198.000	151.592	80.004	20.009	100.703	20.142	5.534	0.555
200.000	152.704	80.003	20.008	100.723	20.143	5.384	0.580
202.000	153.848	80.004	20.008	100.710	20.144	5.273	0.538
204.000	154.969	80.003	20.008	100.708	20.143	5.354	0.596
206.000	156.019	80.003	20.009	100.711	20.144	5.240	0.562
208.000	157.103	80.003	20.008	100.709	20.141	5.573	0.541
210.000	158.208	80.003	20.009	100.705	20.141	5.635	0.550
212.000	159.337	80.002	20.008	100.697	20.137	5.999	0.559
214.000	160.408	80.003	20.008	100.699	20.140	5.684	0.542
216.000	161.533	80.003	20.008	100.691	20.140	5.653	0.586
218.000	162.630	80.003	20.009	100.701	20.139	5.832	0.524
220.000	163.692	80.003	20.009	100.685	20.142	5.483	0.549
222.000	164.749	80.002	20.009	100.693	20.140	5.714	0.517
224.000	165.792	80.002	20.008	100.689	20.136	6.069	0.532
226.000	166.869	80.003	20.008	100.693	20.134	6.293	0.538
228.000	167.901	80.002	20.009	100.696	20.137	6.055	0.517
230.000	168.995	80.003	20.008	100.688	20.131	6.680	0.510
232.000	170.096	80.003	20.009	100.668	20.133	6.461	0.575
234.000	171.119	80.003	20.009	100.690	20.127	7.012	0.531
236.000	172.210	80.002	20.008	100.663	20.129	6.875	0.544
238.000	173.267	80.002	20.008	100.690	20.128	6.922	0.521
240.000	174.324	80.003	20.008	100.644	20.125	7.287	0.524
242.000	175.371	80.002	20.008	100.649	20.122	7.541	0.512
244.000	176.438	80.002	20.008	100.633	20.123	7.424	0.576
246.000	177.484	80.004	20.008	100.673	20.121	7.703	0.513
248.000	178.562	80.004	20.008	100.658	20.120	7.825	0.590
250.000	179.592	80.001	20.008	100.674	20.118	8.025	0.537
252.000	180.618	80.002	20.009	100.649	20.119	7.933	0.490
254.000	181.722	80.001	20.008	100.643	20.117	8.149	0.550
256.000	182.709	80.003	20.008	100.656	20.117	8.069	0.536
258.000	183.695	80.003	20.008	100.635	20.117	8.096	0.504
260.000	184.767	80.003	20.008	100.642	20.115	8.300	0.553
262.000	185.738	80.002	20.008	100.638	20.114	8.414	0.482
264.000	186.745	80.002	20.008	100.642	20.114	8.364	0.459
266.000	187.765	80.003	20.008	100.646	20.116	8.218	0.529
268.000	188.719	80.002	20.008	100.661	20.114	8.413	0.477
270.000	189.650	80.002	20.008	100.670	20.119	7.861	0.473
272.000	190.672	80.001	20.008	100.667	20.118	7.981	0.458
274.000	191.733	80.002	20.008	100.660	20.114	8.382	0.516
276.000	192.642	80.003	20.008	100.657	20.119	7.893	0.465
278.000	193.654	80.002	20.008	100.651	20.115	8.261	0.492
280.000	194.632	80.002	20.008	100.651	20.116	8.239	0.493
282.000	195.638	80.002	20.008	100.625	20.118	8.046	0.458
284.000	196.638	80.003	20.008	100.636	20.114	8.365	0.469
286.000	197.665	80.002	20.008	100.633	20.115	8.340	0.531
288.000	198.673	80.003	20.008	100.641	20.114	8.367	0.491
290.000	199.710	80.003	20.009	100.632	20.113	8.542	0.504
292.000	200.665	80.003	20.009	100.646	20.113	8.535	0.523
294.000	201.663	80.002	20.008	100.640	20.115	8.283	0.427
296.000	202.608	80.002	20.008	100.683	20.116	8.231	0.460
298.000	203.632	80.003	20.008	100.646	20.111	8.689	0.495
300.000	204.683	80.002	20.008	100.654	20.109	8.909	0.500
302.000	205.687	80.002	20.009	100.614	20.112	8.669	0.534
304.000	206.650	80.003	20.008	100.612	20.109	8.946	0.509
306.000	207.639	80.002	20.008	100.594	20.108	9.028	0.491
308.000	208.582	80.003	20.007	100.623	20.107	9.129	0.491
310.000	209.595	80.002	20.008	100.627	20.106	9.204	0.468
312.000	210.583	80.002	20.008	100.610	20.107	9.185	0.495
314.000	211.500	80.003	20.008	100.622	20.108	9.089	0.479
316.000	212.479	80.002	20.008	100.621	20.109	8.949	0.506
318.000	213.489	80.003	20.009	100.641	20.109	8.889	0.480
320.000	214.430	80.003	20.008	100.629	20.110	8.836	0.471
322.000	215.416	80.003	20.008	100.638	20.110	8.868	0.540
324.000	216.346	80.001	20.008	100.612	20.111	8.771	0.454
326.000	217.301	80.003	20.009	100.635	20.111	8.712	0.491
328.000	218.301	80.002	20.009	100.620	20.108	9.065	0.494
330.000	219.272	80.003	20.008	100.637	20.107	9.165	0.456
332.000	220.280	80.003	20.009	100.620	20.108	9.066	0.474
334.000	221.270	80.003	20.008	100.654	20.104	9.440	0.483
336.000	222.321	80.002	20.008	100.628	20.103	9.601	0.524
338.000	223.263	80.001	20.008	100.649	20.101	9.738	0.509
340.000	224.250	80.002	20.009	100.637	20.106	9.208	0.526
342.000	225.293	80.002	20.008	100.646	20.105	9.312	0.506
344.000	226.238	80.003	20.008	100.622	20.102	9.697	0.476
346.000	227.279	80.003	20.008	100.646	20.102	9.706	0.507
348.001	228.240	80.002	20.008	100.610	20.102	9.676	0.452
350.000	229.225	80.001	20.009	100.637	20.100	9.893	0.500
352.000	230.254	80.001	20.009	100.619	20.102	9.708	0.514
354.000	231.244	80.002	20.008	100.659	20.104	9.488	0.495
356.000	232.279	80.002	20.008	100.621	20.104	9.471	0.525
358.000	233.327	80.002	20.008	100.650	20.102	9.666	0.531
360.000	234.300	80.003	20.008	100.605	20.101	9.814	0.475
362.000	235.328	80.002	20.008	100.629	20.102	9.671	0.504
364.000	236.379	80.003	20.008	100.622	20.104	9.492	0.586
366.000	237.387	80.002	20.008	100.620	20.104	9.441	0.515
368.000	238.381	80.003	20.008	100.604	20.105	9.322	0.502
370.000	239.448	80.002	20.008	100.623	20.106	9.214	0.508
372.000	240.477	80.001	20.008	100.627	20.104	9.420	0.514
374.000	241.428	80.003	20.008	100.640	20.105	9.325	0.483
376.000	242.472	80.002	20.008	100.621	20.104	9.487	0.551
378.000	243.573	80.003	20.008	100.632	20.100	9.885	0.562
380.000	244.585	80.003	20.008	100.619	20.097	10.166	0.518
382.000	245.591	80.002	20.008	100.613	20.100	9.877	0.489
384.000	246.633	80.001	20.008	100.603	20.102	9.662	0.528
386.000	247.660	80.003	20.008	100.608	20.100	9.856	0.508
388.000	248.685	80.002	20.008	100.596	20.102	9.712	0.461
390.000	249.718	80.003	20.008	100.631	20.100	9.859	0.518
392.000	250.773	80.001	20.009	100.603	20.100	9.855	0.485
394.000	251.737	80.003	20.008	100.615	20.099	10.016	0.481
396.000	252.748	80.003	20.008	100.605	20.099	9.965	0.461
398.000	253.767	80.002	20.008	100.615	20.098	10.102	0.564
400.000	254.823	80.002	20.008	100.592	20.097	10.155	0.530
402.000	255.849	80.002	20.008	100.623	20.101	9.812	0.524
404.000	256.849	80.000	20.008	100.597	20.098	10.056	0.454
406.000	257.829	80.001	20.008	100.601	20.095	10.437	0.511
408.000	258.850	80.003	20.008	100.583	20.094	10.449	0.523
410.000	259.875	80.003	20.008	100.625	20.089	11.062	0.506
412.000	260.857	80.001	20.008	100.586	20.091	10.811	0.532
414.000	261.840	80.002	20.008	100.591	20.089	11.062	0.460
416.000	262.845	80.002	20.008	100.575	20.089	11.013	0.491
418.000	263.905	80.002	20.008	100.604	20.090	10.927	0.480
420.000	264.866	80.003	20.008	100.567	20.088	11.078	0.513
422.000	265.839	80.002	20.008	100.603	20.085	11.417	0.490
424.000	266.865	80.002	20.008	100.596	20.084	11.510	0.519
426.000	267.821	80.003	20.009	100.585	20.079	12.043	0.474
428.000	268.825	80.003	20.008	100.546	20.073	12.664	0.471
430.000	269.858	80.001	20.008	100.568	20.070	12.980	0.542
432.000	270.886	80.004	20.008	100.551	20.068	13.224	0.523
434.000	271.920	80.003	20.008	100.584	20.068	13.219	0.502
436.000	272.905	80.002	20.008	100.585	20.062	13.815	0.533
438.000	273.908	80.003	20.008	100.626	20.061	13.930	0.493
440.000	274.890	80.003	20.008	100.610	20.060	14.072	0.491
442.000	275.924	80.003	20.008	100.629	20.058	14.277	0.546
444.000	276.930	80.003	20.008	100.587	20.055	14.570	0.515
446.000	277.971	80.003	20.008	100.595	20.051	14.931	0.512
448.000	278.971	80.002	20.008	100.585	20.048	15.274	0.466
450.000	279.997	80.004	20.008	100.614	20.045	15.571	0.521
452.000	280.905	80.003	20.007	100.578	20.045	15.588	0.450
454.000	281.930	80.002	20.008	100.598	20.041	16.052	0.504
456.001	282.971	80.003	20.008	100.576	20.038	16.297	0.539
458.000	283.985	80.003	20.008	100.596	20.038	16.307	0.509
460.000	284.960	80.004	20.008	100.581	20.033	16.806	0.506
462.000	286.000	80.002	20.008	100.597	20.035	16.676	0.548
464.000	286.961	80.003	20.008	100.581	20.029	17.236	0.483
466.000	287.970	80.001	20.008	100.612	20.025	17.703	0.504
468.000	289.008	80.000	20.008	100.587	20.019	18.283	0.514
470.000	289.987	80.002	20.008	100.580	20.015	18.680	0.531
472.000	291.032	80.002	20.008	100.544	20.012	19.073	0.508
474.000	292.020	80.002	20.008	100.570	20.009	19.399	0.505
476.000	293.005	80.001	20.008	100.560	20.010	19.204	0.469
478.000	294.078	80.002	20.008	100.576	20.010	19.271	0.525
480.000	295.028	80.002	20.008	100.583	20.006	19.705	0.477
482.000	296.031	80.003	20.008	100.583	20.005	19.802	0.461
484.000	297.055	80.002	20.008	100.583	20.004	19.834	0.543
486.000	298.065	80.001	20.008	100.587	20.000	20.248	0.517
488.000	299.084	80.001	20.007	100.587	19.997	20.576	0.508
490.000	300.090	80.002	20.008	100.595	19.998	20.517	0.492
492.000	301.060	80.003	20.007	100.612	19.996	20.666	0.468
494.000	302.150	80.002	20.008	100.590	19.997	20.610	0.564
496.000	303.083	80.004	20.009	100.606	19.992	21.130	0.507
498.000	304.110	80.003	20.008	100.568	19.989	21.410	0.489
500.000	305.086	80.002	20.008	100.597	19.986	21.744	0.474
502.000	305.977	80.003	20.008	100.587	19.980	22.370	0.459
504.000	307.102	80.001	20.008	100.608	19.975	22.885	0.452
506.000	308.039	80.004	20.008	100.609	19.970	23.468	0.542
508.000	309.000	80.002	20.008	100.611	19.963	24.138	0.510
510.000	310.037	80.003	20.008	100.614	19.956	24.933	0.515
512.000	311.003	80.003	20.008	100.608	19.950	25.531	0.534
514.000	312.053	80.004	20.008	100.615	19.940	26.525	0.508
516.001	313.062	80.004	20.009	100.615	19.927	27.902	0.486
518.000	314.004	80.006	20.009	100.601	19.917	28.909	0.457
520.000	315.040	80.003	20.008	100.585	19.903	30.391	0.514
522.000	316.071	80.004	20.008	100.592	19.887	32.085	0.500
524.000	317.060	80.005	20.009	100.582	19.873	33.498	0.533
526.000	318.041	80.003	20.008	100.598	19.861	34.786	0.518
528.000	319.159	80.003	20.009	100.572	19.843	36.647	0.532
530.000	320.131	80.003	20.009	100.594	19.828	38.232	0.489
532.000	321.103	80.003	20.009	100.569	19.806	40.484	0.485
534.000	322.185	80.002	20.009	100.575	19.786	42.638	0.546
536.000	323.095	80.002	20.009	100.554	19.765	44.759	0.460
538.000	324.131	80.003	20.008	100.573	19.742	47.185	0.475
540.000	325.111	80.003	20.008	100.594	19.718	49.713	0.477
542.000	326.145	80.003	20.008	100.582	19.695	52.115	0.496
544.000	327.113	80.003	20.008	100.587	19.669	54.820	0.475
546.000	328.084	80.002	20.009	100.548	19.638	58.004	0.460
548.000	329.007	80.004	20.008	100.563	19.606	61.369	0.451
550.000	330.027	80.002	20.009	100.551	19.569	65.226	0.472
552.000	330.995	80.002	20.008	100.579	19.532	69.035	0.505
554.000	331.960	80.002	20.008	100.568	19.494	73.001	0.496
556.001	332.916	80.003	20.008	100.562	19.460	76.606	0.474
558.001	333.963	80.004	20.008	100.532	19.420	80.747	0.508
560.000	334.908	80.003	20.008	100.566	19.378	85.127	0.509
562.000	335.894	80.004	20.008	100.559	19.334	89.751	0.515
564.001	336.883	80.003	20.008	100.570	19.289	94.410	0.508
566.000	337.800	80.003	20.008	100.581	19.248	98.587	0.467
568.001	338.813	80.002	20.009	100.557	19.201	103.509	0.513
570.000	339.831	80.002	20.008	100.591	19.142	109.679	0.499
572.000	340.810	80.003	20.009	100.577	19.077	116.485	0.513
574.000	341.730	80.002	20.008	100.595	19.022	122.222	0.469
576.000	342.747	80.002	20.008	100.572	18.978	126.851	0.493
578.000	343.746	80.003	20.008	100.550	18.935	131.342	0.494
580.000	344.714	80.003	20.008	100.499	18.887	136.386	0.483
582.000	345.709	80.002	20.009	100.494	18.833	141.927	0.455
584.000	346.703	80.002	20.009	100.542	18.787	146.819	0.504
586.000	347.645	80.003	20.008	100.571	18.739	151.776	0.472
588.000	348.612	80.002	20.008	100.607	18.702	155.717	0.493
590.000	349.577	80.002	20.009	100.591	18.665	159.650	0.505
592.000	350.628	80.003	20.008	100.593	18.634	162.832	0.526
594.000	351.601	80.001	20.008	100.576	18.602	166.162	0.523
596.000	352.572	80.002	20.009	100.600	18.569	169.678	0.484
598.000	353.571	80.001	20.008	100.614	18.543	172.338	0.490
600.000	354.550	80.003	20.008	100.622	18.516	175.129	0.470
602.000	355.540	80.003	20.008	100.644	18.487	178.131	0.520
604.000	356.533	80.002	20.008	100.674	18.453	181.594	0.496
606.000	357.569	80.003	20.008	100.661	18.410	186.150	0.511
608.000	358.553	80.002	20.008	100.688	18.372	190.074	0.485
610.000	359.599	80.001	20.008	100.673	18.336	193.885	0.508
612.000	360.583	80.004	20.008	100.679	18.295	198.078	0.491
614.000	361.635	80.004	20.008	100.652	18.260	201.687	0.503
616.000	362.647	80.001	20.009	100.649	18.233	204.656	0.504
618.000	363.693	80.003	20.009	100.599	18.210	207.156	0.492
620.000	364.708	80.003	20.008	100.638	18.194	208.748	0.498
622.000	365.713	80.003	20.008	100.628	18.193	209.063	0.509
624.000	366.683	80.001	20.007	100.630	18.221	206.132	0.498
626.000	367.750	80.003	20.008	100.588	18.235	204.742	0.513
628.000	368.794	80.003	20.009	100.597	18.247	203.441	0.508
630.000	369.793	80.002	20.010	100.650	18.282	199.799	0.512
632.000	370.794	80.003	20.007	100.692	18.316	196.096	0.477
634.000	371.803	80.003	20.009	100.673	18.332	194.409	0.507
636.000	372.798	80.004	20.009	100.777	18.349	192.679	0.502
638.000	373.823	80.001	20.010	100.768	18.368	190.754	0.549
640.000	374.865	80.001	20.008	100.768	18.399	187.553	0.547
642.000	375.850	80.002	20.010	100.787	18.443	182.922	0.526
644.000	376.838	80.002	20.008	100.740	18.485	178.459	0.515
646.000	377.851	80.002	20.009	100.677	18.527	174.168	0.514
648.000	378.829	80.003	20.007	100.707	18.574	169.181	0.492
650.000	379.845	80.004	20.009	100.732	18.624	164.029	0.494
652.000	380.898	80.003	20.008	100.712	18.676	158.597	0.546
654.000	381.898	80.002	20.009	100.756	18.725	153.464	0.480
656.000	382.900	80.001	20.009	100.729	18.779	147.867	0.514
658.000	383.935	80.002	20.008	100.761	18.822	143.327	0.528
660.000	384.994	80.003	20.009	100.744	18.870	138.322	0.543
662.000	386.010	80.003	20.008	100.759	18.918	133.285	0.542
664.000	386.985	80.002	20.008	100.766	18.967	128.209	0.501
666.000	388.100	80.002	20.008	100.784	19.013	123.362	0.559
668.000	389.083	80.003	20.009	100.754	19.057	118.728	0.495
670.000	390.153	80.002	20.008	100.767	19.102	113.996	0.490
672.000	391.230	80.003	20.008	100.742	19.146	109.471	0.555
674.000	392.279	80.003	20.008	100.742	19.188	104.988	0.529
676.000	393.273	80.003	20.008	100.704	19.233	100.399	0.478
678.001	394.305	80.002	20.009	100.720	19.279	95.544	0.511
680.000	395.275	80.004	20.008	100.706	19.330	90.254	0.484
682.000	396.271	80.001	20.009	100.709	19.377	85.300	0.524
684.000	397.220	80.001	20.008	100.697	19.427	80.111	0.463
686.000	398.227	80.002	20.008	100.679	19.480	74.561	0.502
688.000	399.131	80.002	20.008	100.686	19.526	69.768	0.472
690.000	400.094	80.000	20.008	100.687	19.574	64.780	0.478
692.000	401.084	80.002	20.008	100.689	19.617	60.277	0.468
694.000	402.111	80.002	20.008	100.675	19.661	55.679	0.505
696.000	403.145	80.002	20.008	100.709	19.700	51.623	0.501
698.000	404.052	80.004	20.008	100.682	19.734	48.027	0.497
700.000	404.916	80.002	20.008	100.686	19.775	43.784	0.476
702.000	405.902	80.002	20.008	100.698	19.805	40.647	0.497
704.000	406.885	80.003	20.008	100.713	19.830	38.079	0.467
706.000	407.831	80.002	20.008	100.678	19.857	35.267	0.458
708.000	408.779	80.001	20.008	100.677	19.887	32.115	0.498
710.000	409.811	80.001	20.008	100.660	19.911	29.630	0.483
712.000	410.802	80.002	20.008	100.684	19.933	27.328	0.495
714.000	411.757	80.003	20.008	100.652	19.950	25.509	0.497
716.000	412.730	80.001	20.008	100.629	19.967	23.726	0.474
718.000	413.725	80.001	20.008	100.620	19.982	22.157	0.502
720.000	414.638	80.001	20.008	100.638	20.004	19.882	0.441
722.000	415.618	80.002	20.007	100.649	20.013	18.968	0.461
724.000	416.643	80.003	20.008	100.648	20.025	17.732	0.489
726.000	417.647	80.001	20.008	100.618	20.033	16.803	0.474
728.000	418.695	80.002	20.008	100.581	20.043	15.764	0.537
730.000	419.691	80.002	20.008	100.602	20.053	14.765	0.544
732.000	420.636	80.003	20.008	100.591	20.062	13.862	0.487
734.000	421.626	80.002	20.008	100.591	20.068	13.174	0.501
736.000	422.668	80.001	20.008	100.584	20.071	12.849	0.511
738.000	423.641	80.004	20.008	100.579	20.078	12.178	0.499
740.000	424.651	80.002	20.008	100.566	20.081	11.888	0.510
742.000	425.606	80.002	20.008	100.566	20.088	11.074	0.526
744.000	426.653	80.002	20.008	100.551	20.087	11.178	0.515
746.000	427.675	80.003	20.008	100.564	20.096	10.310	0.543
748.000	428.689	80.002	20.008	100.554	20.097	10.229	0.522
750.000	429.670	80.002	20.008	100.557	20.099	9.937	0.538
752.000	430.609	80.002	20.008	100.545	20.103	9.540	0.486
754.000	431.627	80.001	20.008	100.544	20.105	9.352	0.444
756.000	432.589	80.002	20.008	100.520	20.108	9.033	0.492
758.000	433.602	80.002	20.008	100.559	20.111	8.670	0.552
760.000	434.549	80.002	20.008	100.552	20.115	8.343	0.464
762.000	435.514	80.002	20.009	100.571	20.116	8.227	0.503
764.000	436.505	80.002	20.008	100.562	20.118	8.012	0.471
766.000	437.515	80.002	20.009	100.563	20.118	8.038	0.502
768.000	438.502	80.002	20.008	100.509	20.117	8.141	0.469
770.000	439.469	80.003	20.008	100.508	20.122	7.600	0.431
772.000	440.523	80.002	20.009	100.528	20.124	7.320	0.546
774.000	441.548	80.001	20.008	100.555	20.127	7.082	0.526
776.000	442.542	80.001	20.007	100.538	20.126	7.171	0.496
778.000	443.447	80.002	20.008	100.543	20.128	6.961	0.456
780.000	444.465	80.001	20.007	100.555	20.129	6.804	0.492
782.000	445.463	80.001	20.008	100.548	20.131	6.645	0.517
784.000	446.393	80.003	20.008	100.559	20.133	6.384	0.428
786.000	447.479	80.002	20.008	100.561	20.134	6.292	0.555
788.000	448.443	80.002	20.008	100.564	20.136	6.102	0.507
790.000	449.457	80.002	20.008	100.537	20.135	6.260	0.493
792.000	450.412	80.000	20.008	100.534	20.135	6.235	0.508
794.000	451.429	80.001	20.008	100.536	20.139	5.847	0.517
796.000	452.379	80.001	20.008	100.555	20.138	5.938	0.483
798.000	453.374	80.003	20.008	100.536	20.135	6.173	0.495
800.000	454.335	80.004	20.008	100.549	20.138	5.881	0.450
802.000	455.382	80.002	20.008	100.543	20.139	5.772	0.498
804.000	456.335	80.002	20.008	100.563	20.139	5.779	0.479
806.000	457.297	80.003	20.008	100.541	20.133	6.399	0.479
808.000	458.304	80.002	20.008	100.545	20.136	6.085	0.481
810.000	459.330	80.003	20.008	100.528	20.133	6.403	0.551
812.000	460.310	80.002	20.008	100.545	20.132	6.542	0.522
814.000	461.254	80.003	20.008	100.512	20.132	6.478	0.494
816.000	462.270	80.002	20.009	100.528	20.134	6.323	0.475
818.000	463.282	80.003	20.008	100.520	20.134	6.348	0.507
820.000	464.215	80.002	20.008	100.527	20.134	6.314	0.499
822.000	465.166	80.002	20.008	100.513	20.131	6.604	0.477
824.000	466.104	80.004	20.008	100.514	20.132	6.546	0.493
826.000	467.092	80.003	20.008	100.493	20.127	7.024	0.456
828.000	468.056	80.003	20.008	100.485	20.128	6.929	0.464
830.000	468.995	80.003	20.008	100.473	20.126	7.168	0.466
832.000	469.997	80.001	20.008	100.482	20.122	7.559	0.507
834.000	470.969	80.002	20.008	100.475	20.127	7.098	0.482
836.000	471.951	80.002	20.008	100.525	20.127	7.005	0.485
838.000	472.899	80.002	20.008	100.520	20.134	6.278	0.464
840.000	473.830	80.001	20.008	100.530	20.131	6.663	0.446
842.000	474.779	80.000	20.008	100.499	20.136	6.155	0.453
844.000	475.732	80.002	20.008	100.542	20.134	6.352	0.455
846.000	476.702	80.002	20.008	100.528	20.140	5.736	0.480
848.000	477.636	80.001	20.008	100.532	20.133	6.409	0.509
850.000	478.631	80.003	20.008	100.515	20.132	6.569	0.479
852.001	479.586	80.003	20.008	100.511	20.133	6.442	0.471
854.000	480.539	80.002	20.008	100.522	20.133	6.437	0.476
856.000	481.469	80.002	20.008	100.519	20.132	6.554	0.486
858.000	482.504	80.002	20.008	100.552	20.131	6.628	0.487
860.000	483.517	80.004	20.008	100.501	20.130	6.725	0.532
862.000	484.539	80.003	20.008	100.521	20.135	6.250	0.562
864.000	485.439	80.004	20.008	100.501	20.136	6.119	0.444
866.000	486.422	80.003	20.008	100.528	20.136	6.113	0.490
868.000	487.400	80.004	20.008	100.504	20.135	6.209	0.470
870.000	488.387	80.003	20.008	100.531	20.135	6.215	0.489
872.001	489.336	80.003	20.008	100.518	20.134	6.282	0.493
874.000	490.341	80.002	20.008	100.549	20.138	5.890	0.494
876.000	491.296	80.003	20.008	100.542	20.139	5.826	0.538
878.000	492.279	80.003	20.008	100.557	20.140	5.716	0.501
880.000	493.257	80.003	20.008	100.536	20.141	5.593	0.481
882.000	494.235	80.004	20.008	100.559	20.137	6.040	0.470
884.000	495.220	80.002	20.008	100.523	20.136	6.069	0.508
886.000	496.162	80.004	20.008	100.535	20.137	5.985	0.485
888.000	497.176	80.002	20.008	100.511	20.133	6.369	0.486
890.000	498.148	80.003	20.008	100.535	20.135	6.255	0.499
892.000	499.159	80.003	20.008	100.520	20.135	6.236	0.494
894.000	500.110	80.004	20.008	100.541	20.134	6.280	0.497
896.000	501.127	80.002	20.008	100.523	20.131	6.618	0.478
898.000	502.136	80.004	20.008	100.531	20.128	6.928	0.491
900.000	503.082	80.003	20.008	100.473	20.124	7.320	0.503
902.000	504.053	80.003	20.008	100.488	20.126	7.169	0.523
904.000	504.971	80.003	20.008	100.475	20.127	7.070	0.499
906.000	505.965	80.003	20.008	100.507	20.126	7.124	0.481
908.000	506.996	80.003	20.008	100.477	20.127	7.010	0.469
910.000	507.944	80.002	20.008	100.483	20.124	7.381	0.475
912.000	508.980	80.001	20.008	100.460	20.126	7.146	0.488
914.000	509.996	80.003	20.008	100.500	20.125	7.211	0.498
916.000	510.997	80.003	20.008	100.471	20.125	7.295	0.512
918.000	512.046	80.003	20.008	100.512	20.128	6.949	0.481
920.000	513.027	80.004	20.008	100.500	20.132	6.569	0.471
922.000	514.049	80.002	20.008	100.522	20.130	6.728	0.505
924.000	515.055	80.002	20.008	100.489	20.130	6.756	0.489
926.000	516.053	80.002	20.008	100.510	20.129	6.802	0.495
928.000	517.141	80.002	20.008	100.490	20.128	6.977	0.530
930.000	518.134	80.003	20.008	100.505	20.126	7.125	0.527
932.000	519.076	80.002	20.008	100.497	20.126	7.132	0.485
934.000	520.114	80.002	20.008	100.496	20.126	7.200	0.512
936.000	521.188	80.003	20.008	100.485	20.126	7.188	0.536
938.000	522.200	80.003	20.008	100.511	20.125	7.276	0.552
940.000	523.209	80.002	20.008	100.497	20.125	7.263	0.525
942.000	524.216	80.002	20.008	100.510	20.127	7.066	0.489
944.000	525.236	80.003	20.008	100.503	20.128	6.985	0.542
946.000	526.259	80.002	20.009	100.514	20.129	6.871	0.515
948.000	527.270	80.002	20.009	100.490	20.133	6.458	0.493
950.000	528.233	80.003	20.009	100.506	20.132	6.572	0.447
952.000	529.324	80.001	20.008	100.498	20.128	6.932	0.488
954.000	530.335	80.002	20.008	100.509	20.127	7.045	0.525
956.000	531.367	80.002	20.009	100.507	20.129	6.856	0.506
958.000	532.347	80.002	20.009	100.496	20.128	6.995	0.501
960.000	533.415	80.002	20.008	100.485	20.131	6.616	0.521
962.000	534.433	80.002	20.009	100.485	20.128	6.924	0.490
964.000	535.491	80.002	20.008	100.502	20.130	6.763	0.559
966.000	536.475	80.003	20.009	100.500	20.129	6.856	0.514
968.000	537.424	80.003	20.008	100.522	20.131	6.646	0.465
970.000	538.395	80.001	20.009	100.506	20.132	6.491	0.523
972.000	539.412	80.002	20.008	100.527	20.132	6.534	0.481
974.000	540.433	80.002	20.009	100.505	20.135	6.240	0.460
976.000	541.422	80.002	20.008	100.524	20.135	6.186	0.455
978.000	542.427	80.000	20.008	100.501	20.135	6.206	0.498
980.000	543.338	80.003	20.008	100.498	20.132	6.544	0.507
982.000	544.269	80.002	20.008	100.471	20.130	6.741	0.445
984.000	545.338	80.001	20.009	100.501	20.133	6.407	0.526
986.000	546.269	80.004	20.008	100.515	20.128	6.966	0.466
988.000	547.209	80.002	20.008	100.516	20.133	6.437	0.425
990.000	548.274	80.002	20.009	100.527	20.135	6.213	0.509
992.000	549.206	80.003	20.008	100.533	20.137	6.023	0.486
994.000	550.210	80.002	20.008	100.532	20.134	6.334	0.485
996.000	551.222	80.003	20.008	100.526	20.132	6.542	0.542
998.000	552.214	80.003	20.008	100.523	20.133	6.452	0.525
1000.000	553.173	80.002	20.008	100.504	20.131	6.596	0.473
1002.000	554.071	80.003	20.008	100.509	20.130	6.715	0.478
1004.000	555.141	80.004	20.009	100.511	20.131	6.657	0.527
1006.000	556.155	80.002	20.008	100.516	20.132	6.492	0.490
1008.000	557.139	80.004	20.008	100.503	20.130	6.694	0.506
1010.000	558.050	80.001	20.009	100.494	20.127	7.008	0.451
1012.000	559.030	80.003	20.009	100.479	20.127	7.100	0.498
1014.000	560.064	80.003	20.009	100.506	20.129	6.819	0.519
1016.000	561.071	80.002	20.009	100.511	20.130	6.716	0.528
1018.000	562.059	80.002	20.009	100.519	20.132	6.519	0.533
1020.000	563.139	80.002	20.008	100.509	20.131	6.594	0.517
1022.000	564.135	80.002	20.008	100.495	20.130	6.777	0.499
1024.001	565.115	80.001	20.009	100.514	20.126	7.194	0.488
1026.000	566.095	80.001	20.008	100.513	20.129	6.872	0.507
1028.001	567.112	80.003	20.008	100.517	20.131	6.596	0.472
1030.000	568.123	80.002	20.009	100.496	20.133	6.439	0.517
1032.000	569.112	80.003	20.009	100.534	20.131	6.587	0.545
1034.000	570.149	80.002	20.008	100.509	20.138	5.892	0.528
1036.000	571.161	80.003	20.009	100.539	20.137	5.969	0.516
1038.000	572.129	80.002	20.009	100.520	20.136	6.077	0.506
1040.000	573.040	80.001	20.009	100.526	20.138	5.905	0.455
1042.000	574.048	80.003	20.010	100.499	20.135	6.230	0.513
1044.000	574.988	80.003	20.009	100.521	20.135	6.257	0.464
1046.000	576.046	80.003	20.009	100.487	20.138	5.899	0.534
1048.001	576.974	80.003	20.009	100.501	20.134	6.358	0.475
1050.000	577.975	80.002	20.009	100.501	20.134	6.298	0.489
1052.000	578.955	80.002	20.009	100.501	20.134	6.273	0.491
1054.000	579.963	80.002	20.009	100.512	20.133	6.422	0.501
1056.000	580.960	80.001	20.009	100.503	20.136	6.093	0.510
1058.000	581.930	80.003	20.009	100.509	20.135	6.213	0.479
1060.000	582.886	80.002	20.009	100.478	20.132	6.531	0.514
1062.000	583.911	80.001	20.009	100.524	20.136	6.143	0.488
1064.000	584.908	80.002	20.009	100.539	20.138	5.922	0.471
1066.000	585.843	80.003	20.009	100.564	20.142	5.529	0.452
1068.001	586.890	80.001	20.009	100.537	20.140	5.705	0.540
1070.000	587.779	80.001	20.009	100.532	20.138	5.950	0.403
1072.000	588.836	80.002	20.009	100.493	20.137	5.987	0.516
1074.000	589.840	80.002	20.009	100.517	20.138	5.952	0.463
1076.000	590.768	80.003	20.009	100.513	20.137	6.019	0.513
1078.000	591.768	80.001	20.009	100.514	20.136	6.085	0.507
1080.000	592.717	80.003	20.009	100.536	20.133	6.406	0.479
1082.000	593.711	80.003	20.009	100.518	20.136	6.090	0.460
1084.000	594.740	80.002	20.009	100.533	20.136	6.093	0.489
1086.001	595.691	80.002	20.009	100.523	20.138	5.938	0.545
1088.000	596.676	80.003	20.009	100.527	20.137	5.979	0.521
1090.000	597.713	80.002	20.009	100.495	20.137	6.019	0.514
1092.000	598.688	80.002	20.009	100.519	20.137	6.048	0.494
1094.000	599.630	80.002	20.009	100.522	20.137	6.053	0.493
1096.001	600.589	80.001	20.009	100.525	20.137	5.976	0.483
1098.000	601.598	80.002	20.009	100.526	20.138	5.870	0.491
1100.000	602.631	80.001	20.009	100.535	20.137	5.956	0.494
1102.000	603.625	80.002	20.010	100.534	20.141	5.601	0.521
1104.000	604.534	80.002	20.009	100.528	20.144	5.235	0.497
1106.000	605.583	80.003	20.009	100.546	20.141	5.598	0.526
1108.000	606.503	80.003	20.009	100.513	20.140	5.672	0.481
1110.001	607.435	80.003	20.009	100.515	20.137	6.020	0.478
1112.000	608.429	80.002	20.009	100.482	20.135	6.242	0.477
1114.000	609.333	80.003	20.009	100.498	20.132	6.514	0.473
1116.000	610.314	80.003	20.009	100.480	20.135	6.259	0.515
1118.000	611.352	80.001	20.009	100.510	20.134	6.350	0.510
1120.000	612.395	80.002	20.009	100.501	20.138	5.929	0.512
1122.000	613.339	80.004	20.009	100.531	20.135	6.171	0.513
1124.000	614.329	80.003	20.009	100.513	20.138	5.898	0.495
1126.000	615.380	80.002	20.009	100.526	20.136	6.129	0.522
1128.001	616.375	80.002	20.009	100.495	20.137	6.053	0.498
1130.001	617.390	80.001	20.009	100.511	20.136	6.061	0.495
1132.001	618.425	80.002	20.009	100.490	20.139	5.845	0.473
1134.000	619.472	80.002	20.009	100.525	20.139	5.816	0.523
1136.000	620.530	80.001	20.009	100.502	20.139	5.780	0.541
1138.001	621.533	80.002	20.009	100.518	20.140	5.665	0.498
1140.000	622.595	80.002	20.009	100.509	20.144	5.283	0.515
1142.000	623.592	80.002	20.009	100.526	20.145	5.189	0.485
1144.000	624.559	80.002	20.009	100.502	20.145	5.211	0.462
1146.000	625.550	80.002	20.009	100.508	20.141	5.542	0.485
1148.000	626.572	80.002	20.009	100.515	20.143	5.377	0.521
1150.000	627.526	80.003	20.009	100.524	20.142	5.521	0.508
1152.000	628.580	80.003	20.009	100.528	20.139	5.807	0.480
1154.000	629.491	80.003	20.009	100.534	20.139	5.827	0.526
1156.000	630.555	80.002	20.009	100.515	20.140	5.703	0.513
1158.000	631.536	80.002	20.009	100.497	20.140	5.740	0.536
1160.000	632.517	80.004	20.009	100.510	20.137	6.006	0.518
1162.000	633.463	80.001	20.010	100.514	20.140	5.681	0.456
1164.000	634.482	80.002	20.009	100.516	20.141	5.570	0.524
1166.000	635.421	80.003	20.009	100.530	20.141	5.598	0.495
1168.000	636.343	80.002	20.009	100.510	20.143	5.332	0.450
1170.000	637.337	80.002	20.009	100.532	20.145	5.129	0.466
1172.000	638.330	80.002	20.009	100.529	20.149	4.808	0.465
1174.000	639.330	80.002	20.010	100.542	20.146	5.083	0.468
1176.000	640.324	80.002	20.009	100.536	20.146	5.083	0.500
1178.001	641.292	80.002	20.009	100.559	20.145	5.145	0.481
1180.000	642.312	80.002	20.009	100.532	20.149	4.753	0.502
1182.000	643.331	80.002	20.009	100.558	20.150	4.692	0.529
1184.000	644.297	80.003	20.010	100.534	20.146	5.088	0.465
1186.000	645.321	80.003	20.009	100.556	20.143	5.364	0.460
1188.001	646.286	80.003	20.009	100.514	20.142	5.493	0.532
1190.000	647.291	80.003	20.009	100.516	20.139	5.824	0.420
1192.000	648.203	80.003	20.009	100.500	20.140	5.667	0.486
1194.001	649.449	80.003	20.010	100.526	20.137	6.003	0.513
1196.000	650.314	80.003	20.009	100.509	20.139	5.830	0.537
1198.000	651.345	80.003	20.009	100.535	20.140	5.707	0.497
1200.000	652.331	80.003	20.009	100.516	20.141	5.549	0.513
1202.000	653.344	80.002	20.009	100.536	20.141	5.575	0.504
1204.000	654.412	80.001	20.009	100.510	20.145	5.172	0.547
1206.000	655.429	80.003	20.009	100.541	20.145	5.198	0.534
1208.000	656.415	80.003	20.009	100.517	20.143	5.405	0.512
1210.000	657.403	80.003	20.009	100.535	20.145	5.214	0.495
1212.000	658.446	80.001	20.009	100.548	20.144	5.268	0.521
1214.000	659.459	80.003	20.009	100.548	20.144	5.255	0.505
1216.000	660.439	80.002	20.008	100.541	20.143	5.394	0.490
1218.000	661.521	80.002	20.009	100.537	20.142	5.457	0.523
1220.000	662.556	80.002	20.009	100.545	20.139	5.745	0.542
1222.001	663.610	80.003	20.009	100.502	20.140	5.713	0.513
1224.000	664.562	80.001	20.009	100.521	20.141	5.545	0.483
1226.001	665.617	80.003	20.009	100.501	20.142	5.505	0.545
1228.000	666.669	80.002	20.009	100.523	20.140	5.664	0.517
1230.001	667.585	80.002	20.009	100.493	20.145	5.188	0.481
1232.000	668.648	80.002	20.009	100.502	20.141	5.556	0.535
1234.001	669.636	80.000	20.009	100.485	20.141	5.594	0.471
1236.000	670.697	80.002	20.009	100.529	20.142	5.474	0.502
1238.000	671.740	80.002	20.010	100.534	20.144	5.275	0.525
1240.000	672.814	80.002	20.010	100.541	20.147	4.998	0.558
1242.000	673.763	80.002	20.010	100.523	20.150	4.637	0.523
1244.000	674.862	80.002	20.009	100.562	20.151	4.508	0.503
1246.000	675.943	80.003	20.009	100.542	20.151	4.506	0.533
1248.000	676.917	80.002	20.009	100.510	20.148	4.835	0.500
1250.000	677.881	80.003	20.010	100.517	20.150	4.640	0.516
1252.000	678.909	80.001	20.009	100.531	20.146	5.090	0.518
1254.000	679.851	80.001	20.009	100.558	20.145	5.145	0.463
1256.000	680.796	80.001	20.010	100.517	20.145	5.204	0.467
1258.000	681.764	80.002	20.010	100.550	20.145	5.130	0.453
1260.000	682.787	80.001	20.010	100.519	20.148	4.860	0.489
1262.000	683.732	80.002	20.009	100.546	20.153	4.349	0.477
1264.000	684.692	80.002	20.010	100.536	20.151	4.498	0.456
1266.000	685.634	80.002	20.009	100.559	20.152	4.450	0.476
1268.000	686.549	80.002	20.009	100.530	20.152	4.421	0.438
1270.000	687.507	80.003	20.009	100.552	20.150	4.641	0.466
1272.001	688.467	80.002	20.009	100.542	20.151	4.568	0.478
1274.001	689.434	80.002	20.009	100.545	20.151	4.588	0.438
1276.001	690.446	80.003	20.010	100.520	20.145	5.131	0.471
1278.000	691.405	80.002	20.010	100.524	20.144	5.255	0.486
1280.000	692.397	80.002	20.009	100.520	20.145	5.156	0.514
1282.000	693.395	80.002	20.009	100.536	20.145	5.203	0.483
1284.000	694.410	80.002	20.010	100.544	20.140	5.665	0.508
1286.000	695.413	80.003	20.009	100.506	20.141	5.641	0.514
1288.000	696.413	80.002	20.009	100.509	20.137	6.044	0.508
1290.000	697.427	80.004	20.009	100.487	20.139	5.830	0.498
1292.000	698.461	80.002	20.009	100.519	20.140	5.725	0.505
1294.000	699.466	80.002	20.009	100.502	20.143	5.407	0.484
1296.000	700.489	80.002	20.008	100.552	20.138	5.865	0.489
1298.000	701.495	80.002	20.009	100.521	20.146	5.115	0.508
1300.001	702.552	80.002	20.008	100.528	20.141	5.589	0.549
1302.000	703.531	80.003	20.009	100.507	20.140	5.738	0.542
1304.001	704.543	80.002	20.010	100.525	20.137	5.990	0.519
1306.000	705.660	80.002	20.009	100.510	20.139	5.764	0.506
1308.001	706.710	80.001	20.009	100.527	20.139	5.851	0.536
1310.000	707.769	80.002	20.008	100.534	20.139	5.825	0.533
1312.000	708.814	80.002	20.008	100.529	20.139	5.756	0.545
1314.001	709.907	80.001	20.009	100.520	20.141	5.538	0.501
1316.000	711.009	80.003	20.008	100.526	20.140	5.709	0.545
1318.000	712.038	80.002	20.009	100.519	20.140	5.715	0.529
1320.001	713.064	80.003	20.008	100.524	20.141	5.569	0.518
1322.000	714.127	80.001	20.010	100.526	20.143	5.369	0.510
1324.000	715.218	80.002	20.009	100.508	20.142	5.498	0.534
1326.000	716.276	80.003	20.009	100.516	20.146	5.098	0.558
1328.000	717.284	80.002	20.008	100.505	20.140	5.710	0.529
1330.000	718.418	80.001	20.009	100.516	20.144	5.325	0.511
1332.000	719.397	80.002	20.008	100.513	20.145	5.205	0.520
1334.000	720.439	80.002	20.009	100.514	20.142	5.514	0.508
1336.000	721.463	80.003	20.008	100.499	20.142	5.533	0.515
1338.000	722.490	80.001	20.009	100.514	20.142	5.467	0.495
1340.000	723.525	80.001	20.009	100.505	20.144	5.325	0.528
1342.001	724.549	80.003	20.010	100.547	20.145	5.210	0.570
1344.000	725.545	80.002	20.009	100.526	20.143	5.393	0.511
1346.001	726.622	80.003	20.010	100.515	20.144	5.281	0.518
1348.000	727.627	80.003	20.009	100.502	20.145	5.223	0.517
1350.000	728.635	80.001	20.010	100.530	20.145	5.145	0.516
1352.000	729.616	80.002	20.010	100.527	20.146	5.075	0.508
1354.001	730.709	80.002	20.010	100.548	20.145	5.140	0.502
1356.000	731.645	80.002	20.009	100.530	20.148	4.834	0.462
1358.000	732.714	80.002	20.009	100.523	20.148	4.829	0.551
1360.000	733.663	80.003	20.009	100.499	20.145	5.192	0.480
1362.000	734.683	80.002	20.010	100.530	20.147	4.982	0.523
1364.001	735.749	80.001	20.009	100.516	20.146	5.103	0.552
1366.000	736.687	80.002	20.009	100.537	20.148	4.858	0.478
1368.000	737.676	80.003	20.009	100.532	20.151	4.569	0.480
1370.001	738.701	80.001	20.009	100.548	20.148	4.907	0.505
1372.000	739.769	80.002	20.010	100.515	20.147	5.012	0.569
1374.000	740.736	80.002	20.009	100.555	20.147	4.941	0.480
1376.000	741.667	80.002	20.009	100.536	20.147	4.975	0.476
1378.000	742.676	80.002	20.009	100.554	20.148	4.896	0.503
1380.000	743.567	80.001	20.009	100.521	20.146	5.081	0.477
1381.000	744.108	80.002	20.009	100.521	20.144	5.326	0.543