File: Experiments/TUBS/mcc/mcc_piece_2mg_dyn30_r3.txt
Sample Weight (mg):	1.96
Heating Rate (C/s):	0.5
Combustor Temp (C):	900
N2 Flow Rate (cc/min):	80
O2 Flow Rate (cc/min):	20
Time (s)	Temperature (C)	N2 flow rate (cc/min)	O2 flow rate (cc/min)	Flow Rate (cc/min)	Oxygen (%)	HRR (W/g)	Heating rate (C/s)
0.000	86.968	80.001	20.008	100.189	20.111	-0.081	-0.024
2.000	86.972	80.001	20.009	100.286	20.108	0.374	0.032
4.000	86.941	80.000	20.009	100.154	20.112	-0.341	-0.004
6.000	86.938	80.001	20.009	100.202	20.111	-0.189	-0.001
8.000	86.939	80.000	20.009	100.216	20.112	-0.334	-0.007
10.000	86.941	80.001	20.009	100.242	20.113	-0.432	-0.021
12.001	86.946	80.001	20.009	100.235	20.112	-0.310	-0.009
14.001	86.995	80.001	20.009	100.250	20.107	0.506	-0.001
16.001	87.073	80.001	20.009	100.277	20.105	0.742	0.044
18.000	87.084	80.000	20.009	100.277	20.103	1.096	0.032
20.000	87.194	80.001	20.009	100.288	20.100	1.642	0.090
22.001	87.258	80.000	20.009	100.284	20.100	1.555	0.042
24.000	87.387	80.001	20.009	100.291	20.098	1.947	0.018
26.000	87.530	79.999	20.009	100.259	20.096	2.251	0.072
28.000	87.678	80.002	20.009	100.239	20.097	2.084	0.078
30.000	87.859	80.002	20.008	100.255	20.094	2.577	0.071
32.000	87.986	80.000	20.008	100.259	20.093	2.744	0.119
34.000	88.194	79.999	20.008	100.260	20.090	3.217	0.073
36.000	88.342	80.001	20.009	100.290	20.087	3.755	0.104
38.000	88.590	80.001	20.009	100.346	20.082	4.556	0.087
40.000	88.924	80.001	20.009	100.375	20.078	5.168	-0.021
42.001	89.120	80.000	20.009	100.428	20.072	6.053	0.153
44.001	89.374	79.999	20.008	100.415	20.068	6.736	0.162
46.000	89.722	80.001	20.009	100.457	20.061	7.760	0.176
48.000	90.116	80.001	20.009	100.477	20.059	8.173	0.215
50.000	90.520	80.000	20.009	100.472	20.056	8.665	0.226
52.000	91.007	80.001	20.010	100.476	20.058	8.383	0.232
54.001	91.505	80.001	20.009	100.460	20.055	8.788	0.239
56.000	92.018	80.001	20.009	100.477	20.057	8.441	0.288
58.000	92.570	80.001	20.009	100.438	20.058	8.278	0.282
60.000	93.150	80.001	20.009	100.443	20.057	8.440	0.308
62.000	93.702	80.000	20.009	100.415	20.059	8.221	0.291
64.000	94.294	80.000	20.009	100.445	20.058	8.323	0.323
66.001	94.886	80.000	20.009	100.435	20.056	8.575	0.311
68.000	95.559	80.001	20.009	100.454	20.056	8.648	0.300
70.000	96.183	80.000	20.009	100.441	20.054	8.943	0.360
72.000	96.897	80.002	20.009	100.457	20.053	9.063	0.344
74.000	97.638	80.000	20.009	100.445	20.053	9.047	0.401
76.000	98.352	80.000	20.009	100.456	20.052	9.345	0.338
78.000	99.165	79.999	20.009	100.458	20.050	9.615	0.396
80.000	99.942	80.001	20.009	100.477	20.049	9.721	0.385
82.000	100.730	80.001	20.009	100.475	20.049	9.754	0.397
84.000	101.546	80.001	20.009	100.462	20.054	9.039	0.397
86.001	102.431	80.001	20.009	100.464	20.049	9.720	0.437
88.001	103.278	80.000	20.009	100.465	20.051	9.398	0.419
90.000	104.185	80.001	20.009	100.475	20.049	9.684	0.494
92.000	105.079	79.999	20.009	100.466	20.048	9.972	0.442
94.000	105.935	80.001	20.009	100.483	20.051	9.498	0.420
96.001	106.917	80.001	20.008	100.469	20.051	9.388	0.463
98.000	107.824	80.001	20.009	100.482	20.049	9.833	0.431
100.000	108.861	80.000	20.009	100.477	20.050	9.603	0.484
102.000	109.841	80.002	20.009	100.481	20.051	9.495	0.501
104.000	110.880	80.000	20.009	100.485	20.050	9.575	0.515
106.010	111.896	80.000	20.009	100.473	20.051	9.471	0.526
108.007	112.873	80.001	20.009	100.496	20.050	9.548	0.480
110.008	113.977	80.000	20.009	100.477	20.050	9.549	0.557
112.006	115.085	80.000	20.009	100.498	20.051	9.374	0.564
114.005	116.092	80.001	20.009	100.477	20.050	9.589	0.491
116.001	117.226	80.001	20.009	100.488	20.051	9.454	0.573
118.007	118.335	80.000	20.008	100.470	20.050	9.604	0.562
120.001	119.452	80.001	20.009	100.485	20.051	9.483	0.572
122.004	120.585	79.999	20.009	100.473	20.051	9.465	0.596
124.007	121.704	80.001	20.009	100.475	20.055	8.791	0.576
126.013	122.848	80.001	20.008	100.469	20.054	8.942	0.593
128.001	124.023	80.000	20.010	100.460	20.057	8.527	0.593
130.005	125.135	80.002	20.009	100.451	20.058	8.262	0.575
132.009	126.219	80.000	20.009	100.458	20.060	7.966	0.553
134.006	127.430	80.000	20.009	100.482	20.058	8.266	0.594
136.007	128.609	80.001	20.009	100.475	20.063	7.580	0.574
138.011	129.794	80.001	20.009	100.481	20.062	7.707	0.605
140.007	130.973	80.000	20.009	100.434	20.060	7.932	0.616
142.010	132.114	80.002	20.009	100.431	20.059	8.218	0.577
144.007	133.318	80.001	20.009	100.398	20.061	7.873	0.558
146.007	134.476	80.001	20.009	100.438	20.066	6.988	0.556
148.009	135.736	80.001	20.009	100.415	20.064	7.299	0.563
150.014	136.859	80.000	20.009	100.404	20.063	7.534	0.601
152.003	138.062	80.001	20.009	100.418	20.066	7.077	0.623
154.001	139.228	80.001	20.009	100.408	20.063	7.576	0.578
156.000	140.405	80.000	20.009	100.420	20.064	7.300	0.632
158.000	141.604	80.000	20.009	100.393	20.063	7.474	0.603
160.000	142.707	80.001	20.009	100.418	20.063	7.475	0.548
162.000	143.996	80.001	20.010	100.406	20.065	7.149	0.606
164.000	145.210	80.001	20.009	100.443	20.067	6.862	0.586
166.000	146.325	80.001	20.009	100.408	20.067	6.823	0.523
168.000	147.480	80.001	20.009	100.390	20.067	6.907	0.575
170.000	148.632	80.000	20.009	100.381	20.067	6.922	0.547
172.000	149.836	80.002	20.010	100.382	20.070	6.472	0.581
174.000	151.024	80.001	20.009	100.382	20.071	6.313	0.577
176.000	152.180	80.001	20.009	100.385	20.070	6.387	0.597
178.000	153.318	80.001	20.008	100.417	20.070	6.403	0.564
180.000	154.507	80.001	20.009	100.378	20.071	6.284	0.571
182.000	155.659	80.001	20.009	100.370	20.071	6.228	0.567
184.000	156.818	80.000	20.009	100.357	20.070	6.422	0.564
186.000	157.955	80.000	20.009	100.364	20.070	6.390	0.552
188.000	159.120	80.000	20.008	100.348	20.069	6.502	0.566
190.000	160.243	79.999	20.009	100.349	20.067	6.799	0.567
192.000	161.434	80.000	20.008	100.359	20.070	6.391	0.584
194.000	162.563	80.000	20.009	100.363	20.068	6.731	0.564
196.000	163.684	80.002	20.008	100.360	20.070	6.354	0.552
198.000	164.818	79.999	20.009	100.354	20.073	5.940	0.586
200.000	165.944	80.001	20.008	100.359	20.076	5.386	0.531
202.000	167.081	80.000	20.009	100.344	20.070	6.427	0.561
204.000	168.109	80.001	20.009	100.367	20.072	6.022	0.493
206.000	169.204	80.001	20.009	100.359	20.072	6.132	0.531
208.000	170.343	80.002	20.009	100.336	20.072	6.008	0.581
210.000	171.399	80.000	20.009	100.320	20.073	5.844	0.545
212.001	172.534	80.001	20.009	100.317	20.075	5.670	0.541
214.000	173.614	79.999	20.008	100.330	20.073	5.844	0.516
216.000	174.729	80.000	20.009	100.338	20.073	5.987	0.566
218.000	175.777	79.999	20.009	100.332	20.073	5.954	0.535
220.000	176.867	79.999	20.008	100.331	20.074	5.784	0.548
222.000	177.920	80.000	20.009	100.324	20.073	5.980	0.524
224.000	179.018	80.001	20.009	100.316	20.071	6.311	0.541
226.000	180.029	80.000	20.009	100.317	20.070	6.409	0.493
228.000	181.120	80.000	20.008	100.319	20.071	6.260	0.518
230.000	182.191	80.001	20.009	100.330	20.071	6.193	0.548
232.000	183.210	80.000	20.008	100.343	20.073	5.875	0.512
234.000	184.248	80.000	20.009	100.310	20.067	6.932	0.520
236.000	185.367	80.001	20.009	100.335	20.066	6.999	0.522
238.000	186.361	80.000	20.009	100.317	20.066	6.982	0.502
240.000	187.403	80.001	20.009	100.330	20.065	7.130	0.502
242.000	188.441	80.000	20.009	100.311	20.064	7.370	0.545
244.000	189.464	79.999	20.009	100.331	20.063	7.512	0.550
246.000	190.447	80.000	20.008	100.308	20.063	7.509	0.476
248.000	191.524	80.000	20.009	100.324	20.065	7.232	0.528
250.000	192.489	80.000	20.009	100.304	20.068	6.777	0.470
252.000	193.494	80.000	20.009	100.323	20.065	7.154	0.493
254.000	194.519	80.000	20.009	100.308	20.066	7.022	0.500
256.000	195.571	80.000	20.009	100.328	20.066	7.110	0.547
258.000	196.619	80.002	20.008	100.315	20.066	7.012	0.541
260.000	197.581	80.000	20.009	100.341	20.064	7.282	0.507
262.000	198.573	79.999	20.009	100.321	20.066	7.019	0.497
264.000	199.608	79.999	20.009	100.329	20.064	7.424	0.509
266.000	200.616	79.999	20.009	100.301	20.064	7.364	0.537
268.000	201.670	79.999	20.009	100.322	20.064	7.316	0.499
270.000	202.642	79.999	20.009	100.299	20.066	7.086	0.496
272.000	203.664	79.999	20.009	100.317	20.066	7.092	0.516
274.000	204.686	79.999	20.009	100.304	20.066	7.082	0.500
276.000	205.655	80.000	20.009	100.331	20.064	7.345	0.461
278.000	206.697	80.000	20.009	100.312	20.065	7.116	0.498
280.000	207.694	80.001	20.009	100.332	20.064	7.381	0.539
282.000	208.688	80.000	20.008	100.304	20.064	7.376	0.465
284.000	209.725	80.001	20.009	100.309	20.065	7.245	0.532
286.000	210.712	80.000	20.009	100.290	20.064	7.353	0.472
288.000	211.710	79.999	20.009	100.303	20.063	7.547	0.487
290.000	212.712	80.000	20.008	100.295	20.062	7.646	0.506
292.000	213.756	80.000	20.009	100.302	20.065	7.139	0.562
294.000	214.742	80.000	20.009	100.283	20.065	7.227	0.532
296.000	215.745	80.001	20.009	100.317	20.064	7.297	0.508
298.000	216.765	80.001	20.008	100.305	20.065	7.262	0.513
300.000	217.783	80.001	20.009	100.305	20.067	6.819	0.532
302.000	218.804	80.000	20.008	100.301	20.066	7.066	0.513
304.000	219.764	79.999	20.009	100.300	20.061	7.841	0.444
306.000	220.787	80.000	20.008	100.290	20.061	7.798	0.520
308.000	221.827	80.000	20.009	100.289	20.064	7.386	0.563
310.000	222.816	79.999	20.008	100.312	20.062	7.615	0.494
312.000	223.842	80.000	20.009	100.306	20.063	7.567	0.505
314.000	224.846	80.001	20.009	100.317	20.064	7.389	0.491
316.000	225.863	80.001	20.009	100.302	20.066	6.971	0.484
318.000	226.904	79.999	20.008	100.311	20.064	7.271	0.518
320.000	227.849	80.000	20.008	100.300	20.066	6.957	0.435
322.000	228.833	80.000	20.008	100.311	20.064	7.270	0.507
324.000	229.843	80.000	20.009	100.288	20.065	7.238	0.512
326.000	230.909	80.000	20.008	100.303	20.062	7.733	0.519
328.000	231.890	80.001	20.009	100.301	20.064	7.310	0.515
330.000	232.911	79.999	20.009	100.303	20.063	7.508	0.495
332.000	233.929	80.001	20.009	100.294	20.063	7.488	0.498
334.000	234.929	80.000	20.009	100.301	20.062	7.635	0.523
336.000	235.955	80.000	20.008	100.295	20.061	7.760	0.518
338.000	236.915	80.000	20.009	100.308	20.062	7.665	0.496
340.000	237.902	80.001	20.008	100.316	20.061	7.871	0.484
342.000	238.918	79.999	20.009	100.315	20.064	7.278	0.470
344.000	239.873	80.001	20.008	100.318	20.065	7.129	0.471
346.000	240.935	80.001	20.009	100.304	20.062	7.664	0.537
348.000	241.953	80.001	20.009	100.300	20.060	7.949	0.513
350.000	242.965	80.000	20.009	100.289	20.060	7.956	0.505
352.000	243.965	80.000	20.008	100.300	20.063	7.557	0.518
354.000	245.014	79.999	20.008	100.296	20.064	7.326	0.517
356.000	245.997	80.001	20.008	100.304	20.064	7.395	0.521
358.000	247.022	80.001	20.009	100.301	20.063	7.565	0.523
360.000	248.056	80.001	20.009	100.317	20.066	7.048	0.534
362.000	249.052	80.000	20.008	100.295	20.063	7.556	0.496
364.000	250.014	80.001	20.009	100.293	20.067	6.884	0.479
366.000	251.026	79.999	20.009	100.299	20.064	7.387	0.507
368.000	252.059	80.000	20.009	100.299	20.066	7.035	0.504
370.000	253.075	80.000	20.008	100.299	20.063	7.497	0.500
372.000	254.077	80.000	20.009	100.291	20.062	7.594	0.502
374.000	255.076	80.000	20.008	100.319	20.059	8.082	0.500
376.000	256.115	80.002	20.009	100.309	20.061	7.785	0.493
378.000	257.094	80.001	20.008	100.325	20.062	7.621	0.497
380.000	258.160	80.000	20.009	100.307	20.064	7.293	0.539
382.000	259.148	80.000	20.008	100.335	20.066	6.985	0.473
384.000	260.130	80.001	20.008	100.336	20.067	6.923	0.465
386.000	261.167	80.000	20.008	100.337	20.065	7.239	0.513
388.000	262.139	79.998	20.008	100.289	20.061	7.787	0.498
390.000	263.117	80.000	20.008	100.285	20.061	7.871	0.456
392.001	264.134	80.000	20.009	100.280	20.063	7.502	0.515
394.000	265.155	80.000	20.009	100.307	20.061	7.819	0.478
396.000	266.178	80.000	20.009	100.289	20.060	7.956	0.478
398.000	267.210	79.999	20.008	100.319	20.060	7.951	0.495
400.000	268.205	80.000	20.009	100.304	20.059	8.103	0.505
402.000	269.248	79.999	20.008	100.303	20.060	7.982	0.488
404.000	270.237	80.000	20.009	100.282	20.059	8.133	0.496
406.000	271.273	80.000	20.008	100.305	20.059	8.133	0.484
408.000	272.304	80.000	20.008	100.322	20.056	8.613	0.505
410.000	273.309	80.000	20.009	100.302	20.054	8.916	0.509
412.000	274.305	80.000	20.008	100.278	20.052	9.247	0.508
414.000	275.332	80.000	20.008	100.304	20.056	8.660	0.538
416.000	276.383	80.000	20.008	100.275	20.051	9.376	0.523
418.000	277.425	80.001	20.008	100.291	20.048	9.867	0.534
420.000	278.360	80.000	20.008	100.277	20.047	10.110	0.433
422.000	279.395	80.001	20.008	100.298	20.044	10.495	0.523
424.000	280.389	79.999	20.008	100.279	20.045	10.432	0.505
426.000	281.438	80.001	20.008	100.299	20.043	10.756	0.535
428.000	282.398	80.000	20.008	100.281	20.041	10.984	0.488
430.000	283.484	80.002	20.009	100.293	20.041	11.010	0.549
432.000	284.478	80.000	20.009	100.270	20.038	11.419	0.471
434.000	285.455	79.998	20.008	100.271	20.036	11.886	0.483
436.000	286.484	80.000	20.008	100.255	20.034	12.087	0.524
438.000	287.445	80.000	20.009	100.264	20.035	11.980	0.471
440.000	288.493	80.000	20.008	100.279	20.034	12.104	0.515
442.000	289.502	80.001	20.008	100.267	20.028	13.060	0.539
444.000	290.503	80.000	20.008	100.287	20.031	12.691	0.455
446.001	291.514	80.000	20.008	100.278	20.027	13.218	0.525
448.000	292.496	79.999	20.008	100.302	20.027	13.240	0.497
450.000	293.495	80.001	20.008	100.279	20.025	13.502	0.496
452.000	294.488	79.999	20.008	100.289	20.024	13.813	0.506
454.000	295.497	80.000	20.008	100.288	20.022	14.131	0.517
456.000	296.521	80.000	20.008	100.283	20.019	14.530	0.503
458.000	297.492	79.999	20.008	100.292	20.020	14.319	0.475
460.000	298.488	80.000	20.008	100.274	20.019	14.580	0.500
462.000	299.468	80.000	20.008	100.294	20.019	14.532	0.492
464.000	300.476	80.001	20.008	100.293	20.015	15.169	0.488
466.000	301.482	80.000	20.008	100.294	20.014	15.360	0.512
468.000	302.472	80.002	20.008	100.284	20.011	15.855	0.483
470.000	303.474	79.999	20.008	100.286	20.013	15.464	0.534
472.000	304.443	80.001	20.008	100.280	20.009	16.086	0.474
474.000	305.465	80.000	20.009	100.278	20.008	16.284	0.512
476.000	306.446	79.999	20.008	100.292	20.007	16.438	0.474
478.000	307.438	80.000	20.008	100.282	20.006	16.602	0.498
480.000	308.442	80.001	20.008	100.304	20.004	16.970	0.495
482.000	309.445	80.000	20.008	100.286	20.004	16.971	0.511
484.000	310.409	80.000	20.008	100.303	19.997	17.973	0.482
486.000	311.410	80.001	20.008	100.279	19.999	17.753	0.499
488.000	312.438	80.000	20.008	100.293	19.995	18.326	0.467
490.001	313.460	80.001	20.007	100.279	19.990	19.125	0.500
492.000	314.436	80.002	20.008	100.290	19.984	20.145	0.487
494.000	315.434	80.000	20.007	100.269	19.979	20.987	0.520
496.000	316.439	80.000	20.008	100.272	19.974	21.761	0.477
498.000	317.424	80.000	20.007	100.278	19.966	22.940	0.520
500.000	318.467	80.000	20.008	100.296	19.963	23.440	0.497
502.000	319.476	80.001	20.007	100.297	19.954	24.975	0.541
504.000	320.461	80.001	20.008	100.275	19.943	26.595	0.512
506.000	321.455	80.002	20.007	100.299	19.925	29.509	0.504
508.000	322.433	80.002	20.008	100.302	19.906	32.631	0.489
510.000	323.433	80.001	20.007	100.324	19.897	33.929	0.535
512.001	324.437	80.000	20.008	100.294	19.888	35.516	0.504
514.000	325.427	80.001	20.007	100.293	19.876	37.380	0.506
516.000	326.447	80.000	20.007	100.241	19.857	40.482	0.508
518.000	327.436	80.000	20.007	100.286	19.844	42.499	0.510
520.000	328.445	80.001	20.007	100.297	19.829	44.934	0.505
522.000	329.447	80.001	20.007	100.308	19.816	46.996	0.490
524.000	330.429	80.001	20.007	100.287	19.800	49.549	0.486
526.000	331.425	80.002	20.008	100.296	19.776	53.381	0.519
528.000	332.437	80.000	20.008	100.296	19.741	58.994	0.473
530.000	333.426	80.001	20.007	100.340	19.718	62.630	0.498
532.000	334.417	80.002	20.007	100.341	19.695	66.261	0.521
534.000	335.393	80.001	20.008	100.301	19.673	69.844	0.518
536.000	336.405	80.002	20.007	100.295	19.646	74.061	0.511
538.000	337.436	80.002	20.007	100.271	19.616	78.854	0.514
540.000	338.419	80.002	20.008	100.313	19.586	83.605	0.494
542.000	339.464	80.001	20.008	100.317	19.553	88.970	0.511
544.000	340.442	80.000	20.007	100.334	19.516	94.844	0.506
546.000	341.461	80.002	20.008	100.320	19.476	101.331	0.503
548.000	342.491	80.002	20.008	100.326	19.443	106.622	0.546
550.000	343.443	80.001	20.007	100.321	19.413	111.280	0.505
552.000	344.430	80.001	20.007	100.301	19.385	115.847	0.487
554.000	345.465	80.001	20.008	100.284	19.355	120.524	0.502
556.000	346.487	80.002	20.008	100.301	19.319	126.286	0.525
558.000	347.448	80.000	20.007	100.321	19.289	131.130	0.469
560.000	348.415	80.001	20.008	100.338	19.249	137.445	0.486
562.000	349.451	80.001	20.008	100.339	19.204	144.665	0.498
564.001	350.416	79.999	20.007	100.349	19.169	150.280	0.480
566.000	351.411	80.001	20.008	100.340	19.145	154.116	0.491
568.000	352.435	80.000	20.007	100.302	19.117	158.592	0.513
570.000	353.422	80.001	20.008	100.300	19.085	163.650	0.497
572.000	354.372	80.002	20.007	100.330	19.050	169.368	0.516
574.000	355.344	80.002	20.008	100.334	19.020	174.197	0.478
576.000	356.351	80.002	20.008	100.373	18.989	179.062	0.483
578.000	357.301	80.001	20.007	100.369	18.966	182.827	0.455
580.001	358.347	80.000	20.008	100.342	18.943	186.564	0.523
582.000	359.317	80.002	20.007	100.326	18.918	190.463	0.500
584.000	360.302	80.001	20.008	100.336	18.900	193.341	0.489
586.000	361.301	80.002	20.007	100.362	18.879	196.614	0.497
588.000	362.311	80.001	20.008	100.359	18.861	199.615	0.521
590.000	363.278	80.002	20.008	100.385	18.834	203.778	0.511
592.000	364.232	80.002	20.007	100.359	18.809	207.746	0.495
594.000	365.235	80.002	20.007	100.402	18.791	210.747	0.527
596.000	366.215	80.002	20.007	100.380	18.771	213.942	0.490
598.000	367.199	80.002	20.008	100.378	18.751	217.184	0.509
600.000	368.184	80.001	20.008	100.367	18.728	220.943	0.516
602.000	369.157	80.002	20.008	100.365	18.723	221.545	0.519
604.000	370.123	80.003	20.008	100.342	18.722	221.608	0.488
606.000	371.115	80.002	20.007	100.339	18.716	222.601	0.508
608.001	372.106	80.002	20.008	100.363	18.716	222.614	0.494
610.000	373.136	80.001	20.007	100.384	18.703	224.841	0.517
612.000	374.136	80.001	20.009	100.373	18.719	222.401	0.520
614.000	375.159	80.002	20.009	100.395	18.762	215.441	0.515
616.000	376.164	80.002	20.008	100.330	18.796	209.906	0.512
618.000	377.116	80.000	20.009	100.255	18.833	204.055	0.467
620.000	378.149	80.001	20.008	100.371	18.883	196.071	0.504
622.000	379.215	80.002	20.007	100.332	18.927	189.040	0.535
624.000	380.247	80.001	20.007	100.419	18.975	181.323	0.547
626.000	381.209	80.002	20.008	100.414	19.018	174.582	0.470
628.000	382.271	80.000	20.007	100.381	19.054	168.777	0.494
630.000	383.243	80.001	20.007	100.388	19.096	162.106	0.519
632.000	384.239	80.002	20.008	100.430	19.132	156.278	0.500
634.000	385.262	80.001	20.008	100.396	19.168	150.550	0.511
636.000	386.342	80.001	20.008	100.420	19.206	144.477	0.522
638.000	387.318	80.002	20.008	100.383	19.238	139.356	0.502
640.000	388.351	80.001	20.008	100.394	19.275	133.289	0.511
642.000	389.358	80.002	20.008	100.395	19.310	127.848	0.494
644.000	390.362	80.001	20.008	100.389	19.346	122.070	0.466
646.000	391.410	80.001	20.007	100.389	19.380	116.456	0.537
648.000	392.416	80.001	20.008	100.392	19.414	111.079	0.505
650.001	393.403	80.000	20.007	100.361	19.447	105.908	0.455
652.000	394.423	80.001	20.008	100.351	19.481	100.499	0.505
654.000	395.404	80.000	20.007	100.325	19.516	94.819	0.468
656.000	396.460	79.999	20.012	100.307	19.546	90.137	0.487
658.000	397.460	80.001	20.008	100.305	19.579	84.777	0.503
660.000	398.475	80.000	20.009	100.291	19.616	78.982	0.512
662.000	399.409	80.000	20.006	100.370	19.650	73.523	0.472
664.000	400.478	80.000	20.007	100.405	19.679	68.766	0.509
666.000	401.486	80.001	20.008	100.320	19.713	63.437	0.526
668.000	402.492	80.001	20.008	100.334	19.740	59.129	0.493
670.000	403.516	80.000	20.008	100.362	19.768	54.631	0.505
672.000	404.381	80.000	20.007	100.345	19.794	50.475	0.443
674.000	405.333	80.001	20.008	100.319	19.820	46.304	0.501
676.000	406.356	80.002	20.007	100.322	19.843	42.691	0.496
678.000	407.362	80.001	20.008	100.323	19.866	38.930	0.473
680.000	408.319	80.001	20.007	100.344	19.883	36.204	0.473
682.000	409.355	79.999	20.008	100.307	19.905	32.809	0.493
684.000	410.295	80.001	20.008	100.327	19.925	29.462	0.494
686.000	411.257	80.002	20.008	100.313	19.944	26.588	0.449
688.000	412.214	80.002	20.007	100.320	19.957	24.444	0.477
690.000	413.153	80.000	20.008	100.288	19.971	22.216	0.484
692.000	414.130	80.002	20.007	100.305	19.984	20.173	0.477
694.000	415.076	80.001	20.007	100.298	19.996	18.158	0.471
696.000	415.991	80.001	20.008	100.312	20.006	16.636	0.470
698.000	417.014	80.001	20.007	100.288	20.015	15.121	0.515
700.000	417.970	80.002	20.007	100.312	20.027	13.326	0.479
702.000	418.959	80.001	20.008	100.294	20.035	11.925	0.496
704.000	419.872	80.001	20.007	100.315	20.041	11.055	0.456
706.000	420.907	80.002	20.008	100.294	20.044	10.474	0.521
708.000	421.886	80.001	20.007	100.285	20.052	9.254	0.513
710.000	422.894	80.000	20.007	100.282	20.055	8.736	0.492
712.000	423.806	80.001	20.007	100.282	20.056	8.550	0.414
714.000	424.795	80.002	20.007	100.267	20.065	7.256	0.506
716.000	425.839	80.001	20.008	100.276	20.066	7.060	0.496
718.000	426.855	80.003	20.008	100.259	20.068	6.673	0.508
720.001	427.801	80.002	20.008	100.275	20.072	6.047	0.467
722.000	428.794	80.002	20.007	100.261	20.074	5.784	0.468
724.000	429.807	80.001	20.008	100.276	20.078	5.166	0.480
726.001	430.810	80.002	20.007	100.263	20.076	5.481	0.496
728.000	431.835	80.001	20.008	100.275	20.079	4.877	0.518
730.000	432.838	80.001	20.007	100.284	20.080	4.715	0.501
732.000	433.835	79.999	20.008	100.261	20.081	4.691	0.482
734.000	434.814	80.002	20.008	100.256	20.082	4.432	0.484
736.000	435.819	80.002	20.007	100.249	20.086	3.845	0.492
738.000	436.869	80.001	20.008	100.257	20.087	3.650	0.544
740.000	437.858	80.002	20.008	100.258	20.089	3.410	0.494
742.000	438.843	80.002	20.007	100.276	20.090	3.259	0.517
744.000	439.821	80.002	20.007	100.255	20.088	3.535	0.480
746.000	440.838	80.001	20.007	100.270	20.091	3.066	0.459
748.000	441.792	80.000	20.007	100.253	20.092	2.809	0.495
750.000	442.804	80.002	20.007	100.278	20.093	2.748	0.507
752.000	443.868	80.001	20.007	100.263	20.095	2.472	0.507
754.000	444.833	80.001	20.008	100.287	20.094	2.532	0.514
756.000	445.903	80.001	20.008	100.267	20.094	2.540	0.522
758.000	446.855	80.002	20.007	100.266	20.093	2.765	0.530
760.000	447.843	80.001	20.007	100.255	20.092	2.809	0.504
762.000	448.853	80.001	20.007	100.262	20.096	2.246	0.537
764.000	449.801	80.000	20.007	100.244	20.092	2.904	0.501
766.000	450.791	80.001	20.008	100.252	20.093	2.650	0.485
768.000	451.812	80.001	20.007	100.246	20.094	2.597	0.512
770.000	452.785	80.000	20.008	100.251	20.095	2.330	0.503
772.000	453.789	80.001	20.007	100.245	20.096	2.233	0.496
774.000	454.758	80.001	20.008	100.248	20.093	2.654	0.486
776.000	455.739	80.002	20.007	100.238	20.092	2.826	0.514
778.000	456.788	80.001	20.008	100.246	20.095	2.364	0.522
780.000	457.748	80.001	20.008	100.266	20.096	2.202	0.471
782.000	458.769	80.001	20.008	100.259	20.092	2.887	0.502
784.000	459.759	80.000	20.007	100.265	20.091	3.079	0.458
786.000	460.815	79.999	20.007	100.247	20.091	3.089	0.489
788.000	461.773	80.000	20.007	100.259	20.092	2.836	0.546
790.000	462.712	80.001	20.008	100.242	20.093	2.684	0.469
792.000	463.717	80.000	20.008	100.256	20.091	2.991	0.490
794.000	464.727	80.000	20.008	100.244	20.093	2.738	0.494
796.000	465.700	80.001	20.007	100.260	20.090	3.210	0.487
798.000	466.675	80.002	20.008	100.254	20.090	3.227	0.473
800.000	467.701	80.001	20.008	100.261	20.093	2.667	0.506
802.000	468.635	80.002	20.008	100.240	20.096	2.280	0.485
804.000	469.666	80.000	20.008	100.258	20.097	2.104	0.501
806.000	470.633	80.001	20.007	100.250	20.093	2.654	0.499
808.000	471.585	80.002	20.008	100.257	20.095	2.374	0.516
810.000	472.537	80.002	20.007	100.251	20.091	2.975	0.478
812.000	473.449	80.001	20.007	100.247	20.092	2.944	0.445
814.000	474.408	80.003	20.007	100.234	20.094	2.611	0.468
816.000	475.402	80.001	20.007	100.266	20.095	2.445	0.515
818.000	476.367	80.000	20.008	100.234	20.095	2.388	0.490
820.000	477.322	80.001	20.008	100.266	20.092	2.809	0.460
822.000	478.285	80.002	20.007	100.241	20.094	2.597	0.475
824.000	479.276	80.001	20.008	100.268	20.096	2.283	0.501
826.000	480.230	80.001	20.008	100.256	20.096	2.297	0.468
828.000	481.212	80.001	20.007	100.262	20.095	2.384	0.490
830.000	482.255	80.002	20.007	100.233	20.094	2.550	0.517
832.000	483.177	80.002	20.007	100.259	20.093	2.728	0.487
834.000	484.216	80.000	20.008	100.242	20.095	2.387	0.476
836.000	485.163	80.001	20.007	100.262	20.092	2.802	0.480
838.000	486.137	80.002	20.008	100.258	20.095	2.327	0.485
840.000	487.152	80.000	20.007	100.273	20.094	2.563	0.492
842.000	488.120	80.002	20.007	100.248	20.095	2.475	0.497
844.000	489.132	80.000	20.008	100.263	20.095	2.354	0.495
846.001	490.119	80.000	20.008	100.229	20.095	2.415	0.530
848.000	491.116	80.003	20.007	100.254	20.093	2.698	0.501
850.000	492.096	80.002	20.007	100.242	20.094	2.630	0.488
852.000	493.079	80.001	20.007	100.261	20.095	2.411	0.499
854.000	494.081	80.000	20.008	100.235	20.093	2.690	0.540
856.000	495.034	80.002	20.008	100.253	20.091	3.001	0.450
858.000	496.053	80.002	20.008	100.246	20.092	2.799	0.516
860.000	497.076	80.003	20.008	100.280	20.091	3.116	0.533
862.000	498.070	80.001	20.007	100.228	20.091	3.058	0.488
864.000	499.013	80.001	20.008	100.238	20.091	3.052	0.484
866.001	500.031	80.001	20.008	100.222	20.092	2.944	0.513
868.000	501.084	80.002	20.007	100.238	20.091	3.076	0.528
870.000	502.024	80.001	20.007	100.225	20.091	3.038	0.496
872.001	502.963	80.000	20.008	100.243	20.088	3.437	0.479
874.000	503.955	80.001	20.008	100.228	20.093	2.681	0.516
876.000	504.937	80.000	20.007	100.263	20.093	2.698	0.489
878.000	505.876	80.001	20.007	100.254	20.095	2.448	0.489
880.000	506.896	80.000	20.007	100.260	20.093	2.678	0.488
882.000	507.885	80.002	20.007	100.234	20.092	2.904	0.516
884.000	508.860	80.002	20.007	100.259	20.092	2.877	0.479
886.000	509.889	80.001	20.008	100.240	20.091	3.045	0.509
888.000	510.868	80.002	20.008	100.258	20.091	3.109	0.507
890.000	511.882	80.002	20.008	100.252	20.093	2.698	0.541
892.000	512.842	80.001	20.007	100.273	20.096	2.212	0.494
894.000	513.885	80.001	20.008	100.252	20.094	2.617	0.530
896.000	514.875	80.000	20.007	100.264	20.093	2.681	0.481
898.000	515.861	80.003	20.007	100.245	20.094	2.496	0.482
900.000	516.889	80.001	20.007	100.273	20.092	2.917	0.474
902.000	517.930	80.002	20.008	100.245	20.093	2.785	0.516
904.000	518.899	80.001	20.007	100.268	20.092	2.876	0.547
906.000	519.918	80.003	20.008	100.248	20.090	3.197	0.518
908.000	520.927	80.001	20.008	100.254	20.090	3.247	0.514
910.000	521.919	80.001	20.007	100.244	20.092	2.886	0.515
912.000	522.940	80.001	20.008	100.249	20.092	2.822	0.491
914.001	523.913	80.000	20.007	100.242	20.091	2.961	0.488
916.000	524.933	80.002	20.008	100.236	20.093	2.670	0.486
918.000	525.953	80.002	20.007	100.242	20.093	2.728	0.498
920.000	526.919	80.002	20.008	100.234	20.094	2.549	0.495
922.000	527.921	80.001	20.007	100.239	20.091	2.981	0.512
924.000	528.886	80.002	20.007	100.233	20.092	2.825	0.485
926.000	529.926	80.001	20.008	100.242	20.092	2.856	0.526
928.000	530.896	80.002	20.008	100.231	20.095	2.407	0.499
930.000	531.838	80.003	20.007	100.255	20.095	2.384	0.485
932.000	532.855	80.001	20.008	100.237	20.092	2.954	0.512
934.000	533.845	80.001	20.007	100.243	20.095	2.461	0.493
936.000	534.809	80.002	20.008	100.236	20.095	2.415	0.471
938.000	535.795	80.002	20.008	100.231	20.097	2.154	0.491
940.000	536.756	80.001	20.007	100.243	20.098	1.973	0.501
942.000	537.719	80.000	20.008	100.218	20.096	2.192	0.497
944.000	538.733	80.001	20.007	100.257	20.095	2.435	0.475
946.000	539.693	80.001	20.007	100.234	20.095	2.341	0.470
948.000	540.654	80.002	20.007	100.252	20.093	2.657	0.493
950.000	541.644	80.000	20.008	100.242	20.095	2.431	0.516
952.000	542.591	80.001	20.007	100.247	20.094	2.512	0.496
954.001	543.604	80.002	20.008	100.263	20.095	2.441	0.497
956.000	544.555	80.002	20.008	100.228	20.094	2.536	0.475
958.000	545.571	80.000	20.007	100.254	20.093	2.758	0.492
960.000	546.523	80.001	20.007	100.244	20.094	2.540	0.475
962.000	547.474	80.001	20.008	100.231	20.094	2.596	0.483
964.000	548.479	80.002	20.007	100.262	20.093	2.752	0.473
966.000	549.497	80.000	20.007	100.233	20.092	2.911	0.494
968.000	550.467	80.001	20.007	100.253	20.091	3.045	0.470
970.000	551.449	80.001	20.007	100.246	20.094	2.628	0.485
972.000	552.461	80.001	20.007	100.241	20.094	2.488	0.508
974.000	553.384	80.002	20.008	100.253	20.095	2.445	0.453
976.000	554.396	80.000	20.008	100.222	20.097	2.101	0.531
978.000	555.384	80.001	20.007	100.272	20.093	2.721	0.474
980.000	556.317	80.001	20.007	100.252	20.095	2.445	0.423
982.000	557.323	80.000	20.007	100.256	20.098	1.976	0.496
984.000	558.268	80.001	20.007	100.260	20.098	1.949	0.482
986.000	559.258	80.001	20.008	100.229	20.092	2.940	0.481
988.000	560.269	80.003	20.008	100.259	20.094	2.521	0.495
990.000	561.297	80.000	20.007	100.240	20.094	2.573	0.538
992.000	562.332	80.002	20.007	100.239	20.093	2.667	0.496
994.000	563.262	80.001	20.007	100.237	20.091	3.022	0.449
996.000	564.218	79.999	20.008	100.224	20.088	3.440	0.450
998.000	565.245	80.003	20.008	100.189	20.090	3.163	0.503
1000.000	566.270	80.001	20.012	100.151	20.091	3.038	0.498
1002.000	567.250	80.001	20.007	100.290	20.092	2.898	0.520
1004.000	568.276	80.000	20.007	100.287	20.092	2.837	0.462
1006.001	569.298	80.001	20.008	100.254	20.088	3.463	0.513
1008.000	570.287	80.002	20.008	100.257	20.090	3.190	0.532
1010.001	571.347	80.001	20.007	100.244	20.091	3.105	0.519
1012.000	572.346	80.002	20.008	100.253	20.091	3.015	0.502
1014.000	573.346	80.002	20.008	100.248	20.090	3.206	0.477
1016.000	574.392	80.003	20.007	100.290	20.092	2.944	0.517
1018.000	575.398	80.002	20.007	100.247	20.089	3.433	0.521
1020.000	576.406	80.002	20.007	100.248	20.090	3.200	0.517
1022.000	577.398	80.001	20.007	100.246	20.089	3.368	0.480
1024.000	578.436	80.002	20.007	100.241	20.089	3.338	0.521
1026.000	579.445	80.000	20.008	100.239	20.090	3.234	0.514
1028.000	580.464	80.001	20.007	100.240	20.090	3.200	0.517
1030.000	581.442	80.001	20.008	100.265	20.089	3.355	0.499
1032.001	582.449	80.002	20.008	100.238	20.090	3.247	0.514
1034.000	583.459	80.000	20.007	100.228	20.088	3.537	0.504
1036.001	584.453	80.002	20.008	100.230	20.089	3.311	0.495
1038.000	585.495	80.002	20.008	100.239	20.090	3.150	0.495
1040.001	586.515	80.002	20.007	100.243	20.088	3.461	0.522
1042.000	587.458	80.001	20.007	100.233	20.088	3.551	0.471
1044.001	588.505	80.001	20.008	100.253	20.085	3.949	0.509
1046.000	589.535	80.001	20.008	100.217	20.087	3.625	0.512
1048.001	590.513	80.000	20.007	100.237	20.090	3.130	0.515
1050.000	591.499	80.002	20.008	100.225	20.089	3.376	0.495
1052.000	592.513	80.001	20.007	100.274	20.091	3.001	0.498
1054.000	593.490	80.000	20.007	100.271	20.094	2.623	0.497
1056.000	594.468	80.002	20.007	100.261	20.094	2.579	0.500
1058.000	595.442	80.001	20.008	100.247	20.089	3.308	0.505
1060.001	596.438	80.002	20.007	100.242	20.091	3.048	0.486
1062.001	597.463	80.002	20.007	100.265	20.091	3.066	0.525
1064.000	598.495	80.002	20.008	100.240	20.087	3.712	0.547
1066.001	599.439	80.001	20.008	100.255	20.087	3.730	0.494
1068.000	600.458	80.002	20.008	100.223	20.089	3.376	0.510
1070.001	601.436	80.001	20.007	100.242	20.089	3.396	0.488
1072.001	602.412	80.001	20.008	100.228	20.089	3.372	0.469
1074.001	603.407	80.001	20.007	100.253	20.089	3.363	0.503
1076.000	604.406	80.000	20.008	100.234	20.088	3.467	0.509
1078.000	605.391	80.000	20.007	100.243	20.088	3.459	0.491
1080.000	606.407	80.001	20.008	100.261	20.090	3.146	0.503
1082.001	607.357	80.002	20.007	100.248	20.089	3.378	0.471
1084.000	608.401	80.001	20.007	100.262	20.091	3.099	0.503
1086.001	609.372	80.001	20.008	100.244	20.089	3.399	0.472
1088.000	610.404	80.001	20.007	100.276	20.088	3.574	0.490
1090.001	611.419	79.999	20.008	100.234	20.086	3.861	0.509
1092.000	612.432	80.001	20.007	100.247	20.087	3.716	0.517
1094.001	613.451	80.001	20.008	100.237	20.086	3.761	0.519
1096.000	614.409	80.001	20.007	100.239	20.090	3.200	0.511
1098.000	615.432	80.001	20.007	100.252	20.091	3.082	0.503
1100.001	616.439	80.001	20.007	100.211	20.090	3.146	0.476
1102.000	617.439	80.002	20.008	100.247	20.088	3.548	0.475
1104.000	618.450	80.001	20.008	100.226	20.089	3.325	0.527
1106.001	619.446	80.002	20.008	100.254	20.084	4.125	0.501
1108.001	620.424	80.001	20.008	100.246	20.082	4.499	0.514
1110.000	621.437	80.001	20.007	100.248	20.086	3.872	0.506
1112.000	622.463	80.001	20.008	100.244	20.087	3.720	0.495
1114.000	623.404	80.002	20.007	100.236	20.087	3.699	0.465
1116.001	624.445	80.001	20.008	100.245	20.087	3.741	0.504
1118.000	625.440	80.001	20.008	100.246	20.089	3.369	0.532
1120.000	626.457	80.000	20.007	100.262	20.086	3.787	0.495
1122.000	627.363	80.001	20.008	100.239	20.087	3.635	0.459
1124.000	628.289	80.000	20.007	100.270	20.090	3.261	0.442
1126.001	629.300	80.002	20.007	100.240	20.091	3.052	0.506
1128.000	630.290	80.002	20.007	100.266	20.092	2.829	0.520
1130.000	631.238	80.001	20.007	100.252	20.090	3.139	0.474
1132.000	632.206	80.001	20.007	100.246	20.092	2.951	0.457
1134.001	633.178	80.003	20.008	100.246	20.088	3.550	0.471
1136.000	634.105	80.002	20.008	100.242	20.088	3.453	0.481
1138.000	635.093	80.002	20.007	100.252	20.088	3.544	0.501
1140.000	636.042	80.000	20.007	100.237	20.084	4.117	0.509
1142.000	637.039	80.002	20.007	100.254	20.086	3.790	0.471
1144.001	638.020	80.001	20.007	100.232	20.087	3.736	0.481
1146.000	639.039	80.003	20.008	100.245	20.086	3.774	0.487
1148.001	640.025	80.001	20.008	100.219	20.083	4.333	0.519
1150.001	641.051	80.000	20.008	100.240	20.086	3.871	0.519
1152.000	642.056	80.001	20.008	100.228	20.087	3.706	0.515
1154.000	643.049	80.000	20.007	100.255	20.085	3.952	0.497
1156.001	644.074	80.000	20.008	100.230	20.087	3.689	0.457
1158.000	645.146	80.001	20.007	100.255	20.090	3.220	0.560
1160.000	646.131	80.001	20.007	100.242	20.091	3.034	0.524
1162.000	647.203	80.000	20.007	100.252	20.088	3.581	0.490
1164.001	648.085	80.000	20.007	100.226	20.088	3.543	0.460
1166.001	649.208	80.003	20.007	100.260	20.086	3.848	0.505
1168.000	650.239	80.001	20.008	100.234	20.085	3.958	0.534
1170.001	651.211	80.000	20.007	100.246	20.085	4.040	0.522
1172.000	652.225	80.000	20.008	100.221	20.084	4.204	0.493
1174.001	653.327	80.001	20.007	100.232	20.088	3.483	0.553
1176.000	654.298	80.001	20.008	100.227	20.085	3.986	0.497
1178.001	655.299	80.001	20.007	100.241	20.087	3.730	0.470
1180.000	656.268	80.000	20.007	100.248	20.088	3.514	0.459
1182.000	657.268	80.000	20.007	100.231	20.085	3.925	0.511
1184.001	658.284	80.001	20.007	100.244	20.086	3.875	0.477
1186.000	659.308	80.001	20.007	100.232	20.087	3.638	0.538
1188.000	660.302	80.002	20.007	100.262	20.088	3.497	0.512
1190.000	661.270	80.002	20.008	100.238	20.087	3.601	0.520
1192.001	662.293	80.001	20.007	100.262	20.085	3.922	0.504
1194.000	663.252	80.001	20.008	100.237	20.084	4.100	0.491
1196.000	664.258	80.001	20.007	100.248	20.084	4.172	0.503
1198.001	665.233	80.000	20.008	100.244	20.086	3.810	0.485
1200.001	666.211	80.000	20.007	100.251	20.087	3.747	0.501
1202.000	667.251	80.001	20.008	100.241	20.086	3.908	0.497
1204.000	668.246	80.001	20.008	100.238	20.088	3.575	0.484
1206.000	669.221	80.000	20.008	100.257	20.087	3.655	0.485
1208.001	670.270	80.002	20.008	100.242	20.084	4.084	0.529
1210.000	671.260	80.002	20.008	100.251	20.085	3.969	0.511
1212.000	672.243	80.002	20.008	100.235	20.087	3.743	0.472
1214.000	673.254	80.002	20.008	100.251	20.088	3.453	0.529
1216.000	674.335	80.002	20.008	100.231	20.086	3.898	0.518
1218.000	675.298	80.000	20.007	100.252	20.087	3.752	0.505
1220.001	676.297	80.002	20.008	100.231	20.089	3.369	0.474
1222.001	677.338	80.001	20.007	100.249	20.086	3.783	0.502
1224.001	678.404	80.002	20.008	100.229	20.087	3.750	0.527
1226.001	679.427	80.002	20.007	100.249	20.086	3.854	0.492
1228.001	680.398	80.000	20.008	100.228	20.087	3.723	0.525
1230.000	681.473	80.001	20.007	100.234	20.086	3.760	0.488
1232.000	682.455	80.000	20.007	100.217	20.088	3.578	0.501
1234.001	683.493	80.001	20.007	100.248	20.088	3.584	0.502
1236.000	684.495	80.001	20.008	100.246	20.086	3.824	0.518
1238.000	685.471	80.001	20.007	100.238	20.086	3.831	0.451
1240.001	686.495	80.002	20.007	100.246	20.087	3.608	0.506
1242.001	687.446	80.001	20.008	100.246	20.086	3.912	0.525
1244.000	688.468	80.001	20.007	100.257	20.087	3.743	0.520
1246.001	689.499	80.002	20.007	100.235	20.083	4.256	0.506
1248.001	690.483	80.003	20.007	100.256	20.085	4.050	0.490
1250.001	691.456	80.002	20.008	100.239	20.085	4.057	0.468
1252.000	692.457	80.001	20.007	100.260	20.087	3.672	0.508
1254.000	693.449	80.002	20.008	100.237	20.085	3.965	0.508
1256.000	694.432	80.001	20.007	100.257	20.087	3.753	0.492
1258.000	695.399	80.002	20.008	100.233	20.086	3.767	0.472
1260.001	696.438	80.002	20.008	100.257	20.084	4.134	0.503
1262.001	697.413	80.002	20.008	100.234	20.085	3.959	0.491
1264.000	698.442	80.001	20.008	100.259	20.089	3.359	0.489
1266.000	699.534	80.000	20.008	100.230	20.088	3.470	0.560
1268.000	700.491	80.001	20.008	100.237	20.088	3.469	0.482
1270.000	701.494	80.000	20.007	100.238	20.084	4.134	0.516
1272.000	702.494	80.002	20.008	100.248	20.094	2.586	0.502
1274.000	703.524	80.002	20.008	100.236	20.093	2.731	0.520
1276.001	704.461	80.001	20.008	100.253	20.095	2.428	0.485
1278.000	705.472	80.000	20.007	100.251	20.090	3.213	0.497
1280.000	706.477	80.001	20.008	100.237	20.089	3.291	0.533
1282.001	707.485	80.002	20.007	100.246	20.088	3.449	0.495
1284.000	708.477	80.001	20.008	100.237	20.086	3.892	0.494
1286.000	709.507	80.002	20.007	100.244	20.081	4.690	0.502
1288.000	710.560	80.003	20.008	100.219	20.082	4.492	0.542
1290.001	711.582	79.999	20.007	100.233	20.084	4.084	0.517
1292.000	712.637	80.002	20.008	100.227	20.080	4.766	0.526
1294.001	713.612	80.001	20.007	100.246	20.083	4.323	0.508
1296.001	714.626	80.001	20.007	100.243	20.083	4.286	0.506
1298.000	715.625	80.001	20.007	100.240	20.081	4.650	0.491
1300.000	716.584	80.001	20.007	100.240	20.087	3.716	0.492
1302.000	717.522	80.001	20.008	100.247	20.089	3.425	0.455
1304.000	718.526	80.001	20.007	100.269	20.087	3.601	0.512
1306.000	719.512	80.000	20.008	100.238	20.089	3.362	0.495
1308.000	720.479	80.002	20.007	100.251	20.087	3.629	0.482
1310.000	721.396	80.000	20.008	100.235	20.087	3.743	0.423
1312.001	722.400	79.999	20.007	100.249	20.085	3.919	0.478
1314.001	723.469	80.000	20.008	100.221	20.084	4.191	0.519
1316.001	724.502	80.002	20.007	100.243	20.083	4.294	0.511
1318.000	725.570	80.002	20.008	100.224	20.079	4.872	0.501
1320.001	726.611	80.001	20.008	100.253	20.084	4.216	0.549
1322.000	727.688	80.001	20.008	100.243	20.086	3.784	0.588
1324.000	728.640	80.001	20.007	100.257	20.088	3.538	0.503
1326.000	729.746	80.000	20.008	100.240	20.088	3.494	0.536
1328.000	730.712	80.001	20.009	100.259	20.086	3.851	0.490
1330.001	731.741	80.001	20.008	100.241	20.087	3.719	0.508
1332.001	732.667	80.001	20.007	100.247	20.085	3.922	0.487
1334.000	733.672	80.002	20.008	100.258	20.085	4.070	0.476
1336.000	734.708	80.001	20.007	100.273	20.087	3.609	0.526
1338.000	735.724	80.001	20.008	100.261	20.087	3.635	0.516
1340.001	736.764	80.001	20.007	100.261	20.085	4.013	0.527
1342.000	737.832	80.001	20.008	100.241	20.086	3.820	0.574
1344.001	738.844	80.001	20.008	100.255	20.086	3.848	0.501
1346.001	739.838	80.002	20.008	100.239	20.084	4.084	0.485
1348.000	740.863	80.000	20.007	100.244	20.082	4.455	0.508
1350.000	741.859	80.003	20.008	100.243	20.084	4.185	0.504
1351.000	742.353	80.000	20.007	100.240	20.081	4.688	0.486