File: Experiments/TUBS/mcc/mcc_powder_3mg_dyn30_r3.txt
Sample Weight (mg):	3.05
Heating Rate (C/s):	0.5
Combustor Temp (C):	900
N2 Flow Rate (cc/min):	80
O2 Flow Rate (cc/min):	20
Time (s)	Temperature (C)	N2 flow rate (cc/min)	O2 flow rate (cc/min)	Flow Rate (cc/min)	Oxygen (%)	HRR (W/g)	Heating rate (C/s)
0.000	89.737	80.002	20.008	100.059	20.151	2.850	-0.092
2.000	89.548	80.002	20.008	100.322	20.132	4.728	-0.106
4.000	89.353	80.000	20.008	100.450	20.120	6.002	-0.112
6.000	89.214	80.002	20.008	100.512	20.110	7.029	-0.092
8.000	89.042	80.001	20.008	100.498	20.102	7.825	-0.104
10.000	88.940	80.000	20.008	100.509	20.100	8.040	-0.089
12.000	88.756	80.001	20.008	100.509	20.092	8.825	-0.089
14.000	88.671	80.001	20.008	100.502	20.093	8.803	-0.073
16.000	88.612	80.001	20.008	100.537	20.089	9.136	-0.073
18.000	88.511	80.002	20.009	100.523	20.086	9.504	-0.069
20.000	88.523	80.002	20.008	100.560	20.086	9.490	-0.045
22.000	88.519	80.001	20.009	100.525	20.084	9.690	-0.004
24.000	88.539	80.002	20.008	100.538	20.083	9.810	0.013
26.000	88.451	80.002	20.008	100.561	20.081	10.048	-0.002
28.000	88.600	80.001	20.008	100.553	20.081	10.024	0.047
30.000	88.634	80.003	20.008	100.583	20.077	10.437	0.029
32.000	88.693	80.001	20.009	100.543	20.075	10.654	0.072
34.000	88.832	80.000	20.009	100.584	20.069	11.257	0.006
36.001	89.010	80.001	20.009	100.607	20.067	11.502	0.071
38.001	89.162	80.002	20.009	100.624	20.064	11.795	0.102
40.000	89.310	80.001	20.009	100.681	20.059	12.239	0.106
42.000	89.581	80.002	20.009	100.670	20.061	12.101	0.167
44.001	89.842	80.001	20.009	100.671	20.059	12.324	0.131
46.000	90.095	80.002	20.009	100.620	20.058	12.423	0.133
48.001	90.424	80.001	20.009	100.657	20.058	12.396	0.181
50.001	90.697	80.001	20.009	100.646	20.054	12.764	0.113
52.000	91.059	80.000	20.009	100.668	20.053	12.953	0.150
54.001	91.418	80.001	20.009	100.714	20.050	13.205	0.180
56.000	91.836	80.001	20.009	100.712	20.051	13.097	0.214
58.001	92.345	80.001	20.009	100.718	20.047	13.554	0.274
60.001	92.752	80.001	20.009	100.705	20.049	13.325	0.269
62.001	93.259	80.002	20.009	100.744	20.045	13.759	0.262
64.001	93.795	80.001	20.009	100.717	20.046	13.623	0.245
66.001	94.379	80.001	20.009	100.742	20.044	13.855	0.304
68.000	94.944	80.001	20.010	100.702	20.042	14.067	0.291
70.000	95.597	80.003	20.009	100.725	20.043	13.984	0.308
72.000	96.226	80.001	20.010	100.711	20.043	13.900	0.305
74.000	96.802	79.999	20.009	100.729	20.044	13.871	0.304
76.000	97.531	80.000	20.010	100.739	20.040	14.223	0.364
78.000	98.236	80.003	20.009	100.740	20.041	14.099	0.367
80.000	98.916	80.001	20.009	100.754	20.041	14.136	0.320
82.001	99.708	80.001	20.009	100.730	20.041	14.188	0.393
84.001	100.439	80.001	20.009	100.754	20.035	14.766	0.384
86.000	101.242	80.001	20.009	100.726	20.036	14.650	0.432
88.001	102.073	80.003	20.009	100.748	20.041	14.177	0.425
90.001	102.962	80.001	20.010	100.736	20.039	14.358	0.425
92.001	103.824	80.001	20.010	100.769	20.039	14.373	0.447
94.000	104.707	80.003	20.009	100.755	20.040	14.259	0.441
96.000	105.669	80.003	20.010	100.764	20.044	13.824	0.465
98.000	106.554	80.001	20.009	100.763	20.040	14.288	0.448
100.000	107.490	80.001	20.009	100.751	20.039	14.326	0.444
102.000	108.419	80.003	20.010	100.770	20.039	14.384	0.481
104.000	109.438	80.001	20.009	100.746	20.037	14.529	0.492
106.000	110.411	80.002	20.009	100.782	20.033	14.998	0.493
108.000	111.418	80.002	20.008	100.771	20.034	14.910	0.481
110.001	112.475	80.001	20.009	100.784	20.035	14.760	0.533
112.001	113.538	80.003	20.009	100.760	20.037	14.524	0.546
114.000	114.544	80.002	20.009	100.778	20.038	14.410	0.529
116.000	115.667	80.002	20.009	100.751	20.037	14.584	0.538
118.001	116.695	80.001	20.009	100.751	20.038	14.503	0.565
120.000	117.740	80.002	20.010	100.742	20.036	14.647	0.550
122.000	118.828	80.002	20.009	100.762	20.039	14.328	0.565
124.001	119.945	80.000	20.009	100.767	20.039	14.345	0.563
126.000	121.057	80.001	20.009	100.728	20.036	14.638	0.568
128.000	122.185	80.001	20.010	100.743	20.035	14.760	0.553
130.000	123.324	80.005	20.010	100.703	20.035	14.737	0.579
132.000	124.480	80.003	20.010	100.743	20.031	15.181	0.575
134.000	125.624	80.002	20.009	100.729	20.031	15.216	0.549
136.000	126.750	80.002	20.009	100.734	20.028	15.483	0.570
138.000	127.903	80.001	20.010	100.699	20.031	15.201	0.558
140.000	129.099	80.001	20.009	100.722	20.030	15.279	0.587
142.000	130.205	80.003	20.009	100.678	20.028	15.438	0.573
144.001	131.418	80.002	20.009	100.683	20.028	15.521	0.617
146.000	132.604	80.002	20.009	100.669	20.028	15.481	0.585
148.000	133.736	80.000	20.009	100.675	20.029	15.381	0.599
150.000	134.926	80.002	20.010	100.671	20.029	15.356	0.579
152.000	136.116	80.001	20.009	100.672	20.028	15.438	0.608
154.000	137.339	80.003	20.009	100.686	20.030	15.274	0.581
156.000	138.521	80.002	20.009	100.661	20.024	15.832	0.579
158.000	139.676	80.001	20.009	100.672	20.023	16.011	0.555
160.000	140.859	80.002	20.009	100.629	20.019	16.402	0.564
162.000	142.051	80.003	20.009	100.652	20.018	16.543	0.599
164.000	143.198	80.001	20.009	100.613	20.018	16.535	0.595
166.000	144.373	80.002	20.009	100.640	20.013	16.997	0.574
168.000	145.597	80.002	20.009	100.625	20.010	17.327	0.613
170.000	146.782	80.001	20.009	100.637	20.007	17.583	0.587
172.000	147.898	80.002	20.009	100.632	19.999	18.448	0.578
174.000	149.050	80.001	20.009	100.630	20.000	18.357	0.581
176.000	150.227	80.002	20.009	100.639	20.000	18.376	0.578
178.000	151.386	80.001	20.009	100.625	19.997	18.653	0.604
180.000	152.534	80.000	20.009	100.640	19.991	19.257	0.549
182.000	153.683	80.001	20.009	100.617	19.989	19.497	0.545
184.000	154.824	80.003	20.009	100.643	19.984	20.003	0.556
186.000	155.978	80.001	20.009	100.616	19.978	20.574	0.580
188.000	157.105	80.002	20.009	100.632	19.976	20.823	0.570
190.000	158.250	80.002	20.009	100.610	19.969	21.577	0.547
192.000	159.472	80.003	20.009	100.620	19.963	22.165	0.607
194.000	160.594	80.002	20.009	100.609	19.961	22.348	0.561
196.000	161.760	80.003	20.009	100.596	19.960	22.480	0.573
198.000	162.958	80.001	20.009	100.587	19.954	23.064	0.629
200.001	164.019	80.001	20.009	100.596	19.951	23.357	0.533
202.000	165.181	80.002	20.009	100.588	19.943	24.243	0.562
204.000	166.304	80.002	20.009	100.592	19.942	24.327	0.589
206.000	167.457	80.001	20.009	100.596	19.938	24.721	0.589
208.000	168.567	80.002	20.010	100.592	19.940	24.567	0.530
210.000	169.703	80.001	20.009	100.596	19.939	24.625	0.551
212.000	170.831	80.002	20.009	100.588	19.941	24.395	0.569
214.000	171.974	80.001	20.009	100.605	19.941	24.370	0.593
216.000	173.117	80.001	20.009	100.596	19.945	24.007	0.586
218.000	174.194	80.001	20.009	100.610	19.943	24.233	0.553
220.001	175.272	80.002	20.009	100.596	19.950	23.504	0.516
222.000	176.420	80.002	20.009	100.594	19.955	22.986	0.543
224.000	177.533	80.002	20.009	100.588	19.956	22.856	0.594
226.000	178.668	80.001	20.009	100.585	19.960	22.501	0.537
228.000	179.840	80.001	20.009	100.589	19.967	21.748	0.579
230.000	180.860	80.001	20.008	100.589	19.973	21.113	0.536
232.000	181.980	80.002	20.009	100.576	19.974	20.990	0.587
234.000	183.115	80.003	20.014	100.607	19.981	20.335	0.565
236.000	184.229	80.001	20.008	100.479	19.989	19.529	0.551
238.000	185.340	80.001	20.008	100.615	19.994	18.920	0.596
240.000	186.456	80.002	20.009	100.697	19.999	18.473	0.574
242.000	187.526	80.001	20.009	100.612	20.009	17.434	0.546
244.000	188.653	80.001	20.009	100.607	20.015	16.812	0.577
246.000	189.785	80.003	20.009	100.631	20.018	16.511	0.559
248.000	190.800	80.001	20.009	100.599	20.023	15.950	0.529
250.000	191.896	80.003	20.009	100.609	20.028	15.472	0.563
252.000	192.926	80.000	20.009	100.574	20.033	14.989	0.494
254.000	194.011	80.002	20.009	100.630	20.034	14.806	0.500
256.000	195.147	80.003	20.009	100.596	20.035	14.691	0.582
258.000	196.265	80.003	20.009	100.601	20.040	14.200	0.567
260.000	197.333	80.003	20.009	100.569	20.040	14.272	0.570
262.000	198.395	80.001	20.009	100.586	20.044	13.782	0.549
264.000	199.450	80.002	20.009	100.581	20.045	13.686	0.510
266.000	200.550	80.002	20.010	100.591	20.048	13.364	0.570
268.000	201.571	80.001	20.009	100.562	20.050	13.184	0.537
270.000	202.639	80.002	20.009	100.575	20.056	12.623	0.502
272.000	203.657	80.001	20.009	100.554	20.052	13.040	0.535
274.001	204.704	80.002	20.009	100.563	20.051	13.087	0.555
276.000	205.749	80.003	20.009	100.556	20.051	13.106	0.530
278.001	206.788	80.003	20.009	100.562	20.054	12.793	0.536
280.000	207.820	80.002	20.009	100.549	20.058	12.392	0.487
282.000	208.812	80.003	20.009	100.580	20.059	12.257	0.515
284.000	209.903	80.002	20.009	100.556	20.059	12.240	0.506
286.000	210.865	80.002	20.010	100.550	20.060	12.145	0.481
288.000	211.887	80.001	20.009	100.539	20.060	12.183	0.498
290.000	212.871	80.002	20.009	100.534	20.060	12.128	0.508
292.000	213.828	80.001	20.009	100.562	20.058	12.322	0.495
294.000	214.872	80.001	20.010	100.542	20.059	12.313	0.505
296.000	215.854	80.003	20.009	100.566	20.055	12.630	0.503
298.001	216.901	80.001	20.009	100.540	20.056	12.557	0.497
300.000	217.894	80.002	20.009	100.540	20.058	12.409	0.498
302.000	218.904	80.002	20.009	100.531	20.059	12.281	0.470
304.000	219.907	80.002	20.009	100.550	20.059	12.257	0.504
306.000	220.877	80.002	20.009	100.537	20.060	12.140	0.519
308.000	221.857	80.003	20.010	100.539	20.060	12.174	0.445
310.000	222.856	80.001	20.009	100.546	20.064	11.737	0.479
312.000	223.822	80.003	20.010	100.542	20.064	11.792	0.488
314.000	224.755	80.002	20.009	100.551	20.064	11.733	0.484
316.000	225.811	80.002	20.009	100.534	20.065	11.646	0.519
318.000	226.799	80.003	20.010	100.542	20.069	11.239	0.516
320.000	227.822	80.002	20.009	100.526	20.069	11.215	0.492
322.000	228.793	80.001	20.010	100.524	20.066	11.514	0.505
324.000	229.796	80.002	20.009	100.519	20.069	11.214	0.498
326.000	230.815	80.001	20.010	100.538	20.070	11.161	0.526
328.000	231.779	80.002	20.009	100.547	20.073	10.834	0.474
330.000	232.786	80.003	20.010	100.544	20.072	10.919	0.499
332.000	233.776	80.002	20.009	100.542	20.077	10.433	0.479
334.000	234.786	80.001	20.009	100.541	20.075	10.673	0.529
336.000	235.795	80.002	20.009	100.545	20.075	10.669	0.508
338.000	236.761	80.003	20.010	100.527	20.076	10.497	0.461
340.000	237.733	80.001	20.009	100.536	20.074	10.672	0.498
342.000	238.714	80.001	20.009	100.514	20.076	10.566	0.454
344.000	239.805	80.003	20.009	100.533	20.075	10.643	0.562
346.000	240.723	80.003	20.009	100.550	20.076	10.554	0.494
348.000	241.778	80.001	20.009	100.551	20.071	11.006	0.504
350.000	242.754	80.001	20.009	100.556	20.071	11.029	0.494
352.000	243.788	80.001	20.009	100.533	20.072	10.977	0.508
354.000	244.843	80.001	20.009	100.537	20.070	11.161	0.506
356.000	245.803	80.000	20.009	100.531	20.070	11.178	0.485
358.000	246.807	80.003	20.010	100.532	20.068	11.360	0.529
360.000	247.822	80.002	20.009	100.530	20.068	11.290	0.478
362.000	248.826	80.001	20.009	100.544	20.066	11.513	0.499
364.000	249.791	80.002	20.009	100.539	20.066	11.538	0.497
366.000	250.786	80.001	20.009	100.533	20.065	11.665	0.509
368.000	251.820	80.002	20.009	100.544	20.064	11.782	0.530
370.000	252.848	80.002	20.009	100.536	20.062	11.968	0.485
372.000	253.897	80.000	20.010	100.539	20.062	11.941	0.489
374.000	254.840	80.001	20.009	100.540	20.059	12.264	0.487
376.000	255.888	80.001	20.009	100.536	20.059	12.250	0.525
378.000	256.876	80.001	20.009	100.522	20.053	12.856	0.496
380.000	257.889	80.001	20.010	100.510	20.052	12.994	0.511
382.000	258.907	80.002	20.009	100.519	20.047	13.483	0.532
384.000	259.923	80.001	20.010	100.502	20.048	13.429	0.519
386.000	260.978	80.002	20.009	100.520	20.043	13.920	0.528
388.001	261.988	80.002	20.009	100.523	20.047	13.525	0.494
390.000	263.007	80.001	20.010	100.526	20.043	13.926	0.503
392.000	263.971	80.001	20.009	100.515	20.039	14.358	0.500
394.000	264.941	80.002	20.009	100.513	20.032	15.086	0.454
396.000	265.995	80.002	20.009	100.521	20.026	15.669	0.505
398.000	266.974	80.002	20.009	100.508	20.024	15.903	0.465
400.000	268.036	80.002	20.009	100.521	20.020	16.259	0.544
402.000	269.058	80.001	20.009	100.500	20.015	16.756	0.552
404.000	270.098	80.002	20.009	100.507	20.014	16.923	0.544
406.000	271.139	80.001	20.009	100.514	20.009	17.393	0.532
408.000	272.088	80.002	20.010	100.519	20.002	18.097	0.501
410.000	273.095	80.003	20.010	100.515	19.999	18.467	0.488
412.000	274.101	80.003	20.010	100.509	19.996	18.732	0.459
414.000	275.153	80.003	20.010	100.506	19.993	19.094	0.565
416.000	276.090	80.002	20.009	100.497	19.987	19.665	0.468
418.000	277.191	80.003	20.010	100.517	19.983	20.037	0.421
420.000	278.218	80.002	20.010	100.508	19.977	20.704	0.510
422.000	279.195	80.002	20.009	100.505	19.974	21.032	0.471
424.000	280.088	80.000	20.009	100.513	19.971	21.308	0.531
426.000	281.124	80.002	20.010	100.493	19.963	22.114	0.526
428.000	282.106	80.003	20.009	100.488	19.963	22.125	0.522
430.000	283.137	80.004	20.010	100.479	19.961	22.383	0.552
432.000	284.116	80.002	20.010	100.482	19.956	22.862	0.508
434.000	285.042	80.002	20.009	100.477	19.951	23.330	0.485
436.000	286.037	80.002	20.009	100.493	19.947	23.730	0.482
438.000	287.089	80.003	20.009	100.497	19.942	24.302	0.487
440.000	288.096	80.002	20.009	100.489	19.939	24.563	0.476
442.000	289.066	80.002	20.010	100.505	19.937	24.822	0.486
444.000	290.120	80.003	20.009	100.508	19.935	24.994	0.514
446.000	291.158	80.002	20.009	100.505	19.933	25.225	0.514
448.000	292.181	80.004	20.010	100.523	19.932	25.273	0.524
450.000	293.167	80.002	20.009	100.510	19.928	25.706	0.490
452.000	294.148	80.004	20.009	100.515	19.923	26.268	0.504
454.000	295.127	80.001	20.009	100.515	19.917	26.830	0.501
456.000	296.118	80.001	20.008	100.518	19.915	27.092	0.519
458.000	297.102	80.002	20.009	100.445	19.911	27.511	0.527
460.000	298.145	80.003	20.009	100.493	19.904	28.232	0.526
462.000	299.235	80.003	20.009	100.507	19.902	28.419	0.542
464.000	300.186	80.004	20.009	100.502	19.897	28.956	0.496
466.000	301.187	80.002	20.010	100.495	19.893	29.369	0.489
468.000	302.198	80.001	20.009	100.566	19.886	30.095	0.525
470.000	303.182	80.001	20.010	100.535	19.880	30.614	0.493
472.000	304.232	80.002	20.009	100.510	19.867	32.012	0.512
474.000	305.282	80.002	20.009	100.499	19.860	32.726	0.499
476.000	306.206	80.002	20.010	100.513	19.845	34.239	0.478
478.000	307.238	80.002	20.009	100.492	19.835	35.284	0.495
480.000	308.268	80.002	20.009	100.493	19.822	36.635	0.471
482.000	309.317	80.001	20.010	100.502	19.809	37.976	0.514
484.000	310.305	80.003	20.010	100.472	19.795	39.438	0.475
486.000	311.333	80.002	20.009	100.481	19.779	41.023	0.530
488.000	312.366	80.001	20.009	100.476	19.758	43.149	0.503
490.000	313.372	80.003	20.010	100.480	19.739	45.166	0.519
492.000	314.347	80.002	20.009	100.478	19.719	47.245	0.421
494.000	315.381	80.001	20.009	100.469	19.698	49.354	0.511
496.000	316.400	80.002	20.010	100.474	19.676	51.656	0.519
498.000	317.446	80.002	20.009	100.450	19.651	54.227	0.507
500.000	318.468	80.003	20.010	100.465	19.624	57.019	0.521
502.000	319.501	80.002	20.009	100.457	19.596	59.882	0.511
504.000	320.491	80.002	20.010	100.459	19.569	62.665	0.500
506.000	321.512	80.001	20.009	100.478	19.541	65.504	0.495
508.000	322.485	80.001	20.010	100.475	19.511	68.552	0.484
510.000	323.505	80.002	20.009	100.486	19.482	71.527	0.511
512.000	324.541	80.001	20.009	100.468	19.453	74.480	0.477
514.000	325.551	80.001	20.009	100.470	19.419	77.991	0.523
516.000	326.516	80.001	20.009	100.471	19.389	81.121	0.496
518.000	327.490	80.002	20.010	100.467	19.355	84.556	0.490
520.001	328.531	80.003	20.010	100.463	19.320	88.208	0.475
522.000	329.515	80.002	20.009	100.438	19.288	91.491	0.512
524.000	330.508	80.003	20.010	100.456	19.254	94.958	0.496
526.000	331.472	80.002	20.009	100.463	19.217	98.810	0.450
528.000	332.507	80.004	20.010	100.448	19.185	102.075	0.509
530.000	333.510	80.002	20.009	100.452	19.153	105.406	0.526
532.000	334.453	80.001	20.010	100.427	19.121	108.649	0.511
534.000	335.443	80.003	20.009	100.451	19.089	111.961	0.480
536.000	336.394	80.001	20.010	100.448	19.057	115.189	0.458
538.000	337.432	80.002	20.010	100.465	19.030	117.988	0.476
540.000	338.353	80.001	20.009	100.478	18.999	121.259	0.473
542.000	339.360	80.002	20.009	100.471	18.976	123.573	0.471
544.000	340.357	80.002	20.009	100.475	18.950	126.268	0.492
546.000	341.331	80.002	20.010	100.443	18.924	129.028	0.478
548.000	342.335	80.001	20.010	100.475	18.903	131.091	0.481
550.000	343.245	80.002	20.009	100.467	18.879	133.647	0.466
552.000	344.245	80.001	20.009	100.489	18.863	135.230	0.478
554.000	345.162	80.001	20.009	100.486	18.845	137.168	0.478
556.000	346.138	80.001	20.010	100.503	18.828	138.903	0.502
558.000	347.087	80.003	20.009	100.522	18.815	140.255	0.507
560.000	348.008	80.002	20.010	100.515	18.800	141.761	0.462
562.000	348.975	80.002	20.009	100.529	18.788	142.927	0.496
564.000	349.919	80.001	20.009	100.517	18.774	144.500	0.474
566.000	350.830	80.002	20.009	100.538	18.758	146.271	0.490
568.000	351.867	80.002	20.009	100.574	18.745	147.688	0.515
570.000	352.825	80.003	20.009	100.574	18.734	148.618	0.459
572.000	353.760	80.000	20.008	100.588	18.712	150.849	0.495
574.000	354.748	80.002	20.008	100.519	18.668	155.259	0.494
576.000	355.734	80.002	20.009	100.574	18.619	160.240	0.503
578.000	356.715	80.003	20.007	100.618	18.584	163.813	0.503
580.000	357.748	80.002	20.009	100.737	18.539	168.355	0.498
582.000	358.690	80.002	20.009	100.631	18.495	173.030	0.477
584.000	359.767	80.002	20.009	100.576	18.467	175.949	0.557
586.000	360.746	80.002	20.009	100.500	18.441	178.692	0.508
588.000	361.755	80.002	20.009	100.471	18.439	178.969	0.520
590.000	362.693	80.002	20.008	100.481	18.447	178.176	0.491
592.000	363.675	80.002	20.009	100.445	18.451	177.780	0.459
594.000	364.714	80.001	20.009	100.450	18.456	177.352	0.501
596.000	365.665	80.003	20.009	100.504	18.474	175.574	0.482
598.000	366.645	80.003	20.009	100.531	18.505	172.443	0.553
600.001	367.628	80.002	20.009	100.575	18.539	168.915	0.489
602.000	368.596	80.001	20.009	100.602	18.568	165.838	0.451
604.000	369.632	80.001	20.009	100.589	18.593	163.283	0.519
606.000	370.618	80.002	20.009	100.643	18.616	160.852	0.492
608.000	371.658	80.002	20.009	100.671	18.638	158.675	0.505
610.000	372.634	80.001	20.010	100.725	18.658	156.579	0.468
612.000	373.679	80.002	20.009	100.708	18.677	154.609	0.529
614.000	374.680	80.001	20.010	100.707	18.697	152.528	0.496
616.000	375.701	80.001	20.009	100.691	18.719	150.286	0.453
618.000	376.720	80.000	20.010	100.682	18.740	148.128	0.505
620.000	377.740	80.001	20.009	100.689	18.765	145.584	0.526
622.000	378.804	80.002	20.009	100.677	18.794	142.554	0.479
624.000	379.819	80.001	20.010	100.673	18.822	139.659	0.519
626.000	380.847	80.002	20.009	100.658	18.846	137.257	0.545
628.000	381.886	80.002	20.009	100.682	18.874	134.333	0.561
630.000	382.919	80.002	20.010	100.674	18.904	131.188	0.522
632.000	383.912	80.002	20.010	100.678	18.934	128.133	0.509
634.000	384.900	80.003	20.009	100.677	18.969	124.556	0.472
636.000	385.953	80.001	20.009	100.672	19.006	120.763	0.513
638.000	387.016	80.001	20.009	100.682	19.040	117.190	0.516
640.000	388.040	80.002	20.009	100.663	19.080	113.098	0.521
642.000	389.040	80.001	20.009	100.683	19.113	109.678	0.514
644.000	390.049	80.001	20.009	100.670	19.156	105.271	0.499
646.000	391.123	80.002	20.009	100.683	19.196	101.181	0.479
648.000	392.108	80.003	20.009	100.682	19.237	96.940	0.473
650.000	393.114	80.001	20.010	100.682	19.279	92.645	0.478
652.000	394.204	80.001	20.009	100.680	19.316	88.825	0.547
654.000	395.127	80.002	20.010	100.681	19.360	84.229	0.493
656.000	396.208	80.003	20.009	100.681	19.399	80.266	0.526
658.000	397.139	80.002	20.010	100.675	19.438	76.258	0.479
660.000	398.181	80.002	20.010	100.683	19.481	71.766	0.513
662.000	399.198	80.002	20.009	100.659	19.519	67.906	0.474
664.000	400.202	80.002	20.010	100.684	19.559	63.790	0.444
666.000	401.276	80.001	20.009	100.664	19.601	59.414	0.516
668.000	402.222	80.003	20.010	100.684	19.639	55.581	0.508
670.000	403.220	80.001	20.009	100.695	19.674	51.891	0.495
672.000	404.254	80.001	20.010	100.683	19.710	48.269	0.525
674.001	405.089	80.002	20.010	100.683	19.745	44.582	0.471
676.000	406.125	80.002	20.009	100.684	19.775	41.577	0.540
678.000	407.097	80.002	20.010	100.691	19.803	38.669	0.499
680.000	408.110	80.002	20.009	100.663	19.829	35.927	0.527
682.001	409.137	80.002	20.009	100.678	19.860	32.789	0.503
684.000	410.086	80.001	20.009	100.663	19.884	30.315	0.507
686.000	411.037	80.003	20.009	100.675	19.910	27.629	0.472
688.001	412.109	80.002	20.009	100.672	19.931	25.476	0.514
690.000	413.098	80.002	20.009	100.654	19.947	23.774	0.522
692.000	414.040	80.002	20.009	100.651	19.966	21.795	0.459
694.000	415.012	80.001	20.009	100.627	19.982	20.220	0.490
696.000	415.967	80.002	20.009	100.632	19.999	18.485	0.489
698.000	416.955	80.001	20.009	100.602	20.009	17.367	0.545
700.000	417.972	80.001	20.009	100.608	20.022	16.055	0.497
702.000	418.979	80.002	20.010	100.603	20.037	14.552	0.487
704.000	419.947	80.002	20.010	100.605	20.044	13.853	0.472
706.000	420.918	80.002	20.009	100.600	20.054	12.813	0.512
708.001	421.913	80.001	20.009	100.577	20.062	11.960	0.485
710.000	422.825	80.002	20.009	100.562	20.073	10.870	0.453
712.000	423.887	80.000	20.008	100.549	20.076	10.505	0.485
714.000	424.782	80.003	20.009	100.552	20.083	9.799	0.471
716.000	425.788	80.002	20.009	100.535	20.090	9.060	0.472
718.000	426.799	80.003	20.010	100.552	20.095	8.576	0.510
720.000	427.759	80.002	20.009	100.537	20.098	8.212	0.489
722.000	428.771	80.002	20.010	100.538	20.100	8.011	0.470
724.000	429.779	80.002	20.009	100.531	20.106	7.438	0.500
726.000	430.860	80.001	20.009	100.524	20.112	6.851	0.516
728.000	431.831	80.003	20.009	100.518	20.113	6.703	0.526
730.000	432.819	80.003	20.009	100.523	20.115	6.468	0.515
732.000	433.770	80.000	20.009	100.515	20.122	5.745	0.475
734.000	434.783	80.002	20.009	100.510	20.123	5.668	0.496
736.000	435.732	80.001	20.009	100.524	20.120	5.967	0.516
738.000	436.680	80.003	20.009	100.503	20.124	5.618	0.476
740.000	437.662	80.002	20.009	100.520	20.122	5.769	0.460
742.000	438.667	80.002	20.009	100.498	20.122	5.736	0.516
744.000	439.658	80.002	20.009	100.500	20.122	5.748	0.507
746.000	440.638	80.002	20.008	100.484	20.125	5.437	0.447
748.000	441.637	80.001	20.009	100.489	20.127	5.254	0.478
750.000	442.582	80.001	20.008	100.493	20.128	5.144	0.517
752.000	443.588	80.002	20.009	100.482	20.129	5.057	0.515
754.000	444.545	80.001	20.009	100.499	20.131	4.812	0.478
756.000	445.544	80.002	20.009	100.493	20.131	4.845	0.464
758.000	446.520	80.001	20.009	100.498	20.133	4.639	0.493
760.000	447.511	80.003	20.010	100.471	20.133	4.616	0.429
762.001	448.526	80.001	20.009	100.497	20.129	5.095	0.516
764.000	449.521	80.002	20.009	100.484	20.135	4.405	0.491
766.000	450.502	80.001	20.009	100.498	20.136	4.373	0.500
768.000	451.506	80.000	20.008	100.493	20.134	4.528	0.544
770.000	452.431	80.003	20.010	100.498	20.132	4.754	0.463
772.000	453.485	80.002	20.010	100.474	20.135	4.480	0.500
774.000	454.418	80.001	20.008	100.481	20.138	4.173	0.492
776.000	455.447	80.002	20.009	100.475	20.130	4.917	0.542
778.000	456.415	80.001	20.009	100.458	20.133	4.619	0.474
780.001	457.339	80.002	20.008	100.487	20.138	4.101	0.446
782.000	458.373	80.003	20.009	100.482	20.136	4.377	0.490
784.000	459.373	80.001	20.008	100.478	20.134	4.523	0.532
786.000	460.323	80.000	20.009	100.438	20.135	4.486	0.499
788.000	461.238	80.002	20.008	100.455	20.134	4.574	0.468
790.000	462.289	80.002	20.008	100.474	20.135	4.428	0.478
792.000	463.259	80.001	20.009	100.479	20.133	4.673	0.507
794.000	464.260	80.002	20.009	100.495	20.134	4.530	0.514
796.000	465.267	80.002	20.009	100.481	20.135	4.436	0.497
798.000	466.270	80.002	20.009	100.494	20.135	4.409	0.512
800.000	467.285	80.001	20.008	100.501	20.135	4.470	0.470
802.000	468.321	80.001	20.008	100.492	20.135	4.420	0.567
804.000	469.232	80.001	20.008	100.482	20.135	4.407	0.573
806.000	470.236	80.001	20.008	100.475	20.135	4.476	0.543
808.000	471.157	80.002	20.008	100.482	20.133	4.629	0.443
810.000	472.217	80.002	20.009	100.471	20.134	4.509	0.508
812.000	473.212	80.001	20.008	100.487	20.133	4.701	0.516
814.000	474.174	80.002	20.009	100.475	20.134	4.575	0.473
816.000	475.219	80.003	20.009	100.485	20.135	4.450	0.528
818.000	476.169	80.002	20.009	100.473	20.133	4.644	0.502
820.000	477.200	80.002	20.008	100.494	20.134	4.577	0.531
822.000	478.192	80.003	20.009	100.479	20.132	4.718	0.516
824.000	479.179	80.002	20.008	100.486	20.135	4.471	0.497
826.000	480.208	80.002	20.008	100.500	20.133	4.614	0.529
828.000	481.235	80.002	20.009	100.515	20.133	4.616	0.518
830.000	482.182	80.002	20.008	100.497	20.133	4.705	0.485
832.001	483.248	80.003	20.008	100.486	20.131	4.859	0.511
834.000	484.236	80.002	20.009	100.495	20.134	4.583	0.493
836.000	485.213	80.002	20.008	100.481	20.133	4.649	0.511
838.000	486.226	80.002	20.008	100.499	20.133	4.701	0.501
840.000	487.178	80.002	20.009	100.482	20.132	4.800	0.457
842.000	488.204	80.001	20.008	100.493	20.133	4.690	0.528
844.000	489.268	80.001	20.009	100.477	20.135	4.417	0.506
846.000	490.234	80.002	20.008	100.504	20.131	4.909	0.478
848.000	491.244	80.002	20.008	100.474	20.130	4.971	0.503
850.000	492.229	80.001	20.008	100.512	20.131	4.901	0.490
852.000	493.155	80.001	20.009	100.467	20.132	4.726	0.463
854.000	494.143	80.002	20.008	100.483	20.134	4.579	0.439
856.000	495.151	80.003	20.009	100.470	20.132	4.763	0.500
858.000	496.190	80.002	20.008	100.485	20.132	4.709	0.507
860.000	497.163	80.001	20.009	100.468	20.130	4.913	0.495
862.000	498.072	80.003	20.009	100.478	20.135	4.479	0.475
864.000	499.068	80.003	20.008	100.489	20.135	4.464	0.497
866.000	500.098	80.002	20.008	100.476	20.135	4.444	0.494
868.001	501.131	80.002	20.008	100.485	20.132	4.709	0.571
870.000	502.113	80.002	20.008	100.469	20.133	4.602	0.506
872.000	503.063	80.003	20.008	100.495	20.135	4.473	0.477
874.000	504.024	80.002	20.008	100.477	20.134	4.570	0.500
876.000	504.985	80.003	20.009	100.492	20.134	4.594	0.482
878.000	505.940	80.002	20.009	100.467	20.135	4.456	0.509
880.000	506.930	80.002	20.008	100.490	20.134	4.568	0.547
882.000	507.852	80.001	20.008	100.469	20.133	4.692	0.473
884.000	508.815	80.002	20.009	100.492	20.132	4.755	0.446
886.000	509.819	80.002	20.009	100.495	20.133	4.647	0.504
888.000	510.774	80.002	20.008	100.484	20.128	5.137	0.487
890.000	511.712	80.002	20.008	100.479	20.132	4.783	0.441
892.000	512.716	80.002	20.008	100.466	20.135	4.437	0.485
894.000	513.661	80.002	20.009	100.497	20.136	4.303	0.485
896.000	514.634	80.001	20.008	100.475	20.135	4.483	0.506
898.000	515.606	80.002	20.008	100.503	20.133	4.699	0.479
900.000	516.613	80.001	20.009	100.482	20.133	4.615	0.474
902.000	517.647	80.002	20.008	100.504	20.131	4.820	0.504
904.000	518.646	80.002	20.009	100.467	20.132	4.798	0.528
906.000	519.593	80.001	20.008	100.438	20.131	4.910	0.484
908.000	520.638	80.002	20.008	100.438	20.131	4.849	0.504
910.000	521.690	80.002	20.008	100.494	20.131	4.874	0.476
912.000	522.668	80.002	20.008	100.471	20.131	4.902	0.502
914.000	523.637	80.002	20.008	100.486	20.133	4.666	0.513
916.000	524.710	80.002	20.009	100.477	20.132	4.777	0.554
918.000	525.654	80.003	20.009	100.561	20.135	4.463	0.546
920.000	526.734	80.002	20.008	100.491	20.138	4.121	0.523
922.000	527.714	80.003	20.008	100.468	20.140	3.913	0.511
924.000	528.710	80.002	20.008	100.481	20.137	4.213	0.496
926.000	529.743	80.003	20.010	100.485	20.135	4.415	0.517
928.000	530.745	80.003	20.008	100.500	20.139	4.006	0.530
930.000	531.805	80.003	20.009	100.477	20.130	4.915	0.511
932.000	532.781	80.002	20.009	100.456	20.129	5.044	0.494
934.000	533.744	80.002	20.007	100.472	20.132	4.807	0.495
936.000	534.780	80.002	20.010	100.414	20.131	4.866	0.521
938.000	535.763	80.002	20.008	100.460	20.130	5.008	0.526
940.000	536.778	80.003	20.011	100.462	20.128	5.121	0.499
942.000	537.743	80.003	20.008	100.499	20.130	4.930	0.499
944.000	538.798	80.004	20.010	100.413	20.135	4.414	0.487
946.000	539.698	80.003	20.008	100.557	20.136	4.347	0.486
948.000	540.770	80.003	20.008	100.543	20.135	4.485	0.539
950.000	541.686	80.003	20.008	100.487	20.130	4.922	0.518
952.000	542.657	80.002	20.008	100.455	20.131	4.869	0.464
954.000	543.641	80.002	20.008	100.481	20.130	4.942	0.475
956.000	544.642	80.002	20.009	100.450	20.129	5.054	0.503
958.000	545.639	80.001	20.009	100.474	20.131	4.860	0.511
960.000	546.584	80.003	20.009	100.480	20.133	4.690	0.514
962.000	547.581	80.001	20.009	100.487	20.131	4.814	0.522
964.000	548.502	80.003	20.009	100.469	20.131	4.838	0.499
966.000	549.483	80.002	20.008	100.486	20.129	5.020	0.488
968.000	550.491	80.002	20.008	100.489	20.132	4.771	0.470
970.000	551.479	80.005	20.012	100.485	20.130	4.951	0.495
972.000	552.478	80.001	20.009	100.500	20.129	5.043	0.535
974.000	553.491	80.002	20.008	100.486	20.128	5.163	0.554
976.000	554.430	80.001	20.008	100.492	20.126	5.395	0.475
978.000	555.499	80.001	20.008	100.493	20.125	5.498	0.504
980.000	556.541	80.002	20.008	100.502	20.128	5.130	0.545
982.000	557.438	80.003	20.008	100.499	20.128	5.137	0.488
984.000	558.522	80.003	20.008	100.522	20.129	5.024	0.512
986.000	559.516	80.001	20.008	100.493	20.127	5.322	0.499
988.000	560.499	80.002	20.009	100.496	20.125	5.429	0.478
990.000	561.554	80.002	20.009	100.506	20.125	5.497	0.538
992.000	562.505	80.002	20.008	100.500	20.125	5.457	0.499
994.000	563.496	80.001	20.009	100.514	20.126	5.426	0.439
996.000	564.531	80.003	20.010	100.468	20.125	5.437	0.494
998.000	565.558	80.003	20.008	100.445	20.126	5.413	0.487
1000.000	566.594	80.002	20.008	100.498	20.128	5.185	0.532
1002.000	567.511	80.003	20.009	100.499	20.130	5.009	0.458
1004.000	568.559	80.001	20.008	100.596	20.126	5.414	0.473
1006.000	569.516	80.002	20.008	100.534	20.127	5.296	0.497
1008.000	570.517	80.003	20.008	100.536	20.127	5.268	0.480
1010.000	571.477	80.002	20.008	100.498	20.126	5.397	0.478
1012.000	572.491	80.001	20.008	100.498	20.126	5.331	0.478
1014.000	573.495	80.002	20.009	100.511	20.127	5.250	0.496
1016.000	574.496	80.001	20.008	100.484	20.125	5.525	0.518
1018.000	575.482	80.002	20.008	100.499	20.127	5.270	0.488
1020.000	576.458	80.002	20.009	100.488	20.124	5.571	0.445
1022.000	577.467	80.004	20.009	100.521	20.126	5.382	0.511
1024.000	578.442	80.003	20.008	100.499	20.126	5.351	0.508
1026.000	579.495	80.002	20.008	100.487	20.126	5.416	0.513
1028.000	580.485	80.002	20.008	100.501	20.126	5.406	0.513
1030.000	581.468	80.002	20.009	100.490	20.125	5.504	0.489
1032.000	582.461	80.001	20.008	100.494	20.124	5.620	0.495
1034.001	583.452	80.001	20.008	100.467	20.122	5.750	0.477
1036.000	584.420	80.002	20.008	100.491	20.120	5.983	0.478
1038.000	585.437	80.002	20.008	100.481	20.123	5.700	0.553
1040.000	586.407	80.003	20.008	100.467	20.124	5.552	0.468
1042.001	587.400	80.003	20.008	100.493	20.125	5.527	0.480
1044.000	588.354	80.001	20.008	100.483	20.123	5.733	0.506
1046.000	589.321	80.002	20.009	100.500	20.125	5.495	0.476
1048.001	590.246	80.002	20.009	100.481	20.122	5.766	0.464
1050.001	591.208	80.001	20.008	100.479	20.123	5.639	0.495
1052.000	592.152	80.002	20.008	100.490	20.123	5.670	0.506
1054.000	593.130	80.002	20.009	100.482	20.121	5.919	0.503
1056.000	594.151	80.002	20.008	100.514	20.120	5.979	0.487
1058.000	595.145	80.002	20.009	100.477	20.120	6.025	0.519
1060.001	596.128	80.002	20.008	100.485	20.121	5.849	0.504
1062.000	597.133	80.001	20.008	100.505	20.121	5.928	0.515
1064.000	598.138	80.001	20.009	100.478	20.120	6.010	0.528
1066.000	599.164	80.001	20.008	100.497	20.120	5.976	0.535
1068.001	600.120	80.001	20.008	100.473	20.119	6.060	0.508
1070.000	601.131	80.003	20.009	100.499	20.122	5.775	0.487
1072.001	602.126	80.002	20.008	100.492	20.120	5.993	0.493
1074.000	603.123	80.002	20.008	100.475	20.120	5.995	0.498
1076.000	604.186	80.001	20.008	100.492	20.117	6.276	0.504
1078.000	605.193	80.001	20.008	100.483	20.119	6.103	0.510
1080.000	606.215	80.002	20.008	100.492	20.119	6.053	0.485
1082.000	607.269	80.001	20.008	100.466	20.117	6.249	0.533
1084.001	608.250	80.001	20.008	100.486	20.115	6.473	0.489
1086.001	609.303	80.002	20.008	100.480	20.118	6.217	0.525
1088.000	610.328	80.003	20.008	100.487	20.117	6.270	0.541
1090.000	611.349	80.002	20.008	100.481	20.114	6.627	0.505
1092.000	612.347	80.003	20.007	100.495	20.111	6.901	0.525
1094.000	613.356	80.001	20.008	100.442	20.117	6.334	0.544
1096.000	614.344	80.003	20.008	100.496	20.119	6.091	0.532
1098.001	615.338	80.002	20.007	100.540	20.122	5.736	0.494
1100.001	616.339	80.001	20.008	100.575	20.121	5.911	0.505
1102.001	617.386	80.001	20.007	100.533	20.121	5.846	0.514
1104.000	618.398	80.003	20.008	100.511	20.117	6.286	0.507
1106.001	619.388	80.001	20.007	100.535	20.118	6.157	0.531
1108.000	620.370	80.001	20.008	100.507	20.120	5.986	0.491
1110.000	621.434	80.002	20.008	100.507	20.117	6.291	0.553
1112.001	622.491	80.003	20.008	100.493	20.113	6.759	0.547
1114.000	623.443	80.002	20.009	100.447	20.110	7.040	0.480
1116.000	624.461	80.002	20.008	100.473	20.110	7.017	0.511
1118.000	625.473	80.002	20.008	100.486	20.114	6.575	0.508
1120.001	626.443	80.001	20.008	100.527	20.115	6.518	0.455
1122.000	627.395	80.002	20.008	100.507	20.116	6.357	0.495
1124.000	628.458	80.000	20.007	100.585	20.122	5.806	0.522
1126.000	629.383	80.003	20.008	100.561	20.120	6.025	0.481
1128.000	630.389	80.001	20.008	100.510	20.118	6.243	0.486
1130.000	631.338	80.001	20.008	100.528	20.117	6.333	0.470
1132.001	632.327	80.002	20.009	100.495	20.117	6.335	0.488
1134.000	633.327	80.002	20.008	100.516	20.117	6.254	0.501
1136.000	634.289	80.001	20.008	100.479	20.115	6.523	0.527
1138.000	635.241	80.002	20.008	100.504	20.114	6.584	0.502
1140.001	636.267	80.002	20.008	100.507	20.114	6.562	0.499
1142.000	637.234	80.004	20.008	100.488	20.114	6.611	0.468
1144.000	638.215	80.003	20.008	100.525	20.112	6.797	0.491
1146.000	639.238	80.003	20.008	100.491	20.113	6.680	0.491
1148.000	640.230	80.001	20.008	100.519	20.115	6.474	0.471
1150.000	641.251	80.003	20.008	100.506	20.112	6.850	0.474
1152.000	642.208	80.002	20.008	100.501	20.113	6.676	0.489
1154.001	643.261	80.002	20.008	100.533	20.116	6.431	0.508
1156.001	644.231	80.002	20.008	100.536	20.118	6.212	0.509
1158.001	645.204	80.003	20.008	100.556	20.120	6.011	0.498
1160.001	646.164	80.002	20.008	100.515	20.120	6.034	0.459
1162.000	647.206	80.002	20.008	100.559	20.119	6.131	0.473
1164.000	648.186	80.002	20.008	100.539	20.119	6.102	0.508
1166.000	649.141	80.002	20.008	100.496	20.116	6.391	0.485
1168.001	650.147	80.001	20.008	100.524	20.118	6.241	0.480
1170.000	651.073	80.002	20.008	100.515	20.120	6.005	0.502
1172.000	652.080	80.003	20.008	100.559	20.120	6.007	0.486
1174.001	653.085	80.001	20.008	100.541	20.118	6.199	0.457
1176.000	654.060	80.003	20.008	100.562	20.122	5.751	0.514
1178.000	655.030	80.002	20.008	100.538	20.120	6.025	0.458
1180.000	656.045	80.002	20.008	100.536	20.118	6.204	0.498
1182.000	656.918	80.002	20.008	100.550	20.117	6.295	0.441
1184.000	658.019	80.001	20.008	100.555	20.119	6.096	0.501
1186.001	659.016	80.004	20.008	100.563	20.116	6.371	0.523
1188.000	660.012	80.002	20.007	100.537	20.116	6.350	0.525
1190.000	660.965	80.001	20.008	100.550	20.113	6.682	0.447
1192.001	662.024	80.001	20.008	100.492	20.110	7.022	0.528
1194.000	663.009	80.002	20.008	100.492	20.106	7.390	0.513
1196.001	663.996	80.001	20.008	100.479	20.106	7.402	0.520
1198.000	664.959	80.003	20.007	100.454	20.107	7.291	0.475
1200.001	665.958	80.002	20.008	100.445	20.104	7.617	0.517
1202.000	666.935	80.002	20.007	100.438	20.105	7.503	0.461
1204.001	667.885	80.002	20.008	100.486	20.105	7.534	0.465
1206.001	668.829	80.003	20.008	100.462	20.107	7.328	0.468
1208.001	669.770	80.003	20.008	100.468	20.106	7.424	0.456
1210.000	670.727	80.003	20.008	100.475	20.107	7.374	0.465
1212.001	671.678	80.003	20.007	100.530	20.108	7.256	0.447
1214.001	672.671	80.002	20.008	100.529	20.108	7.189	0.490
1216.001	673.678	80.002	20.008	100.544	20.111	6.875	0.465
1218.000	674.664	80.001	20.008	100.548	20.109	7.171	0.510
1220.001	675.679	80.002	20.008	100.549	20.108	7.184	0.530
1222.000	676.679	80.002	20.008	100.517	20.109	7.101	0.475
1224.001	677.677	80.002	20.008	100.518	20.110	7.021	0.454
1226.000	678.784	80.002	20.008	100.519	20.109	7.145	0.515
1228.000	679.831	80.002	20.007	100.510	20.108	7.261	0.505
1230.000	680.877	80.002	20.008	100.508	20.106	7.425	0.517
1232.001	681.939	80.002	20.008	100.513	20.107	7.366	0.510
1234.000	683.032	80.002	20.008	100.532	20.109	7.163	0.548
1236.000	684.071	80.002	20.008	100.522	20.110	6.977	0.521
1238.001	685.176	80.003	20.008	100.513	20.108	7.231	0.538
1240.001	686.228	80.002	20.008	100.508	20.105	7.498	0.527
1242.001	687.341	80.001	20.008	100.501	20.108	7.260	0.565
1244.001	688.409	80.003	20.008	100.510	20.105	7.498	0.549
1246.000	689.510	80.001	20.008	100.505	20.104	7.636	0.578
1248.000	690.534	80.004	20.008	100.524	20.103	7.693	0.524
1250.000	691.660	80.002	20.008	100.507	20.105	7.521	0.567
1252.000	692.631	80.001	20.008	100.522	20.103	7.729	0.480
1254.000	693.737	80.003	20.008	100.504	20.099	8.114	0.526
1256.000	694.842	80.000	20.008	100.524	20.099	8.159	0.536
1258.001	695.891	80.003	20.008	100.512	20.099	8.196	0.581
1260.000	696.962	80.001	20.008	100.519	20.099	8.200	0.546
1262.001	697.967	80.002	20.008	100.515	20.100	8.060	0.550
1264.000	699.038	80.002	20.008	100.517	20.099	8.161	0.506
1266.001	700.105	80.002	20.008	100.524	20.100	8.061	0.539
1268.000	701.189	80.002	20.008	100.518	20.102	7.877	0.546
1270.000	702.142	80.002	20.007	100.531	20.100	8.041	0.491
1272.000	703.196	80.001	20.008	100.508	20.100	8.084	0.562
1274.000	704.223	80.002	20.008	100.520	20.100	8.022	0.499
1276.001	705.280	80.002	20.008	100.498	20.100	8.031	0.518
1278.001	706.369	80.004	20.008	100.526	20.101	7.908	0.561
1280.000	707.393	80.003	20.008	100.511	20.100	8.022	0.506
1282.000	708.428	80.001	20.008	100.529	20.097	8.372	0.510
1284.000	709.490	80.004	20.008	100.520	20.096	8.414	0.566
1286.001	710.490	80.002	20.008	100.533	20.097	8.317	0.496
1288.000	711.569	80.002	20.008	100.522	20.097	8.367	0.542
1290.001	712.598	80.003	20.008	100.504	20.094	8.713	0.512
1292.000	713.620	80.002	20.008	100.514	20.094	8.621	0.556
1294.000	714.681	80.002	20.008	100.504	20.094	8.689	0.519
1296.000	715.735	80.002	20.008	100.528	20.096	8.430	0.518
1298.000	716.732	80.002	20.008	100.524	20.093	8.779	0.453
1300.001	717.712	80.002	20.007	100.544	20.098	8.224	0.561
1302.000	718.789	80.002	20.008	100.526	20.094	8.685	0.540
1304.001	719.830	80.003	20.008	100.540	20.095	8.521	0.525
1306.001	720.810	80.002	20.008	100.539	20.094	8.632	0.449
1308.001	721.819	80.002	20.008	100.527	20.095	8.527	0.492
1310.000	722.817	80.001	20.008	100.517	20.094	8.625	0.468
1312.000	723.872	80.002	20.008	100.511	20.095	8.587	0.528
1314.001	724.872	80.002	20.008	100.523	20.095	8.568	0.497
1316.001	725.925	80.002	20.008	100.524	20.097	8.371	0.499
1318.000	726.996	80.002	20.008	100.540	20.095	8.603	0.476
1320.000	728.019	80.002	20.008	100.521	20.094	8.617	0.472
1322.001	729.084	80.004	20.008	100.532	20.091	9.000	0.525
1324.001	730.141	80.002	20.008	100.521	20.094	8.640	0.521
1326.000	731.150	80.003	20.008	100.540	20.093	8.736	0.532
1328.000	732.180	80.003	20.008	100.528	20.091	8.941	0.523
1330.001	733.231	80.002	20.009	100.524	20.092	8.881	0.521
1332.001	734.297	80.002	20.008	100.528	20.090	9.065	0.552
1334.001	735.336	80.003	20.008	100.541	20.091	8.960	0.510
1336.000	736.350	80.003	20.008	100.551	20.092	8.903	0.527
1338.000	737.344	80.002	20.008	100.530	20.091	8.996	0.478
1340.000	738.429	80.002	20.008	100.535	20.091	8.981	0.516
1342.000	739.504	80.002	20.008	100.510	20.091	8.978	0.551
1344.000	740.484	80.002	20.008	100.540	20.091	9.023	0.482
1346.000	741.491	80.001	20.008	100.531	20.089	9.175	0.519
1348.000	742.496	80.002	20.008	100.520	20.090	9.128	0.495