File: Experiments/TUBS/mcc/mcc_piece_1mg_dyn30_r2.txt
Sample Weight (mg):	1.02
Heating Rate (C/s):	0.5
Combustor Temp (C):	900
N2 Flow Rate (cc/min):	80
O2 Flow Rate (cc/min):	20
Time (s)	Temperature (C)	N2 flow rate (cc/min)	O2 flow rate (cc/min)	Flow Rate (cc/min)	Oxygen (%)	HRR (W/g)	Heating rate (C/s)
0.000	87.541	80.000	20.008	100.275	20.084	10.098	-0.055
2.000	87.404	80.001	20.008	100.286	20.083	10.397	-0.076
4.000	87.311	80.002	20.008	100.277	20.084	10.259	-0.012
6.000	87.216	80.000	20.007	100.297	20.086	9.606	-0.048
8.000	87.128	80.001	20.008	100.302	20.086	9.748	-0.055
10.000	87.059	80.002	20.008	100.303	20.081	11.103	-0.018
12.000	86.979	79.999	20.008	100.274	20.079	11.753	-0.058
14.001	86.965	80.000	20.008	100.278	20.077	12.456	-0.022
16.000	86.932	80.000	20.007	100.261	20.076	12.750	-0.023
18.000	86.963	80.002	20.008	100.275	20.076	12.764	-0.026
20.000	86.922	80.000	20.008	100.269	20.072	13.780	0.004
22.000	86.994	80.002	20.008	100.277	20.071	14.249	0.023
24.000	87.074	80.001	20.008	100.269	20.073	13.721	0.044
26.000	87.140	80.002	20.008	100.319	20.071	14.202	0.062
28.000	87.166	80.000	20.008	100.284	20.069	14.939	0.022
30.000	87.288	80.001	20.008	100.294	20.068	15.022	0.064
32.000	87.407	80.001	20.008	100.275	20.071	14.202	0.036
34.000	87.544	80.001	20.008	100.289	20.070	14.652	0.083
36.000	87.633	80.000	20.008	100.275	20.070	14.527	0.049
38.000	87.794	80.000	20.007	100.300	20.067	15.578	0.043
40.001	88.001	80.001	20.007	100.317	20.065	16.036	0.114
42.000	88.191	80.002	20.008	100.329	20.062	16.899	0.114
44.000	88.382	80.001	20.008	100.328	20.062	17.126	0.133
46.000	88.555	80.001	20.008	100.337	20.057	18.479	0.077
48.000	88.799	80.002	20.008	100.334	20.057	18.676	0.139
50.000	89.048	80.001	20.008	100.351	20.056	18.901	0.156
52.000	89.358	80.001	20.008	100.372	20.051	20.384	0.145
54.000	89.610	80.001	20.008	100.349	20.051	20.526	0.118
56.000	89.948	80.001	20.008	100.357	20.046	21.953	0.181
58.001	90.249	80.003	20.008	100.378	20.043	22.775	0.163
60.000	90.555	79.999	20.008	100.425	20.042	23.190	0.178
62.000	90.910	80.001	20.007	100.434	20.036	25.055	0.179
64.001	91.323	79.999	20.008	100.460	20.036	24.879	0.188
66.000	91.740	80.000	20.008	100.473	20.036	25.110	0.193
68.000	92.210	79.999	20.007	100.497	20.028	27.531	0.242
70.001	92.717	80.000	20.007	100.479	20.031	26.567	0.241
72.000	93.274	80.001	20.008	100.501	20.029	27.120	0.265
74.001	93.822	80.001	20.007	100.489	20.034	25.749	0.280
76.000	94.411	80.001	20.008	100.482	20.028	27.526	0.303
78.001	94.987	80.001	20.008	100.467	20.032	26.310	0.285
80.001	95.587	80.002	20.007	100.491	20.028	27.496	0.241
82.000	96.153	80.003	20.008	100.474	20.025	28.260	0.130
84.001	96.981	79.999	20.008	100.500	20.025	28.490	0.114
86.001	97.589	79.999	20.008	100.499	20.023	28.982	0.343
88.000	98.150	80.000	20.008	100.521	20.024	28.552	0.302
90.000	98.913	80.002	20.008	100.506	20.022	29.279	0.402
92.000	99.858	79.999	20.007	100.538	20.020	29.922	0.452
94.000	100.864	80.001	20.007	100.543	20.017	30.936	0.680
96.001	101.342	79.999	20.008	100.544	20.017	30.918	0.317
98.000	102.258	80.000	20.008	100.513	20.016	31.235	0.534
100.000	103.034	79.999	20.011	100.541	20.012	32.437	0.487
102.001	103.890	79.999	20.008	100.493	20.015	31.594	0.407
104.000	104.822	79.999	20.007	100.470	20.020	29.968	0.413
106.000	105.741	80.000	20.008	100.702	20.019	30.227	0.482
108.001	106.698	80.001	20.008	100.605	20.021	29.768	0.486
110.001	107.626	80.002	20.007	100.558	20.019	30.296	0.481
112.000	108.611	80.001	20.008	100.582	20.021	29.582	0.521
114.000	109.641	80.000	20.008	100.535	20.020	29.957	0.486
116.000	110.689	80.000	20.008	100.582	20.018	30.398	0.538
118.000	111.682	80.001	20.007	100.551	20.020	29.782	0.530
120.000	112.793	80.001	20.007	100.573	20.020	29.865	0.529
122.000	113.846	79.999	20.008	100.593	20.021	29.619	0.519
124.000	114.950	80.000	20.007	100.581	20.022	29.256	0.555
126.000	116.063	80.002	20.008	100.574	20.024	28.839	0.554
128.000	117.207	80.001	20.008	100.540	20.018	30.412	0.562
130.000	118.305	80.002	20.007	100.550	20.020	29.996	0.544
132.000	119.515	80.002	20.008	100.524	20.026	28.148	0.607
134.000	120.678	80.001	20.008	100.533	20.027	27.783	0.604
136.001	121.854	80.000	20.008	100.524	20.026	28.120	0.609
138.000	123.037	80.002	20.007	100.571	20.027	27.902	0.603
140.000	124.204	80.002	20.008	100.521	20.026	28.020	0.603
142.000	125.427	80.001	20.008	100.471	20.025	28.398	0.624
144.000	126.559	80.001	20.008	100.491	20.025	28.471	0.568
146.000	127.758	80.001	20.008	100.462	20.025	28.263	0.607
148.000	129.030	79.999	20.007	100.489	20.026	28.102	0.633
150.000	130.243	80.000	20.009	100.478	20.025	28.435	0.655
152.000	131.426	80.002	20.007	100.487	20.025	28.210	0.591
154.000	132.630	80.001	20.008	100.456	20.026	28.118	0.590
156.000	133.873	80.000	20.008	100.456	20.026	28.135	0.640
158.000	135.064	80.000	20.008	100.459	20.027	27.856	0.620
160.000	136.284	80.001	20.008	100.456	20.027	27.615	0.593
162.001	137.463	80.001	20.007	100.461	20.029	27.130	0.612
164.000	138.632	80.001	20.008	100.425	20.032	26.139	0.587
166.000	139.864	80.001	20.008	100.450	20.029	27.187	0.584
168.001	141.056	80.001	20.008	100.421	20.030	26.867	0.626
170.000	142.220	80.000	20.007	100.426	20.030	26.901	0.574
172.000	143.454	80.001	20.008	100.390	20.029	27.097	0.575
174.000	144.692	80.000	20.008	100.432	20.028	27.308	0.583
176.000	145.912	80.000	20.008	100.423	20.032	26.257	0.618
178.000	147.178	80.000	20.008	100.429	20.033	25.937	0.609
180.000	148.306	79.999	20.008	100.407	20.033	25.999	0.595
182.000	149.471	80.001	20.008	100.408	20.040	23.873	0.615
184.000	150.669	80.002	20.008	100.418	20.036	24.985	0.600
186.000	151.832	80.000	20.007	100.411	20.039	24.195	0.574
188.000	153.084	80.001	20.008	100.410	20.038	24.368	0.598
190.000	154.194	80.001	20.008	100.400	20.036	25.084	0.727
192.000	155.138	80.003	20.008	100.416	20.036	25.118	0.366
194.000	156.563	80.001	20.007	100.399	20.035	25.229	0.602
196.000	157.666	80.000	20.008	100.415	20.034	25.573	0.530
198.000	158.927	80.001	20.008	100.388	20.035	25.271	0.590
200.000	160.079	80.001	20.008	100.412	20.034	25.629	0.580
202.000	161.237	80.001	20.009	100.375	20.035	25.395	0.601
204.000	162.379	80.000	20.007	100.394	20.035	25.157	0.565
206.000	163.447	79.999	20.008	100.394	20.037	24.533	0.539
208.000	164.611	80.001	20.007	100.399	20.036	24.913	0.576
210.000	165.764	80.000	20.008	100.355	20.043	22.884	0.592
212.000	166.879	80.001	20.008	100.362	20.037	24.662	0.567
214.000	167.993	80.001	20.007	100.370	20.038	24.359	0.561
216.000	169.050	80.000	20.008	100.347	20.038	24.243	0.514
218.000	170.186	80.001	20.008	100.355	20.040	23.845	0.539
220.000	171.281	80.000	20.007	100.376	20.036	24.970	0.579
222.000	172.352	80.000	20.007	100.373	20.038	24.454	0.576
224.000	173.490	79.999	20.008	100.360	20.037	24.567	0.545
226.000	174.566	80.000	20.008	100.368	20.037	24.668	0.574
228.000	175.625	80.001	20.007	100.362	20.039	24.150	0.512
230.000	176.759	80.002	20.009	100.348	20.039	24.000	0.559
232.000	177.843	79.999	20.008	100.365	20.042	23.049	0.532
234.000	178.851	80.001	20.008	100.340	20.042	22.997	0.472
236.000	179.930	80.001	20.007	100.363	20.042	23.188	0.516
238.000	180.932	80.000	20.007	100.340	20.042	23.227	0.529
240.000	181.976	79.999	20.007	100.331	20.044	22.591	0.507
242.000	183.027	79.999	20.008	100.356	20.045	22.164	0.523
244.000	184.093	80.000	20.008	100.358	20.044	22.363	0.515
246.000	185.104	80.000	20.007	100.347	20.042	23.016	0.512
248.000	186.173	80.001	20.008	100.373	20.039	24.073	0.502
250.000	187.218	79.998	20.009	100.301	20.037	24.720	0.504
252.000	188.283	79.999	20.007	100.269	20.040	23.872	0.543
254.000	189.248	79.999	20.007	100.313	20.042	23.109	0.458
256.000	190.352	80.002	20.009	100.330	20.043	22.867	0.535
258.000	191.345	79.999	20.008	100.380	20.045	22.141	0.508
260.000	192.354	80.000	20.008	100.387	20.044	22.440	0.542
262.000	193.330	80.001	20.008	100.326	20.041	23.446	0.478
264.000	194.331	80.001	20.007	100.332	20.041	23.440	0.445
266.000	195.341	80.001	20.007	100.325	20.043	22.907	0.496
268.000	196.385	80.000	20.007	100.345	20.040	23.584	0.532
270.000	197.339	80.001	20.008	100.318	20.043	22.839	0.489
272.000	198.377	80.001	20.007	100.347	20.045	22.218	0.475
274.000	199.388	80.001	20.008	100.327	20.043	22.943	0.507
276.000	200.404	80.001	20.008	100.335	20.040	23.598	0.527
278.000	201.380	80.000	20.008	100.315	20.041	23.374	0.505
280.000	202.320	80.002	20.008	100.326	20.039	24.109	0.477
282.000	203.424	80.001	20.008	100.336	20.040	23.834	0.538
284.000	204.356	80.002	20.008	100.339	20.038	24.221	0.466
286.000	205.375	80.002	20.007	100.337	20.040	23.626	0.470
288.000	206.415	80.001	20.008	100.330	20.037	24.691	0.515
290.000	207.335	80.001	20.007	100.332	20.037	24.755	0.504
292.000	208.326	80.002	20.008	100.319	20.035	25.257	0.493
294.000	209.327	79.999	20.007	100.330	20.038	24.360	0.475
296.001	210.269	80.000	20.008	100.322	20.040	23.824	0.461
298.000	211.252	80.000	20.007	100.342	20.040	23.837	0.484
300.000	212.285	80.000	20.008	100.323	20.040	23.685	0.480
302.000	213.275	80.000	20.008	100.359	20.038	24.352	0.545
304.000	214.260	80.001	20.007	100.348	20.039	24.031	0.498
306.000	215.295	80.002	20.008	100.341	20.040	23.697	0.515
308.000	216.215	80.002	20.007	100.335	20.037	24.765	0.474
310.000	217.280	80.000	20.008	100.346	20.040	23.711	0.512
312.000	218.233	80.001	20.007	100.349	20.039	24.021	0.451
314.000	219.270	80.000	20.008	100.355	20.039	24.103	0.525
316.000	220.278	80.000	20.008	100.328	20.039	23.899	0.507
318.000	221.285	79.999	20.008	100.339	20.036	24.852	0.511
320.000	222.297	80.000	20.008	100.328	20.037	24.599	0.517
322.000	223.263	80.001	20.008	100.346	20.040	23.787	0.500
324.000	224.277	80.001	20.007	100.340	20.039	23.902	0.483
326.000	225.270	80.001	20.008	100.339	20.038	24.259	0.473
328.000	226.351	80.000	20.007	100.325	20.038	24.445	0.521
330.000	227.351	80.001	20.008	100.317	20.038	24.229	0.504
332.000	228.367	80.001	20.007	100.318	20.036	24.806	0.519
334.000	229.352	80.002	20.008	100.324	20.034	25.581	0.481
336.000	230.362	80.001	20.007	100.338	20.035	25.152	0.489
338.000	231.396	80.001	20.008	100.323	20.036	25.075	0.550
340.000	232.407	80.000	20.007	100.329	20.037	24.760	0.475
342.000	233.454	79.999	20.008	100.330	20.037	24.511	0.503
344.000	234.457	80.002	20.008	100.343	20.039	23.973	0.513
346.000	235.419	80.001	20.008	100.310	20.040	23.700	0.507
348.000	236.471	80.001	20.007	100.337	20.040	23.661	0.539
350.001	237.452	80.002	20.008	100.321	20.040	23.673	0.529
352.000	238.437	80.000	20.007	100.332	20.041	23.467	0.474
354.000	239.493	80.001	20.008	100.309	20.041	23.359	0.495
356.000	240.548	80.001	20.008	100.323	20.039	23.940	0.484
358.000	241.629	80.001	20.007	100.308	20.039	23.975	0.515
360.000	242.709	80.000	20.007	100.320	20.040	23.683	0.563
362.000	243.719	80.001	20.008	100.318	20.037	24.616	0.509
364.000	244.792	80.001	20.008	100.337	20.039	23.989	0.523
366.000	245.822	80.000	20.008	100.309	20.040	23.670	0.515
368.000	246.844	80.000	20.008	100.330	20.038	24.371	0.529
370.000	247.822	80.001	20.008	100.313	20.036	24.950	0.523
372.000	248.785	80.000	20.008	100.316	20.037	24.640	0.480
374.000	249.872	80.002	20.007	100.308	20.036	24.806	0.514
376.000	250.853	80.001	20.008	100.316	20.037	24.634	0.462
378.000	251.871	80.001	20.008	100.319	20.037	24.759	0.476
380.000	252.881	80.000	20.008	100.312	20.036	24.812	0.486
382.001	253.893	80.001	20.008	100.308	20.036	25.028	0.524
384.001	254.907	80.001	20.009	100.303	20.038	24.429	0.521
386.000	255.941	80.001	20.008	100.329	20.036	24.859	0.562
388.000	256.938	80.001	20.008	100.314	20.040	23.657	0.489
390.000	257.983	80.001	20.007	100.329	20.038	24.239	0.475
392.000	259.017	80.001	20.008	100.306	20.037	24.624	0.539
394.000	260.000	80.001	20.007	100.310	20.038	24.224	0.507
396.001	261.053	80.001	20.008	100.296	20.040	23.852	0.518
398.000	262.071	80.001	20.008	100.309	20.038	24.381	0.499
400.000	263.103	80.000	20.008	100.296	20.038	24.228	0.532
402.000	264.071	79.999	20.008	100.302	20.039	24.022	0.492
404.000	265.149	80.001	20.008	100.290	20.039	23.991	0.546
406.000	266.159	80.001	20.007	100.299	20.035	25.380	0.505
408.000	267.190	80.000	20.008	100.280	20.034	25.430	0.486
410.000	268.207	80.001	20.008	100.302	20.035	25.230	0.499
412.000	269.235	80.001	20.007	100.288	20.033	25.829	0.533
414.000	270.261	80.001	20.008	100.289	20.032	26.134	0.466
416.000	271.302	80.002	20.008	100.286	20.033	25.769	0.522
418.000	272.325	80.001	20.008	100.307	20.034	25.574	0.541
420.000	273.338	79.999	20.008	100.293	20.034	25.562	0.514
422.000	274.258	80.000	20.008	100.305	20.035	25.177	0.467
424.000	275.279	80.000	20.008	100.288	20.037	24.732	0.475
426.000	276.337	80.000	20.008	100.290	20.038	24.428	0.521
428.000	277.335	80.001	20.008	100.273	20.036	24.929	0.525
430.000	278.302	80.000	20.007	100.301	20.034	25.699	0.508
432.000	279.314	80.001	20.007	100.287	20.029	26.956	0.486
434.000	280.369	80.001	20.007	100.289	20.029	27.137	0.517
436.000	281.327	80.000	20.008	100.294	20.032	26.120	0.459
438.000	282.342	80.000	20.008	100.312	20.029	26.962	0.515
440.000	283.387	80.001	20.007	100.295	20.029	26.962	0.532
442.000	284.437	79.999	20.008	100.293	20.029	27.117	0.543
444.000	285.398	80.000	20.007	100.277	20.027	27.767	0.487
446.000	286.367	80.001	20.008	100.287	20.027	27.549	0.478
448.000	287.391	80.001	20.008	100.276	20.025	28.245	0.502
450.000	288.409	80.001	20.008	100.299	20.023	28.792	0.537
452.000	289.394	79.999	20.007	100.287	20.021	29.452	0.504
454.000	290.339	80.002	20.007	100.279	20.021	29.610	0.494
456.000	291.425	80.001	20.008	100.272	20.020	29.905	0.510
458.000	292.388	80.002	20.008	100.259	20.018	30.451	0.466
460.000	293.411	80.001	20.007	100.280	20.019	30.244	0.510
462.000	294.445	80.001	20.008	100.277	20.017	30.791	0.543
464.000	295.425	80.001	20.008	100.292	20.019	30.300	0.498
466.000	296.423	80.001	20.007	100.285	20.017	30.875	0.490
468.000	297.411	80.001	20.008	100.280	20.017	30.799	0.526
470.001	298.452	80.000	20.008	100.283	20.015	31.275	0.538
472.000	299.422	80.001	20.008	100.295	20.013	31.911	0.470
474.000	300.465	80.001	20.007	100.300	20.013	32.028	0.523
476.001	301.453	80.001	20.008	100.286	20.010	32.915	0.510
478.000	302.487	80.002	20.008	100.272	20.016	31.169	0.539
480.000	303.524	80.001	20.008	100.281	20.014	31.751	0.535
482.001	304.488	80.001	20.007	100.274	20.011	32.591	0.519
484.000	305.473	80.001	20.007	100.269	20.010	32.804	0.493
486.000	306.468	80.000	20.008	100.264	20.010	32.787	0.503
488.000	307.433	80.001	20.008	100.257	20.008	33.388	0.474
490.000	308.534	80.001	20.008	100.258	20.004	34.666	0.555
492.000	309.533	80.002	20.012	100.278	20.002	35.321	0.519
494.000	310.518	80.000	20.006	100.143	20.001	35.589	0.500
496.000	311.507	80.001	20.006	100.291	20.001	35.514	0.482
498.000	312.538	80.000	20.008	100.401	20.003	34.919	0.521
500.000	313.489	80.001	20.008	100.286	20.001	35.666	0.508
502.000	314.512	80.001	20.008	100.267	19.997	36.984	0.521
504.000	315.485	80.000	20.008	100.254	19.993	38.012	0.510
506.000	316.434	80.002	20.008	100.273	19.995	37.522	0.494
508.000	317.427	80.000	20.008	100.254	19.990	38.943	0.464
510.000	318.432	80.000	20.007	100.265	19.985	40.490	0.497
512.000	319.349	80.001	20.008	100.268	19.983	41.310	0.458
514.000	320.431	80.001	20.008	100.288	19.976	43.178	0.528
516.001	321.376	80.001	20.007	100.269	19.972	44.406	0.485
518.000	322.378	79.999	20.008	100.288	19.967	45.949	0.486
520.000	323.398	80.001	20.008	100.245	19.962	47.787	0.523
522.000	324.447	80.001	20.008	100.269	19.956	49.377	0.530
524.000	325.398	80.001	20.008	100.254	19.953	50.235	0.490
526.000	326.360	80.001	20.008	100.262	19.948	51.878	0.465
528.000	327.348	80.002	20.007	100.236	19.937	55.314	0.512
530.000	328.360	80.000	20.007	100.256	19.929	57.634	0.485
532.000	329.378	80.001	20.007	100.272	19.920	60.469	0.497
534.001	330.402	80.001	20.009	100.282	19.909	63.999	0.540
536.000	331.404	80.001	20.008	100.238	19.900	66.702	0.510
538.000	332.351	80.001	20.008	100.251	19.894	68.552	0.495
540.000	333.416	80.001	20.007	100.306	19.883	72.006	0.517
542.000	334.442	80.000	20.007	100.295	19.865	77.502	0.514
544.000	335.361	79.999	20.009	100.280	19.840	84.961	0.446
546.000	336.386	80.000	20.008	100.354	19.809	94.664	0.533
548.000	337.358	80.001	20.007	100.358	19.787	101.285	0.489
550.000	338.350	80.000	20.008	100.297	19.768	107.289	0.506
552.000	339.332	80.001	20.008	100.273	19.752	112.096	0.458
554.000	340.373	80.001	20.008	100.270	19.737	116.633	0.516
556.000	341.409	80.001	20.008	100.260	19.717	122.750	0.494
558.000	342.367	80.001	20.008	100.255	19.703	127.147	0.499
560.000	343.362	80.000	20.007	100.287	19.682	133.571	0.464
562.000	344.380	80.001	20.008	100.279	19.663	139.344	0.528
564.001	345.361	80.001	20.008	100.305	19.644	145.293	0.519
566.000	346.355	80.001	20.008	100.279	19.626	150.806	0.480
568.000	347.364	80.001	20.008	100.296	19.594	160.467	0.479
570.000	348.370	80.000	20.008	100.274	19.570	167.743	0.507
572.000	349.442	80.001	20.008	100.299	19.549	174.282	0.539
574.001	350.427	80.001	20.008	100.276	19.528	180.662	0.535
576.000	351.414	80.001	20.008	100.286	19.511	186.106	0.472
578.000	352.453	80.000	20.008	100.272	19.496	190.731	0.519
580.000	353.383	80.001	20.008	100.284	19.484	194.292	0.474
582.000	354.455	79.999	20.008	100.279	19.472	197.947	0.511
584.000	355.403	80.000	20.008	100.303	19.461	201.379	0.503
586.000	356.463	80.002	20.008	100.289	19.451	204.508	0.538
588.000	357.452	80.000	20.008	100.316	19.439	207.989	0.503
590.000	358.442	80.001	20.008	100.295	19.429	211.032	0.529
592.000	359.442	79.999	20.008	100.307	19.427	211.878	0.515
594.000	360.441	80.000	20.008	100.291	19.418	214.658	0.536
596.000	361.477	80.001	20.008	100.299	19.412	216.494	0.500
598.000	362.504	80.000	20.008	100.273	19.408	217.427	0.496
600.000	363.547	80.000	20.008	100.299	19.402	219.565	0.518
602.000	364.540	80.002	20.008	100.283	19.396	221.376	0.503
604.000	365.480	80.000	20.009	100.313	19.390	222.962	0.460
606.000	366.501	80.001	20.008	100.282	19.391	222.809	0.469
608.001	367.502	80.001	20.008	100.303	19.386	224.291	0.497
610.000	368.513	80.001	20.008	100.280	19.385	224.579	0.529
612.000	369.513	80.001	20.009	100.300	19.380	226.234	0.496
614.000	370.545	80.001	20.008	100.303	19.382	225.640	0.511
616.000	371.464	80.001	20.009	100.303	19.387	224.009	0.480
618.000	372.459	80.003	20.009	100.269	19.388	223.665	0.487
620.000	373.428	80.001	20.009	100.295	19.395	221.517	0.492
622.000	374.490	80.001	20.009	100.288	19.403	219.046	0.543
624.000	375.394	80.000	20.009	100.288	19.422	213.232	0.439
626.000	376.420	80.000	20.008	100.291	19.442	206.992	0.524
628.000	377.335	80.000	20.008	100.300	19.454	203.343	0.469
630.000	378.429	80.001	20.008	100.275	19.471	198.174	0.489
632.000	379.400	80.000	20.008	100.324	19.489	192.716	0.485
634.000	380.424	79.999	20.007	100.288	19.511	186.008	0.468
636.000	381.417	80.000	20.008	100.305	19.534	178.797	0.472
638.000	382.444	80.001	20.008	100.268	19.559	171.315	0.516
640.000	383.466	80.001	20.008	100.272	19.577	165.887	0.497
642.000	384.507	80.000	20.008	100.271	19.597	159.595	0.524
644.000	385.457	80.001	20.008	100.301	19.612	154.882	0.483
646.000	386.511	80.001	20.008	100.287	19.626	150.584	0.500
648.000	387.514	80.001	20.008	100.306	19.639	146.683	0.485
650.000	388.499	80.001	20.008	100.287	19.654	142.026	0.498
652.000	389.542	80.002	20.008	100.305	19.668	137.675	0.532
654.000	390.554	80.001	20.008	100.275	19.685	132.632	0.549
656.000	391.534	80.002	20.008	100.294	19.698	128.682	0.494
658.000	392.527	80.002	20.008	100.273	19.716	122.916	0.512
660.000	393.526	80.000	20.008	100.286	19.735	117.357	0.479
662.000	394.508	80.000	20.009	100.273	19.748	113.151	0.517
664.000	395.496	80.000	20.008	100.277	19.764	108.465	0.482
666.000	396.509	80.002	20.008	100.258	19.779	103.753	0.528
668.000	397.517	80.001	20.008	100.265	19.795	98.981	0.510
670.000	398.504	80.002	20.008	100.260	19.810	94.111	0.521
672.000	399.530	80.001	20.008	100.253	19.830	88.065	0.502
674.000	400.502	80.002	20.008	100.274	19.847	82.831	0.509
676.000	401.536	80.000	20.008	100.272	19.865	77.451	0.482
678.000	402.537	80.001	20.008	100.293	19.878	73.492	0.501
680.000	403.446	80.001	20.008	100.254	19.891	69.376	0.431
682.000	404.380	80.000	20.008	100.272	19.909	63.802	0.454
684.000	405.333	80.001	20.008	100.254	19.920	60.366	0.464
686.000	406.311	80.002	20.008	100.270	19.935	55.988	0.462
688.000	407.351	80.002	20.008	100.233	19.944	53.199	0.510
690.000	408.323	80.001	20.008	100.254	19.954	49.953	0.539
692.000	409.263	80.002	20.008	100.230	19.964	46.930	0.507
694.000	410.337	80.002	20.008	100.249	19.974	43.809	0.484
696.000	411.264	80.000	20.007	100.232	19.987	39.910	0.450
698.000	412.280	80.001	20.008	100.254	19.994	37.921	0.478
700.000	413.322	80.000	20.008	100.229	20.002	35.335	0.496
702.000	414.283	80.001	20.008	100.247	20.011	32.701	0.495
704.000	415.234	80.000	20.008	100.224	20.018	30.313	0.471
706.000	416.280	80.001	20.008	100.218	20.021	29.546	0.501
708.000	417.236	79.999	20.008	100.226	20.027	27.654	0.507
710.000	418.265	80.001	20.008	100.248	20.034	25.533	0.476
712.000	419.285	80.001	20.008	100.230	20.035	25.314	0.566
714.000	420.282	80.001	20.007	100.250	20.037	24.588	0.484
716.000	421.235	80.000	20.008	100.241	20.039	23.904	0.452
718.000	422.207	80.000	20.008	100.239	20.042	23.059	0.465
720.000	423.240	80.000	20.008	100.216	20.046	21.898	0.522
722.000	424.155	80.000	20.008	100.206	20.045	22.063	0.467
724.000	425.154	80.002	20.008	100.223	20.049	21.057	0.544
726.000	426.158	80.002	20.008	100.232	20.050	20.547	0.500
728.000	427.116	80.001	20.008	100.248	20.052	19.913	0.470
730.000	428.103	80.001	20.008	100.232	20.051	20.191	0.516
732.000	429.081	80.002	20.008	100.253	20.058	18.260	0.475
734.000	430.097	80.002	20.008	100.242	20.060	17.682	0.480
736.000	431.070	80.001	20.008	100.260	20.061	17.317	0.498
738.000	431.988	80.001	20.009	100.249	20.060	17.520	0.459
740.000	432.978	80.001	20.008	100.250	20.059	17.810	0.494
742.000	433.967	80.000	20.008	100.238	20.062	16.911	0.468
744.000	434.905	80.000	20.008	100.259	20.062	17.051	0.461
746.000	435.874	80.000	20.008	100.237	20.060	17.572	0.450
748.000	436.887	80.001	20.008	100.239	20.062	16.811	0.480
750.000	437.869	80.001	20.008	100.227	20.063	16.682	0.496
752.000	438.893	80.002	20.008	100.240	20.064	16.216	0.493
754.000	439.783	80.000	20.008	100.236	20.064	16.484	0.440
756.000	440.803	80.001	20.008	100.232	20.062	17.072	0.449
758.000	441.809	79.999	20.008	100.232	20.066	15.874	0.509
760.000	442.815	80.000	20.008	100.230	20.062	16.942	0.477
762.000	443.755	80.001	20.008	100.226	20.066	15.710	0.444
764.000	444.765	80.000	20.008	100.214	20.064	16.442	0.521
766.000	445.793	80.002	20.008	100.246	20.066	15.850	0.515
768.000	446.785	80.001	20.008	100.221	20.065	15.897	0.444
770.000	447.735	80.000	20.008	100.240	20.066	15.836	0.508
772.000	448.731	80.000	20.008	100.218	20.066	15.793	0.506
774.000	449.808	80.001	20.008	100.234	20.065	16.069	0.547
776.000	450.739	80.001	20.008	100.216	20.066	15.787	0.499
778.000	451.803	80.001	20.008	100.219	20.067	15.520	0.562
780.000	452.754	80.001	20.008	100.209	20.068	15.095	0.454
782.000	453.789	80.001	20.008	100.219	20.067	15.372	0.489
784.000	454.738	80.001	20.008	100.203	20.066	15.614	0.491
786.000	455.747	80.001	20.008	100.214	20.069	14.855	0.508
788.000	456.755	80.000	20.008	100.202	20.069	14.948	0.531
790.001	457.743	80.000	20.008	100.212	20.067	15.425	0.494
792.000	458.734	80.001	20.008	100.214	20.067	15.510	0.514
794.000	459.734	80.001	20.009	100.213	20.068	15.144	0.473
796.000	460.769	80.000	20.008	100.225	20.068	15.185	0.489
798.000	461.728	80.001	20.008	100.225	20.068	15.186	0.460
800.000	462.759	80.001	20.008	100.231	20.068	15.024	0.493
802.000	463.707	80.000	20.008	100.224	20.071	14.319	0.494
804.000	464.699	80.000	20.008	100.236	20.066	15.799	0.503
806.000	465.710	80.001	20.008	100.207	20.068	14.990	0.470
808.000	466.660	80.000	20.008	100.225	20.067	15.267	0.516
810.000	467.660	80.002	20.008	100.216	20.067	15.470	0.476
812.000	468.702	80.002	20.008	100.237	20.069	14.859	0.502
814.000	469.681	80.001	20.008	100.218	20.068	15.149	0.495
816.000	470.706	80.001	20.009	100.234	20.066	15.659	0.511
818.000	471.702	79.999	20.008	100.203	20.070	14.585	0.522
820.000	472.703	80.001	20.008	100.217	20.070	14.370	0.485
822.000	473.664	80.001	20.008	100.204	20.069	14.765	0.517
824.000	474.611	80.000	20.008	100.222	20.070	14.569	0.451
826.000	475.630	80.002	20.008	100.216	20.067	15.317	0.483
828.000	476.626	80.001	20.008	100.247	20.069	14.679	0.514
830.000	477.590	80.000	20.007	100.220	20.069	14.752	0.488
832.000	478.584	80.001	20.008	100.241	20.069	14.777	0.520
834.000	479.547	79.999	20.008	100.221	20.068	15.105	0.522
836.001	480.573	80.001	20.008	100.227	20.068	15.091	0.486
838.000	481.544	80.000	20.008	100.218	20.070	14.392	0.501
840.000	482.509	80.001	20.008	100.234	20.071	14.314	0.484
842.000	483.458	80.000	20.008	100.213	20.069	14.775	0.498
844.000	484.479	80.000	20.008	100.236	20.069	14.654	0.473
846.000	485.434	80.001	20.008	100.202	20.068	15.041	0.474
848.000	486.427	80.001	20.008	100.211	20.068	15.239	0.482
850.000	487.418	80.001	20.008	100.188	20.071	14.317	0.484
852.000	488.385	80.000	20.008	100.215	20.070	14.570	0.495
854.000	489.347	80.000	20.008	100.193	20.072	13.919	0.464
856.000	490.427	80.000	20.008	100.225	20.071	14.153	0.501
858.000	491.382	80.001	20.008	100.207	20.071	14.317	0.455
860.000	492.340	80.001	20.008	100.235	20.070	14.408	0.503
862.000	493.397	80.001	20.008	100.226	20.073	13.608	0.521
864.000	494.395	80.000	20.008	100.231	20.071	14.304	0.482
866.001	495.401	80.001	20.008	100.201	20.071	14.321	0.467
868.000	496.412	80.002	20.007	100.216	20.069	14.793	0.499
870.000	497.438	80.001	20.009	100.190	20.070	14.616	0.526
872.000	498.400	79.999	20.008	100.237	20.067	15.420	0.463
874.000	499.449	80.001	20.008	100.187	20.069	14.703	0.506
876.000	500.490	79.999	20.011	100.214	20.065	16.169	0.527
878.000	501.462	80.001	20.008	100.150	20.065	16.176	0.510
880.000	502.478	80.001	20.007	100.190	20.068	15.108	0.511
882.000	503.449	80.002	20.008	100.302	20.069	14.775	0.467
884.000	504.448	80.001	20.008	100.277	20.072	13.936	0.494
886.000	505.498	80.002	20.008	100.206	20.070	14.453	0.511
888.000	506.446	80.002	20.007	100.232	20.068	15.030	0.484
890.000	507.415	79.999	20.008	100.244	20.069	14.942	0.496
892.000	508.471	80.000	20.007	100.224	20.070	14.356	0.478
894.000	509.448	80.000	20.008	100.218	20.068	15.228	0.503
896.000	510.446	80.000	20.007	100.223	20.070	14.466	0.529
898.000	511.480	80.000	20.008	100.225	20.071	14.190	0.497
900.000	512.459	80.002	20.007	100.226	20.072	14.039	0.523
902.000	513.401	80.002	20.008	100.205	20.069	14.663	0.473
904.000	514.384	80.001	20.008	100.210	20.067	15.333	0.520
906.001	515.382	80.002	20.008	100.210	20.070	14.638	0.478
908.001	516.370	80.000	20.008	100.213	20.069	14.670	0.473
910.000	517.383	80.001	20.008	100.225	20.070	14.471	0.520
912.000	518.397	80.002	20.008	100.237	20.068	15.039	0.512
914.000	519.370	80.002	20.008	100.210	20.068	15.200	0.487
916.000	520.386	80.001	20.008	100.199	20.069	14.675	0.513
918.000	521.314	80.002	20.008	100.218	20.074	13.208	0.455
920.000	522.270	80.002	20.008	100.215	20.074	13.334	0.478
922.000	523.206	80.000	20.008	100.258	20.075	12.917	0.495
924.000	524.131	80.001	20.008	100.262	20.075	12.978	0.491
926.000	525.099	80.000	20.009	100.283	20.078	12.005	0.471
928.000	526.017	80.002	20.008	100.270	20.079	11.667	0.449
930.000	527.006	80.000	20.008	100.271	20.078	12.112	0.463
932.000	527.992	80.001	20.008	100.263	20.080	11.441	0.480
934.000	528.933	80.000	20.008	100.279	20.078	12.002	0.469
936.001	529.922	80.001	20.008	100.276	20.078	11.960	0.505
938.000	530.835	80.000	20.008	100.300	20.078	11.928	0.457
940.000	531.825	80.002	20.008	100.269	20.082	10.946	0.522
942.000	532.775	80.002	20.009	100.272	20.080	11.344	0.472
944.000	533.773	80.000	20.008	100.249	20.081	11.255	0.508
946.000	534.724	80.001	20.007	100.286	20.080	11.502	0.459
948.000	535.719	80.001	20.008	100.259	20.083	10.455	0.468
950.000	536.700	80.002	20.007	100.304	20.083	10.537	0.500
952.000	537.670	80.002	20.008	100.273	20.082	10.677	0.507
954.000	538.688	80.001	20.007	100.243	20.078	11.994	0.500
956.000	539.686	80.001	20.008	100.225	20.076	12.809	0.541
958.000	540.633	80.000	20.007	100.256	20.075	12.867	0.502
960.000	541.585	80.001	20.008	100.264	20.077	12.317	0.479
962.000	542.527	80.000	20.008	100.272	20.078	12.043	0.492
964.000	543.507	80.000	20.008	100.229	20.077	12.492	0.463
966.000	544.561	80.001	20.008	100.245	20.072	13.819	0.532
968.000	545.523	80.001	20.008	100.228	20.067	15.360	0.483
970.000	546.538	80.001	20.008	100.236	20.065	16.046	0.476
972.000	547.537	80.002	20.008	100.231	20.066	15.683	0.510
974.000	548.519	80.001	20.012	100.225	20.061	17.097	0.493
976.000	549.575	80.001	20.008	100.113	20.062	16.836	0.527
978.000	550.612	80.000	20.004	100.228	20.063	16.663	0.517
980.000	551.624	80.000	20.007	100.272	20.068	14.971	0.496
982.000	552.638	80.000	20.008	100.319	20.064	16.311	0.483
984.000	553.623	80.000	20.009	100.256	20.061	17.229	0.508
986.000	554.690	80.001	20.008	100.196	20.062	16.987	0.518
988.000	555.772	80.002	20.007	100.187	20.065	15.987	0.581
990.000	556.800	80.000	20.007	100.227	20.070	14.520	0.528
992.000	557.823	80.001	20.010	100.215	20.070	14.519	0.525
994.000	558.825	80.002	20.007	100.304	20.071	14.256	0.503
996.000	559.913	80.002	20.008	100.241	20.068	15.221	0.544
998.001	560.882	80.001	20.009	100.247	20.065	15.951	0.528
1000.000	561.957	80.000	20.008	100.208	20.065	16.057	0.507
1002.000	562.984	80.000	20.008	100.221	20.064	16.195	0.516
1004.000	564.037	80.001	20.008	100.175	20.065	16.069	0.545
1006.000	565.123	80.000	20.008	100.213	20.062	16.810	0.517
1008.000	566.107	80.002	20.008	100.186	20.068	15.054	0.515
1010.000	567.156	80.000	20.007	100.237	20.062	16.879	0.534
1012.000	568.162	80.000	20.008	100.208	20.061	17.381	0.524
1014.000	569.151	80.000	20.008	100.221	20.061	17.288	0.505
1016.000	570.226	80.001	20.008	100.200	20.061	17.289	0.530
1018.000	571.251	80.001	20.008	100.217	20.061	17.222	0.500
1020.000	572.233	80.002	20.008	100.207	20.062	16.869	0.523
1022.000	573.262	80.001	20.008	100.239	20.061	17.307	0.513
1024.000	574.273	80.001	20.009	100.225	20.062	16.805	0.485
1026.000	575.249	80.000	20.008	100.238	20.061	17.177	0.469
1028.001	576.215	80.001	20.008	100.229	20.059	17.736	0.493
1030.000	577.221	80.000	20.008	100.229	20.060	17.418	0.520
1032.000	578.240	80.002	20.008	100.231	20.063	16.662	0.486
1034.000	579.221	80.001	20.008	100.233	20.062	16.943	0.521
1036.000	580.255	80.000	20.008	100.234	20.065	16.075	0.509
1038.000	581.268	80.002	20.008	100.228	20.061	17.389	0.516
1040.000	582.219	80.000	20.008	100.238	20.061	17.266	0.514
1042.000	583.205	80.000	20.008	100.211	20.058	18.193	0.477
1044.000	584.232	80.000	20.008	100.223	20.054	19.427	0.538
1046.000	585.223	80.001	20.008	100.222	20.056	18.776	0.523
1048.000	586.244	80.001	20.008	100.244	20.058	18.225	0.480
1050.000	587.214	80.000	20.008	100.219	20.057	18.616	0.457
1052.001	588.288	80.001	20.008	100.240	20.057	18.476	0.506
1054.001	589.269	80.000	20.008	100.200	20.056	18.796	0.540
1056.000	590.290	80.001	20.008	100.223	20.056	18.817	0.506
1058.000	591.241	80.000	20.008	100.245	20.057	18.623	0.469
1060.001	592.255	80.000	20.008	100.231	20.057	18.345	0.501
1062.001	593.245	80.001	20.008	100.221	20.057	18.563	0.510
1064.000	594.296	80.000	20.008	100.210	20.054	19.505	0.502
1066.000	595.279	80.000	20.008	100.218	20.058	18.287	0.491
1068.001	596.309	80.000	20.008	100.194	20.058	18.326	0.515
1070.001	597.341	80.000	20.007	100.222	20.056	18.933	0.506
1072.001	598.348	80.001	20.007	100.208	20.054	19.557	0.534
1074.001	599.349	80.001	20.007	100.216	20.059	17.932	0.496
1076.001	600.293	80.001	20.008	100.192	20.054	19.353	0.486
1078.001	601.299	80.000	20.007	100.249	20.056	18.872	0.513
1080.000	602.325	80.000	20.008	100.249	20.055	19.078	0.496
1082.001	603.378	80.001	20.008	100.256	20.055	19.114	0.545
1084.000	604.353	80.001	20.008	100.222	20.055	19.162	0.491
1086.000	605.365	80.000	20.008	100.222	20.052	19.876	0.498
1088.000	606.340	80.000	20.008	100.202	20.055	19.227	0.512
1090.000	607.396	80.001	20.008	100.215	20.053	19.643	0.497
1092.001	608.359	80.000	20.008	100.223	20.052	20.093	0.474
1094.000	609.363	80.001	20.008	100.237	20.054	19.534	0.499
1096.000	610.369	80.001	20.008	100.224	20.048	21.304	0.471
1098.001	611.337	80.000	20.008	100.185	20.046	21.732	0.474
1100.000	612.318	80.001	20.007	100.150	20.047	21.447	0.477
1102.000	613.301	80.000	20.010	100.199	20.053	19.742	0.490
1104.000	614.346	80.003	20.010	100.285	20.051	20.263	0.505
1106.000	615.333	80.001	20.008	100.203	20.053	19.731	0.546
1108.000	616.329	80.000	20.007	100.182	20.054	19.282	0.509
1110.000	617.342	80.001	20.010	100.230	20.054	19.307	0.505
1112.001	618.330	80.000	20.008	100.332	20.055	19.063	0.487
1114.000	619.314	79.999	20.007	100.241	20.055	18.993	0.491
1116.001	620.322	80.000	20.008	100.237	20.057	18.634	0.510
1118.000	621.356	80.000	20.008	100.207	20.050	20.535	0.522
1120.001	622.334	80.000	20.008	100.216	20.050	20.724	0.478
1122.001	623.315	80.000	20.008	100.200	20.047	21.488	0.478
1124.000	624.291	80.000	20.008	100.248	20.049	20.889	0.505
1126.001	625.251	80.000	20.008	100.235	20.054	19.384	0.455
1128.000	626.283	79.999	20.008	100.254	20.047	21.491	0.502
1130.001	627.289	79.999	20.008	100.232	20.051	20.400	0.515
1132.000	628.287	80.001	20.008	100.248	20.049	20.902	0.535
1134.000	629.255	80.001	20.008	100.205	20.050	20.573	0.494
1136.001	630.255	80.001	20.008	100.239	20.052	19.930	0.471
1138.001	631.204	80.001	20.008	100.236	20.055	19.202	0.510
1140.000	632.255	80.001	20.008	100.269	20.059	17.998	0.511
1142.000	633.240	80.000	20.008	100.269	20.059	17.858	0.474
1144.000	634.254	80.000	20.008	100.276	20.056	18.901	0.478
1146.000	635.224	79.999	20.008	100.210	20.054	19.561	0.523
1148.001	636.188	80.001	20.008	100.222	20.057	18.482	0.501
1150.000	637.134	80.000	20.008	100.265	20.058	18.315	0.466
1152.000	638.134	80.000	20.008	100.282	20.055	18.989	0.498
1154.001	639.137	80.001	20.007	100.268	20.056	18.676	0.493
1156.000	640.095	80.001	20.008	100.263	20.058	18.246	0.489
1158.000	641.128	80.000	20.007	100.254	20.052	19.976	0.498
1160.000	642.033	80.001	20.008	100.262	20.053	19.806	0.488
1162.000	643.014	79.997	20.008	100.258	20.054	19.554	0.466
1164.000	644.020	80.000	20.008	100.258	20.055	19.129	0.500
1166.000	645.018	80.000	20.007	100.277	20.055	19.045	0.503
1168.001	645.999	80.001	20.007	100.275	20.056	18.871	0.477
1170.000	646.974	80.000	20.007	100.280	20.055	19.172	0.500
1172.001	648.020	80.001	20.007	100.256	20.054	19.363	0.518
1174.000	649.046	80.001	20.007	100.281	20.055	18.997	0.518
1176.000	650.021	80.001	20.008	100.245	20.055	19.159	0.477
1178.000	651.074	80.001	20.008	100.262	20.053	19.675	0.509
1180.000	652.049	80.000	20.008	100.247	20.055	19.110	0.526
1182.000	653.082	79.999	20.008	100.250	20.054	19.315	0.546
1184.000	654.065	80.001	20.008	100.232	20.052	20.070	0.505
1186.001	655.119	80.000	20.007	100.252	20.053	19.779	0.520
1188.001	656.132	80.000	20.007	100.229	20.048	21.131	0.511
1190.000	657.166	79.999	20.007	100.231	20.048	21.137	0.529
1192.001	658.256	80.000	20.007	100.238	20.054	19.360	0.516
1194.000	659.224	80.001	20.007	100.241	20.051	20.280	0.521
1196.001	660.307	80.001	20.007	100.251	20.053	19.597	0.516
1198.000	661.307	80.000	20.008	100.254	20.054	19.358	0.511
1200.001	662.333	80.000	20.008	100.260	20.049	21.010	0.560
1202.000	663.359	80.001	20.007	100.234	20.050	20.491	0.499
1204.000	664.370	80.000	20.007	100.250	20.052	20.175	0.496
1206.001	665.358	80.000	20.008	100.229	20.048	21.143	0.506
1208.000	666.431	80.001	20.007	100.237	20.047	21.587	0.512
1210.000	667.431	80.000	20.008	100.222	20.048	21.219	0.497
1212.000	668.486	80.000	20.008	100.226	20.048	21.184	0.533
1214.001	669.485	80.001	20.008	100.242	20.048	21.133	0.500
1216.000	670.466	80.000	20.008	100.254	20.049	20.815	0.493
1218.000	671.467	79.999	20.007	100.278	20.052	19.926	0.498
1220.000	672.511	80.001	20.008	100.257	20.054	19.403	0.529
1222.000	673.492	80.001	20.008	100.264	20.054	19.434	0.475
1224.001	674.483	80.001	20.007	100.268	20.047	21.436	0.480
1226.000	675.492	80.001	20.007	100.278	20.051	20.334	0.507
1228.001	676.437	80.001	20.008	100.246	20.050	20.744	0.462
1230.001	677.443	80.001	20.008	100.261	20.049	21.077	0.466
1232.001	678.411	80.000	20.007	100.246	20.050	20.541	0.485
1234.000	679.417	80.001	20.008	100.253	20.049	20.930	0.497
1236.001	680.378	80.000	20.007	100.268	20.048	21.306	0.436
1238.001	681.334	80.001	20.008	100.263	20.046	21.927	0.471
1240.001	682.275	79.999	20.007	100.254	20.049	20.977	0.469
1242.000	683.302	80.000	20.008	100.240	20.049	20.918	0.543
1244.000	684.311	80.001	20.007	100.247	20.048	21.382	0.483
1246.000	685.269	80.001	20.008	100.234	20.047	21.500	0.489
1248.000	686.303	80.002	20.007	100.258	20.050	20.621	0.487
1250.000	687.261	80.001	20.008	100.236	20.052	19.945	0.477
1252.000	688.273	80.000	20.008	100.259	20.052	19.909	0.505
1254.000	689.284	80.000	20.008	100.247	20.051	20.284	0.529
1256.000	690.282	80.001	20.007	100.253	20.050	20.687	0.508
1258.000	691.246	80.000	20.008	100.232	20.047	21.579	0.460
1260.000	692.270	80.001	20.008	100.240	20.047	21.649	0.515
1262.000	693.253	80.000	20.008	100.231	20.044	22.492	0.470
1264.000	694.270	80.000	20.007	100.243	20.049	21.068	0.473
1266.001	695.319	80.000	20.007	100.240	20.048	21.381	0.498
1268.000	696.367	80.000	20.008	100.251	20.047	21.517	0.545
1270.000	697.428	80.001	20.008	100.237	20.047	21.653	0.560
1272.001	698.405	80.000	20.007	100.252	20.047	21.416	0.510
1274.001	699.473	80.001	20.008	100.259	20.048	21.334	0.515
1276.000	700.419	80.000	20.008	100.273	20.047	21.582	0.467
1278.001	701.423	79.999	20.007	100.259	20.048	21.313	0.498
1280.000	702.489	80.001	20.008	100.262	20.047	21.704	0.503
1282.000	703.521	80.001	20.007	100.273	20.048	21.274	0.517
1284.000	704.535	80.000	20.008	100.247	20.048	21.111	0.504
1286.001	705.506	80.001	20.008	100.262	20.048	21.142	0.504
1288.000	706.538	79.999	20.008	100.250	20.052	19.888	0.523
1290.001	707.573	80.000	20.008	100.288	20.047	21.562	0.528
1292.000	708.620	80.001	20.008	100.266	20.047	21.410	0.531
1294.000	709.634	80.001	20.008	100.263	20.047	21.578	0.543
1296.001	710.682	79.999	20.008	100.240	20.045	22.164	0.487
1298.000	711.707	80.002	20.008	100.254	20.047	21.563	0.507
1300.000	712.681	80.001	20.008	100.239	20.045	22.178	0.475
1302.000	713.653	80.000	20.008	100.262	20.047	21.422	0.500
1304.000	714.709	80.000	20.008	100.269	20.047	21.631	0.565
1306.000	715.631	80.000	20.008	100.272	20.045	22.109	0.479
1308.000	716.629	79.999	20.008	100.244	20.043	22.742	0.496
1310.000	717.598	79.999	20.008	100.248	20.047	21.598	0.505
1312.001	718.605	79.999	20.008	100.247	20.046	21.769	0.510
1314.000	719.621	80.000	20.008	100.253	20.045	22.049	0.509
1316.001	720.559	80.000	20.008	100.249	20.046	21.936	0.482
1318.000	721.559	80.000	20.008	100.242	20.046	21.906	0.486
1320.000	722.587	80.000	20.007	100.263	20.045	22.110	0.502
1322.000	723.616	80.000	20.007	100.249	20.047	21.556	0.514
1324.000	724.598	80.000	20.007	100.261	20.045	22.093	0.507
1326.000	725.678	80.001	20.008	100.253	20.047	21.565	0.520
1328.000	726.671	80.001	20.007	100.286	20.046	21.758	0.533
1330.000	727.679	80.001	20.008	100.271	20.049	20.806	0.507
1332.000	728.650	80.000	20.008	100.276	20.046	21.847	0.462
1334.001	729.725	80.002	20.008	100.272	20.048	21.127	0.494
1336.000	730.700	80.001	20.008	100.280	20.051	20.355	0.498
1338.000	731.697	80.000	20.008	100.276	20.053	19.759	0.464
1340.000	732.689	80.001	20.008	100.292	20.055	19.247	0.481
1342.000	733.720	80.001	20.007	100.282	20.052	20.128	0.519
1344.000	734.740	80.000	20.008	100.283	20.049	20.798	0.517
1346.001	735.756	80.000	20.008	100.276	20.048	21.113	0.541
1348.000	736.775	80.001	20.008	100.270	20.048	21.219	0.538
1350.000	737.804	80.001	20.008	100.284	20.045	22.232	0.540
1352.001	738.827	80.001	20.008	100.250	20.046	21.930	0.482
1354.001	739.850	80.000	20.008	100.260	20.044	22.498	0.519
1356.000	740.859	80.000	20.008	100.257	20.044	22.538	0.503
1358.000	741.891	79.999	20.008	100.266	20.042	22.939	0.512
1359.000	742.393	80.000	20.008	100.253	20.044	22.337	0.500