File: Experiments/TUBS/mcc/mcc_piece_1mg_dyn30_r3.txt
Sample Weight (mg):	1.01
Heating Rate (C/s):	0.5
Combustor Temp (C):	900
N2 Flow Rate (cc/min):	80
O2 Flow Rate (cc/min):	20
Time (s)	Temperature (C)	N2 flow rate (cc/min)	O2 flow rate (cc/min)	Flow Rate (cc/min)	Oxygen (%)	HRR (W/g)	Heating rate (C/s)
0.000	90.472	79.998	20.008	99.709	20.134	-4.326	-0.071
2.000	90.333	79.996	20.008	99.743	20.134	-4.163	-0.073
3.999	90.153	80.002	20.012	99.734	20.124	-1.171	-0.100
5.999	89.938	80.002	20.009	99.765	20.108	3.817	-0.104
7.999	89.743	80.002	20.009	99.974	20.091	9.165	-0.097
10.000	89.530	80.001	20.009	100.160	20.078	12.982	-0.072
11.999	89.353	80.002	20.009	100.247	20.068	16.115	-0.095
13.999	89.168	80.002	20.009	100.264	20.062	18.070	-0.068
15.999	88.994	80.000	20.009	100.251	20.058	19.218	-0.100
17.999	88.906	80.001	20.009	100.262	20.051	21.394	-0.045
19.999	88.785	80.001	20.009	100.283	20.044	23.714	-0.061
21.999	88.681	80.000	20.009	100.291	20.041	24.414	-0.008
23.999	88.628	80.001	20.009	100.272	20.038	25.550	-0.022
26.000	88.593	80.001	20.009	100.275	20.031	27.696	-0.021
28.000	88.591	80.001	20.009	100.320	20.024	29.977	0.091
30.000	88.616	80.001	20.010	100.345	20.018	31.588	0.039
32.000	88.664	79.999	20.007	100.408	20.012	33.455	0.018
33.999	88.751	80.001	20.007	100.340	20.010	34.240	0.012
35.999	88.895	80.000	20.007	100.389	20.010	34.096	0.074
38.001	89.070	80.001	20.009	100.536	20.005	35.643	0.109
39.999	89.309	80.000	20.009	100.472	20.001	37.047	0.140
41.999	89.558	80.001	20.009	100.479	19.999	37.593	0.147
44.000	89.854	80.001	20.010	100.497	19.996	38.476	0.129
45.999	90.158	80.001	20.009	100.509	19.994	39.224	0.185
48.000	90.578	80.001	20.009	100.498	19.995	38.816	0.211
49.999	90.938	80.002	20.009	100.504	19.994	39.301	0.183
51.999	91.435	80.001	20.009	100.500	19.997	38.188	0.213
53.999	91.855	80.000	20.009	100.486	19.998	37.972	0.231
55.999	92.363	80.001	20.009	100.483	19.998	37.898	0.233
58.000	92.875	80.002	20.009	100.441	20.000	37.260	0.270
59.999	93.379	80.002	20.009	100.458	19.997	38.180	0.219
61.999	93.949	80.002	20.009	100.464	19.998	38.081	0.253
64.000	94.509	80.000	20.010	100.469	19.997	38.366	0.261
65.999	95.129	80.002	20.009	100.477	19.992	39.819	0.298
67.999	95.731	80.000	20.009	100.503	19.991	40.013	0.319
70.000	96.384	80.003	20.009	100.514	19.993	39.652	0.351
71.999	97.034	80.000	20.009	100.501	19.995	38.993	0.386
74.000	97.787	80.001	20.009	100.509	19.992	39.848	0.371
75.999	98.523	80.001	20.009	100.522	19.992	39.913	0.367
77.999	99.273	80.001	20.009	100.521	19.992	39.889	0.369
80.000	100.080	80.000	20.009	100.503	19.994	39.327	0.391
82.000	100.884	80.001	20.009	100.501	19.990	40.501	0.390
83.999	101.716	80.002	20.010	100.522	19.991	40.107	0.419
85.999	102.509	80.001	20.009	100.510	19.991	40.022	0.397
87.999	103.444	80.000	20.009	100.504	19.993	39.576	0.470
90.001	104.344	80.000	20.009	100.497	19.991	40.186	0.434
91.999	105.240	80.001	20.009	100.484	19.991	40.097	0.420
94.000	106.214	80.000	20.009	100.493	19.988	40.956	0.477
95.999	107.143	80.002	20.009	100.492	19.990	40.477	0.469
98.000	108.142	80.001	20.009	100.474	19.990	40.506	0.495
99.999	109.081	80.002	20.009	100.490	19.983	42.463	0.489
101.999	110.122	80.000	20.009	100.485	19.990	40.290	0.514
104.000	111.168	80.002	20.009	100.482	19.988	41.097	0.510
105.999	112.224	80.001	20.009	100.487	19.992	39.769	0.488
108.001	113.231	80.000	20.009	100.496	19.992	39.706	0.483
109.999	114.316	80.002	20.009	100.513	19.996	38.539	0.484
112.000	115.502	79.999	20.008	100.513	19.994	39.092	0.518
113.999	116.796	80.002	20.009	100.513	19.994	39.227	0.673
116.000	117.717	80.002	20.008	100.503	19.993	39.446	0.175
117.999	118.753	80.001	20.009	100.501	19.995	38.889	0.574
119.999	119.865	80.001	20.009	100.514	19.998	37.970	0.775
122.000	121.022	80.000	20.009	100.503	19.997	38.132	0.571
124.001	122.224	80.001	20.009	100.501	20.001	36.983	0.633
125.999	123.374	80.002	20.008	100.496	19.999	37.442	0.601
128.000	124.602	80.001	20.009	100.472	20.000	37.407	0.623
130.000	125.656	80.002	20.009	100.489	20.001	36.914	0.608
132.000	126.937	79.999	20.008	100.463	20.000	37.182	0.741
134.000	128.030	80.001	20.008	100.482	20.003	36.498	0.202
136.000	129.103	80.001	20.008	100.463	20.002	36.609	0.505
138.000	130.403	80.001	20.014	100.472	20.001	37.097	0.575
140.000	131.623	79.999	20.014	100.289	20.009	34.627	0.624
142.000	132.810	80.000	20.009	100.483	20.012	33.451	0.594
144.000	133.969	80.001	20.009	100.467	20.010	34.150	0.574
146.000	135.167	80.001	20.008	100.410	20.013	33.282	0.575
148.000	136.338	80.001	20.009	100.402	20.012	33.420	0.566
150.000	137.432	80.000	20.009	100.366	20.015	32.550	0.584
152.000	138.585	80.001	20.009	100.365	20.014	33.069	0.558
154.000	139.747	80.000	20.009	100.379	20.012	33.577	0.569
156.000	140.926	80.001	20.009	100.377	20.012	33.544	0.569
158.000	142.022	80.000	20.009	100.392	20.010	34.019	0.555
160.000	143.176	80.000	20.008	100.383	20.013	33.386	0.597
162.000	144.305	80.000	20.009	100.373	20.011	33.784	0.590
164.000	145.471	80.000	20.009	100.377	20.011	33.781	0.567
166.000	146.536	80.002	20.009	100.360	20.015	32.627	0.578
168.000	147.655	80.000	20.009	100.371	20.013	33.150	0.559
170.000	148.703	80.000	20.009	100.360	20.014	32.901	0.581
172.000	149.813	80.001	20.009	100.369	20.015	32.669	0.524
174.000	150.904	80.000	20.009	100.362	20.016	32.429	0.547
176.000	151.987	80.001	20.008	100.360	20.013	33.368	0.563
178.000	153.075	80.000	20.008	100.345	20.012	33.681	0.508
180.000	154.196	80.001	20.009	100.344	20.014	32.941	0.551
182.000	155.242	80.001	20.008	100.374	20.019	31.336	0.497
184.000	156.340	80.000	20.008	100.393	20.021	30.876	0.510
186.000	157.415	80.000	20.009	100.410	20.023	30.277	0.525
188.000	158.500	80.000	20.008	100.404	20.024	29.934	0.565
190.000	159.508	80.001	20.009	100.388	20.021	30.641	0.511
192.000	160.526	80.000	20.009	100.377	20.022	30.312	0.497
194.000	161.628	80.000	20.008	100.351	20.020	31.109	0.555
196.000	162.621	80.000	20.009	100.368	20.020	31.041	0.560
198.000	163.641	80.001	20.008	100.361	20.016	32.278	0.531
200.000	164.674	80.001	20.008	100.357	20.015	32.539	0.548
202.000	165.695	79.999	20.009	100.339	20.018	31.820	0.525
204.000	166.775	80.001	20.009	100.340	20.020	31.069	0.535
206.000	167.811	80.000	20.009	100.354	20.019	31.467	0.512
208.000	168.824	79.999	20.008	100.359	20.015	32.466	0.537
210.000	169.818	80.001	20.009	100.351	20.014	32.804	0.501
212.000	170.832	80.000	20.009	100.364	20.015	32.610	0.522
214.000	171.812	79.999	20.009	100.350	20.015	32.621	0.500
216.000	172.776	80.002	20.009	100.356	20.013	33.183	0.501
218.000	173.900	79.999	20.008	100.355	20.016	32.310	0.560
220.000	174.937	80.000	20.009	100.350	20.014	32.784	0.541
222.000	175.907	79.999	20.008	100.353	20.014	32.817	0.526
224.000	176.893	80.001	20.008	100.340	20.013	33.179	0.491
226.000	177.903	80.001	20.009	100.351	20.011	33.828	0.498
228.000	178.882	80.000	20.008	100.358	20.011	33.744	0.506
230.000	179.883	79.999	20.009	100.349	20.011	33.955	0.490
232.000	180.930	80.000	20.009	100.367	20.012	33.685	0.511
234.000	181.903	80.000	20.009	100.351	20.014	33.040	0.516
236.000	182.896	79.999	20.009	100.361	20.010	34.069	0.486
238.000	183.885	79.999	20.009	100.359	20.013	33.264	0.483
240.000	184.870	80.000	20.009	100.358	20.014	32.992	0.481
242.000	185.848	80.000	20.008	100.357	20.011	33.857	0.497
244.000	186.834	80.001	20.009	100.309	20.010	34.053	0.483
246.000	187.894	79.999	20.005	100.331	20.013	33.152	0.499
248.000	188.851	79.999	20.008	100.345	20.013	33.161	0.480
250.000	189.885	80.001	20.009	100.346	20.011	33.949	0.499
252.000	190.905	80.000	20.009	100.355	20.013	33.278	0.522
254.000	191.884	80.001	20.009	100.347	20.016	32.386	0.509
256.000	192.858	80.001	20.008	100.359	20.016	32.321	0.476
258.000	193.853	80.001	20.008	100.356	20.013	33.306	0.468
260.000	194.897	80.001	20.009	100.359	20.012	33.403	0.525
262.000	195.919	80.000	20.009	100.361	20.011	33.775	0.486
264.000	196.909	79.999	20.008	100.345	20.013	33.094	0.509
266.000	197.925	80.000	20.008	100.348	20.014	33.056	0.518
268.000	198.942	80.000	20.008	100.360	20.014	32.982	0.532
270.000	199.983	80.000	20.009	100.347	20.014	32.827	0.509
272.000	201.008	80.000	20.008	100.357	20.014	33.012	0.561
274.000	201.908	79.999	20.009	100.358	20.013	33.353	0.451
276.000	202.980	80.001	20.009	100.349	20.013	33.097	0.499
278.000	204.013	80.000	20.008	100.339	20.011	33.968	0.537
280.000	205.067	80.000	20.008	100.354	20.012	33.578	0.493
282.000	206.101	79.999	20.008	100.348	20.011	33.919	0.532
284.000	207.124	80.001	20.009	100.347	20.009	34.326	0.509
286.000	208.118	79.999	20.009	100.340	20.013	33.369	0.514
288.000	209.154	80.000	20.009	100.335	20.010	34.187	0.507
290.000	210.142	80.000	20.008	100.348	20.009	34.374	0.493
292.000	211.181	80.000	20.009	100.323	20.011	33.995	0.465
294.000	212.239	80.000	20.009	100.323	20.009	34.411	0.491
296.000	213.273	80.000	20.009	100.303	20.010	34.315	0.541
298.000	214.314	80.000	20.009	100.314	20.010	34.019	0.536
300.000	215.351	79.999	20.008	100.318	20.011	33.776	0.536
302.000	216.341	80.001	20.008	100.319	20.011	33.975	0.507
304.000	217.434	80.000	20.009	100.328	20.009	34.604	0.548
306.000	218.440	80.000	20.008	100.316	20.011	33.795	0.499
308.000	219.495	80.000	20.008	100.344	20.008	34.834	0.525
310.000	220.478	80.001	20.008	100.333	20.008	34.830	0.503
312.000	221.587	80.000	20.009	100.319	20.013	33.184	0.542
314.000	222.603	80.000	20.008	100.323	20.010	34.188	0.510
316.000	223.635	79.999	20.008	100.338	20.009	34.406	0.495
318.000	224.701	79.999	20.008	100.341	20.008	34.851	0.510
320.000	225.672	79.999	20.009	100.317	20.007	34.951	0.505
322.000	226.731	80.001	20.009	100.322	20.011	33.804	0.543
324.000	227.728	80.000	20.008	100.313	20.012	33.671	0.488
326.000	228.771	80.000	20.009	100.318	20.010	34.041	0.539
328.000	229.806	80.001	20.008	100.322	20.009	34.383	0.528
330.000	230.849	80.001	20.009	100.320	20.012	33.683	0.499
332.000	231.861	80.000	20.008	100.321	20.010	34.030	0.497
334.000	232.819	80.001	20.008	100.306	20.007	35.059	0.513
336.000	233.883	80.000	20.008	100.322	20.008	34.724	0.533
338.000	234.929	80.001	20.008	100.313	20.009	34.505	0.523
340.000	235.926	80.001	20.008	100.305	20.010	34.279	0.498
342.000	236.975	80.000	20.008	100.296	20.009	34.549	0.545
344.000	237.966	80.001	20.008	100.306	20.008	34.770	0.503
346.000	238.945	80.001	20.008	100.311	20.009	34.463	0.485
348.000	240.036	80.001	20.008	100.301	20.014	32.777	0.525
350.000	240.976	80.002	20.008	100.305	20.010	34.223	0.480
352.000	242.094	80.001	20.008	100.300	20.012	33.684	0.506
354.000	243.113	80.000	20.008	100.310	20.012	33.599	0.534
356.000	244.145	80.001	20.008	100.327	20.010	34.109	0.507
358.000	245.132	79.999	20.008	100.310	20.012	33.423	0.516
360.000	246.197	80.001	20.008	100.323	20.010	34.120	0.509
362.000	247.200	80.000	20.009	100.306	20.010	34.068	0.519
364.000	248.217	80.001	20.008	100.320	20.012	33.460	0.511
366.000	249.282	80.001	20.009	100.302	20.011	33.786	0.515
368.000	250.224	80.002	20.009	100.306	20.011	33.764	0.471
370.000	251.295	80.000	20.009	100.297	20.009	34.539	0.510
372.000	252.343	80.001	20.009	100.314	20.011	33.738	0.545
374.000	253.289	80.001	20.009	100.314	20.012	33.654	0.500
376.000	254.275	80.000	20.009	100.315	20.012	33.578	0.516
378.000	255.282	80.001	20.009	100.321	20.010	34.261	0.490
380.000	256.312	80.000	20.009	100.309	20.011	33.753	0.497
382.000	257.327	80.000	20.008	100.328	20.010	34.203	0.502
384.000	258.297	80.001	20.009	100.306	20.008	34.637	0.495
386.000	259.299	79.999	20.009	100.326	20.009	34.406	0.507
388.000	260.358	80.000	20.008	100.315	20.009	34.524	0.528
390.000	261.361	80.000	20.009	100.324	20.008	34.654	0.486
392.000	262.343	80.001	20.008	100.317	20.008	34.618	0.504
394.000	263.353	80.001	20.008	100.309	20.010	34.248	0.513
396.000	264.341	80.002	20.009	100.325	20.011	33.736	0.484
398.000	265.367	80.000	20.009	100.307	20.009	34.597	0.486
400.000	266.399	80.000	20.009	100.313	20.010	34.204	0.534
402.000	267.388	79.999	20.008	100.293	20.007	35.028	0.514
404.000	268.397	80.001	20.009	100.317	20.012	33.464	0.495
406.000	269.423	80.000	20.009	100.298	20.011	33.959	0.498
408.000	270.480	79.999	20.009	100.315	20.011	33.694	0.544
410.000	271.457	79.999	20.008	100.316	20.009	34.499	0.479
412.000	272.524	79.998	20.009	100.311	20.008	34.833	0.502
414.000	273.466	79.999	20.009	100.315	20.005	35.610	0.462
416.000	274.502	79.999	20.009	100.302	20.003	36.237	0.509
418.000	275.504	80.000	20.008	100.316	20.005	35.571	0.504
420.000	276.560	79.999	20.009	100.294	20.002	36.565	0.545
422.000	277.568	80.001	20.009	100.322	20.001	36.929	0.563
424.000	278.563	80.000	20.008	100.302	20.000	37.333	0.476
426.000	279.543	79.999	20.008	100.303	20.000	37.168	0.485
428.000	280.564	80.000	20.008	100.293	19.999	37.465	0.534
430.000	281.506	80.000	20.009	100.318	20.000	37.161	0.475
432.000	282.522	80.000	20.009	100.307	19.999	37.527	0.509
434.000	283.569	80.000	20.009	100.311	20.000	37.318	0.490
436.000	284.510	79.999	20.009	100.342	20.002	36.618	0.497
438.000	285.542	80.002	20.008	100.333	19.997	38.079	0.527
440.000	286.552	80.000	20.009	100.304	19.997	38.165	0.490
442.000	287.560	79.999	20.009	100.300	19.995	38.643	0.510
444.000	288.538	80.001	20.008	100.309	19.996	38.377	0.479
446.000	289.540	80.000	20.009	100.284	19.994	39.088	0.522
448.000	290.586	80.000	20.009	100.298	19.993	39.550	0.522
450.000	291.573	79.999	20.009	100.295	19.991	39.988	0.498
452.000	292.590	80.001	20.009	100.286	19.991	40.160	0.523
454.000	293.570	80.001	20.008	100.289	19.991	39.901	0.463
456.000	294.560	79.999	20.008	100.299	19.992	39.579	0.508
458.000	295.614	80.001	20.008	100.307	19.992	39.686	0.486
460.000	296.604	79.999	20.008	100.292	19.989	40.609	0.487
462.000	297.601	80.001	20.008	100.291	19.992	39.638	0.497
464.000	298.615	80.000	20.008	100.297	19.991	40.031	0.519
466.000	299.624	80.001	20.009	100.285	19.987	41.386	0.527
468.000	300.640	80.001	20.009	100.294	19.989	40.628	0.520
470.000	301.640	80.000	20.009	100.277	19.988	40.813	0.518
472.000	302.652	80.002	20.009	100.292	19.986	41.518	0.495
474.000	303.629	80.001	20.008	100.289	19.984	42.114	0.489
476.000	304.615	80.000	20.009	100.284	19.984	42.135	0.455
478.000	305.623	80.001	20.009	100.294	19.983	42.390	0.496
480.000	306.619	80.000	20.009	100.298	19.983	42.653	0.467
482.000	307.597	80.002	20.009	100.295	19.981	43.187	0.487
484.000	308.595	80.000	20.008	100.291	19.977	44.384	0.503
486.000	309.611	79.999	20.009	100.298	19.980	43.587	0.476
488.000	310.612	80.000	20.008	100.303	19.977	44.336	0.476
490.000	311.587	80.001	20.008	100.290	19.975	45.137	0.472
492.000	312.605	80.000	20.009	100.299	19.968	47.150	0.486
494.000	313.613	79.999	20.009	100.281	19.967	47.435	0.484
496.000	314.627	80.001	20.008	100.299	19.963	48.575	0.511
498.000	315.578	80.003	20.009	100.295	19.962	48.870	0.483
500.000	316.605	80.001	20.009	100.300	19.952	52.112	0.477
502.000	317.649	80.000	20.008	100.292	19.949	52.915	0.497
504.000	318.705	79.999	20.009	100.297	19.941	55.434	0.499
506.000	319.709	80.002	20.009	100.293	19.934	57.637	0.525
508.000	320.612	80.001	20.010	100.278	19.930	58.889	0.457
510.000	321.694	80.000	20.008	100.284	19.924	60.913	0.527
512.000	322.687	80.001	20.009	100.272	19.919	62.479	0.537
514.000	323.726	80.001	20.009	100.290	19.909	65.359	0.510
516.000	324.648	80.000	20.009	100.278	19.901	67.842	0.510
518.000	325.639	80.001	20.009	100.302	19.892	70.571	0.465
520.000	326.658	80.000	20.009	100.286	19.886	72.691	0.532
522.000	327.659	80.001	20.009	100.305	19.874	76.425	0.524
524.000	328.686	80.001	20.008	100.311	19.864	79.377	0.544
526.000	329.616	80.001	20.009	100.312	19.856	81.819	0.501
528.000	330.630	80.000	20.008	100.314	19.845	85.385	0.465
530.000	331.618	80.000	20.009	100.294	19.835	88.382	0.493
532.000	332.596	80.001	20.008	100.291	19.826	91.287	0.523
534.000	333.592	80.001	20.009	100.298	19.813	95.255	0.485
536.000	334.576	80.001	20.009	100.330	19.798	99.840	0.510
538.000	335.551	80.001	20.009	100.312	19.779	105.896	0.482
540.000	336.562	80.001	20.008	100.333	19.762	111.098	0.528
542.000	337.552	80.001	20.009	100.323	19.747	115.733	0.506
544.000	338.515	80.000	20.009	100.327	19.736	118.964	0.471
546.000	339.548	80.000	20.009	100.295	19.725	122.633	0.511
548.000	340.577	80.002	20.009	100.314	19.710	126.979	0.499
550.000	341.528	80.001	20.009	100.312	19.695	131.872	0.462
552.000	342.547	80.000	20.009	100.338	19.683	135.543	0.459
554.000	343.529	80.001	20.008	100.323	19.668	140.059	0.510
556.000	344.525	80.000	20.008	100.322	19.651	145.526	0.520
558.000	345.555	80.001	20.008	100.322	19.634	150.688	0.549
560.000	346.536	80.000	20.008	100.321	19.620	155.122	0.467
562.000	347.582	80.001	20.007	100.322	19.604	159.936	0.485
564.000	348.542	80.000	20.008	100.300	19.583	166.602	0.467
566.000	349.608	80.001	20.007	100.302	19.564	172.484	0.524
568.000	350.562	80.001	20.007	100.306	19.537	180.798	0.491
570.000	351.637	80.000	20.008	100.339	19.517	187.046	0.534
572.000	352.571	80.001	20.008	100.341	19.499	192.471	0.473
574.000	353.544	80.001	20.008	100.337	19.484	197.213	0.521
576.000	354.540	80.001	20.008	100.314	19.466	202.879	0.523
578.000	355.616	79.999	20.008	100.314	19.453	206.919	0.498
580.000	356.558	80.000	20.008	100.329	19.441	210.533	0.488
582.000	357.516	80.000	20.008	100.328	19.425	215.518	0.417
584.000	358.513	80.001	20.008	100.350	19.413	219.194	0.465
586.000	359.583	79.999	20.008	100.340	19.402	222.673	0.569
588.000	360.586	80.000	20.009	100.337	19.395	224.938	0.526
590.000	361.556	79.999	20.008	100.341	19.388	227.008	0.499
592.000	362.512	80.000	20.008	100.346	19.379	229.710	0.498
594.000	363.520	80.001	20.008	100.358	19.371	232.218	0.515
596.000	364.527	79.999	20.008	100.360	19.358	236.366	0.515
598.000	365.525	80.002	20.007	100.374	19.355	237.095	0.502
600.000	366.481	80.001	20.007	100.342	19.351	238.445	0.506
602.000	367.505	80.000	20.008	100.350	19.358	236.093	0.476
604.000	368.484	79.999	20.008	100.346	19.360	235.713	0.506
606.000	369.496	80.000	20.008	100.332	19.361	235.198	0.478
608.000	370.511	79.999	20.007	100.335	19.361	235.391	0.496
610.000	371.498	80.000	20.008	100.343	19.362	235.075	0.470
612.000	372.495	80.001	20.007	100.348	19.365	233.832	0.489
614.000	373.546	80.000	20.008	100.320	19.369	232.829	0.514
616.000	374.480	80.000	20.007	100.334	19.376	230.671	0.467
618.000	375.489	80.001	20.007	100.336	19.389	226.756	0.500
620.000	376.484	79.999	20.007	100.339	19.405	221.518	0.481
622.000	377.416	80.000	20.007	100.297	19.430	213.975	0.464
624.000	378.404	79.999	20.007	100.298	19.458	205.347	0.474
626.000	379.456	80.000	20.007	100.284	19.485	196.959	0.538
628.000	380.469	80.000	20.007	100.312	19.515	187.414	0.483
630.000	381.412	80.000	20.007	100.327	19.537	180.566	0.500
632.000	382.464	80.000	20.008	100.317	19.562	172.837	0.522
634.000	383.471	80.001	20.007	100.330	19.581	167.057	0.507
636.000	384.492	80.002	20.007	100.307	19.597	162.172	0.529
638.000	385.512	80.001	20.007	100.326	19.615	156.440	0.506
640.000	386.520	80.000	20.008	100.314	19.632	151.422	0.503
642.000	387.519	80.000	20.008	100.324	19.646	146.814	0.547
644.000	388.515	80.000	20.008	100.296	19.661	142.355	0.531
646.000	389.580	80.000	20.009	100.297	19.677	137.283	0.523
648.000	390.536	80.001	20.008	100.279	19.695	131.763	0.487
650.000	391.603	80.000	20.008	100.304	19.704	128.875	0.527
652.000	392.556	79.999	20.009	100.299	19.722	123.296	0.486
654.000	393.617	80.001	20.009	100.304	19.737	118.710	0.542
656.000	394.544	80.000	20.008	100.296	19.751	114.484	0.480
658.000	395.570	80.001	20.009	100.303	19.768	109.202	0.482
660.000	396.590	80.000	20.008	100.287	19.788	102.814	0.487
662.000	397.571	80.000	20.009	100.280	19.805	97.533	0.471
664.000	398.585	80.000	20.008	100.287	19.822	92.338	0.510
666.000	399.620	79.999	20.009	100.291	19.839	86.996	0.492
668.000	400.604	80.001	20.008	100.303	19.857	81.601	0.492
670.000	401.636	80.000	20.009	100.303	19.868	78.071	0.527
672.000	402.573	80.001	20.008	100.316	19.886	72.540	0.479
674.000	403.586	80.000	20.008	100.298	19.900	68.329	0.467
676.000	404.549	80.000	20.009	100.325	19.913	64.123	0.502
678.000	405.535	80.001	20.008	100.300	19.926	60.146	0.465
680.000	406.598	80.000	20.009	100.304	19.935	57.246	0.504
682.000	407.635	79.999	20.008	100.288	19.944	54.593	0.532
684.000	408.594	80.000	20.009	100.292	19.955	51.239	0.504
686.000	409.620	80.000	20.008	100.294	19.963	48.843	0.484
688.000	410.592	80.001	20.009	100.284	19.970	46.439	0.484
690.000	411.617	80.000	20.009	100.282	19.978	44.054	0.498
692.000	412.668	80.000	20.008	100.284	19.982	42.947	0.511
694.000	413.517	80.001	20.008	100.310	19.990	40.261	0.463
696.000	414.488	80.001	20.009	100.297	19.997	38.187	0.464
698.000	415.498	80.000	20.008	100.298	20.001	36.799	0.493
700.000	416.558	79.999	20.008	100.271	20.004	35.883	0.513
702.000	417.478	80.000	20.009	100.297	20.009	34.379	0.507
704.000	418.490	80.000	20.008	100.283	20.015	32.728	0.514
706.000	419.483	80.000	20.009	100.294	20.019	31.508	0.484
708.000	420.454	80.000	20.008	100.288	20.016	32.307	0.508
710.000	421.460	80.001	20.009	100.291	20.024	29.924	0.535
712.000	422.450	80.000	20.008	100.271	20.022	30.526	0.491
714.000	423.431	80.001	20.008	100.285	20.023	30.137	0.520
716.000	424.468	79.999	20.008	100.283	20.025	29.550	0.483
718.000	425.485	79.999	20.009	100.283	20.029	28.403	0.546
720.000	426.472	80.001	20.008	100.298	20.029	28.225	0.505
722.000	427.507	80.001	20.009	100.262	20.029	28.114	0.514
724.000	428.447	80.001	20.009	100.281	20.030	27.820	0.462
726.000	429.500	80.000	20.009	100.267	20.034	26.738	0.502
728.000	430.493	80.000	20.008	100.283	20.036	26.070	0.476
730.000	431.446	79.999	20.008	100.264	20.036	26.203	0.460
732.000	432.503	80.000	20.008	100.285	20.039	25.008	0.508
734.000	433.460	79.999	20.008	100.251	20.038	25.476	0.495
736.000	434.496	80.000	20.009	100.261	20.036	25.955	0.517
738.000	435.444	80.001	20.009	100.253	20.036	26.062	0.498
740.000	436.430	80.000	20.008	100.275	20.038	25.486	0.511
742.000	437.443	80.000	20.008	100.267	20.037	25.822	0.495
744.000	438.490	80.001	20.009	100.272	20.039	25.186	0.514
746.000	439.431	80.000	20.008	100.273	20.040	24.985	0.498
748.000	440.471	80.000	20.009	100.265	20.041	24.652	0.516
750.000	441.444	80.000	20.008	100.252	20.039	25.028	0.483
752.000	442.409	80.001	20.008	100.263	20.042	24.296	0.437
754.000	443.373	79.999	20.009	100.262	20.039	25.132	0.494
756.000	444.343	80.000	20.008	100.254	20.040	24.717	0.467
758.000	445.295	80.000	20.008	100.252	20.041	24.544	0.491
760.000	446.319	80.001	20.009	100.263	20.039	25.017	0.542
762.000	447.292	80.000	20.009	100.250	20.039	25.111	0.462
764.000	448.301	80.000	20.009	100.253	20.038	25.464	0.488
766.000	449.282	80.001	20.009	100.241	20.040	24.778	0.519
768.000	450.238	80.000	20.009	100.253	20.041	24.515	0.494
770.000	451.203	79.999	20.008	100.249	20.042	24.192	0.480
772.000	452.169	80.000	20.009	100.256	20.044	23.520	0.464
774.000	453.144	79.999	20.009	100.251	20.042	24.273	0.491
776.000	454.126	80.000	20.009	100.282	20.039	25.064	0.478
778.000	455.131	79.999	20.009	100.243	20.040	24.783	0.510
780.000	456.164	80.000	20.009	100.262	20.042	24.286	0.521
782.000	457.159	79.999	20.008	100.253	20.040	24.782	0.504
784.000	458.135	79.999	20.009	100.264	20.041	24.415	0.498
786.000	459.140	80.001	20.008	100.255	20.043	23.958	0.517
788.000	460.172	80.000	20.008	100.279	20.044	23.513	0.519
790.000	461.110	80.000	20.009	100.238	20.044	23.638	0.469
792.000	462.097	79.999	20.008	100.261	20.045	23.231	0.460
794.000	463.126	80.000	20.009	100.249	20.046	22.899	0.540
796.000	464.118	80.001	20.009	100.285	20.048	22.481	0.514
798.000	465.102	80.000	20.008	100.259	20.047	22.617	0.485
800.000	466.096	80.001	20.009	100.292	20.047	22.741	0.463
802.000	467.126	80.001	20.009	100.265	20.047	22.613	0.482
804.000	468.161	80.000	20.009	100.286	20.047	22.526	0.496
806.000	469.134	80.000	20.009	100.263	20.046	22.983	0.511
808.000	470.171	80.001	20.009	100.284	20.044	23.645	0.470
810.000	471.151	80.000	20.009	100.238	20.045	23.373	0.517
812.000	472.177	80.000	20.008	100.256	20.047	22.669	0.527
814.000	473.156	80.000	20.009	100.250	20.046	22.894	0.507
816.000	474.176	79.999	20.009	100.261	20.048	22.460	0.535
818.000	475.141	79.999	20.008	100.261	20.046	23.052	0.509
820.000	476.101	80.001	20.009	100.271	20.046	22.993	0.507
822.000	477.119	80.000	20.009	100.255	20.045	23.419	0.502
824.000	478.135	80.000	20.009	100.254	20.045	23.285	0.485
826.000	479.120	80.000	20.008	100.249	20.039	25.117	0.474
828.000	480.098	80.001	20.009	100.249	20.041	24.413	0.473
830.000	481.093	80.002	20.008	100.268	20.042	24.197	0.486
832.000	482.081	79.999	20.009	100.252	20.042	24.086	0.481
834.000	483.074	80.000	20.009	100.289	20.045	23.295	0.515
836.000	484.032	80.001	20.009	100.277	20.042	24.176	0.505
838.000	485.044	79.999	20.008	100.288	20.042	24.073	0.481
840.000	486.042	80.000	20.009	100.253	20.043	23.837	0.492
842.000	486.966	80.000	20.009	100.273	20.042	24.238	0.481
844.000	487.941	80.001	20.009	100.254	20.042	24.313	0.521
846.000	488.956	80.000	20.009	100.271	20.041	24.487	0.490
848.000	489.866	80.000	20.009	100.270	20.039	25.021	0.474
850.000	490.868	79.999	20.009	100.277	20.039	25.174	0.493
852.000	491.814	80.001	20.009	100.262	20.039	25.253	0.461
854.000	492.810	80.000	20.009	100.246	20.041	24.467	0.475
856.000	493.777	79.999	20.009	100.252	20.041	24.663	0.466
858.000	494.784	80.002	20.009	100.244	20.041	24.605	0.502
860.000	495.798	80.000	20.009	100.258	20.043	23.934	0.520
862.000	496.755	80.000	20.008	100.259	20.043	23.838	0.511
864.000	497.729	80.000	20.009	100.263	20.042	24.136	0.495
866.000	498.692	80.000	20.008	100.249	20.043	23.819	0.462
868.000	499.734	80.001	20.008	100.278	20.044	23.651	0.517
870.000	500.798	80.000	20.008	100.270	20.043	23.815	0.517
872.000	501.725	80.000	20.009	100.258	20.042	24.167	0.497
874.000	502.749	80.001	20.008	100.267	20.045	23.403	0.485
876.000	503.737	80.001	20.008	100.249	20.044	23.759	0.502
878.000	504.749	80.000	20.008	100.274	20.045	23.199	0.506
880.000	505.745	80.002	20.008	100.247	20.047	22.623	0.524
882.000	506.641	80.000	20.009	100.262	20.045	23.197	0.451
884.000	507.685	80.001	20.009	100.238	20.045	23.196	0.507
886.000	508.664	80.000	20.008	100.260	20.044	23.496	0.497
888.000	509.720	80.000	20.009	100.252	20.047	22.606	0.543
890.000	510.703	80.001	20.008	100.267	20.046	23.029	0.526
892.000	511.686	80.000	20.009	100.236	20.044	23.648	0.503
894.000	512.658	79.999	20.009	100.249	20.040	24.798	0.510
896.000	513.666	80.001	20.010	100.220	20.044	23.640	0.517
898.000	514.596	80.000	20.008	100.198	20.041	24.440	0.459
900.000	515.651	80.000	20.008	100.249	20.041	24.641	0.516
902.000	516.608	80.001	20.008	100.254	20.043	23.784	0.501
904.000	517.692	80.001	20.008	100.253	20.039	25.317	0.508
906.000	518.680	80.001	20.009	100.263	20.037	25.712	0.512
908.000	519.614	80.000	20.007	100.256	20.043	23.912	0.457
910.000	520.680	80.001	20.008	100.246	20.043	23.950	0.539
912.000	521.691	80.000	20.008	100.243	20.046	22.882	0.497
914.000	522.694	80.001	20.010	100.248	20.046	22.953	0.511
916.000	523.666	80.001	20.008	100.321	20.045	23.267	0.497
918.000	524.693	80.000	20.009	100.261	20.044	23.694	0.540
920.000	525.629	80.001	20.009	100.263	20.041	24.541	0.444
922.000	526.637	80.002	20.010	100.292	20.038	25.420	0.509
924.000	527.670	80.000	20.008	100.181	20.036	25.980	0.523
926.000	528.668	80.001	20.007	100.225	20.037	25.732	0.523
928.000	529.683	80.002	20.007	100.264	20.039	25.029	0.512
930.000	530.657	80.000	20.007	100.301	20.042	24.311	0.513
932.000	531.618	80.001	20.009	100.332	20.042	24.338	0.506
934.000	532.588	80.000	20.009	100.258	20.036	25.953	0.479
936.000	533.574	79.999	20.009	100.252	20.039	25.130	0.437
938.000	534.546	80.000	20.008	100.264	20.040	24.707	0.460
940.000	535.515	80.001	20.008	100.264	20.040	24.707	0.493
942.000	536.544	80.001	20.009	100.283	20.043	24.060	0.538
944.000	537.447	80.001	20.008	100.283	20.043	23.940	0.460
946.000	538.425	80.000	20.008	100.281	20.040	24.980	0.528
948.000	539.428	80.000	20.009	100.247	20.040	24.802	0.486
950.000	540.380	80.001	20.009	100.263	20.037	25.860	0.489
952.000	541.358	80.000	20.009	100.257	20.040	24.975	0.478
954.000	542.333	80.000	20.009	100.266	20.042	24.215	0.503
956.000	543.348	80.001	20.008	100.276	20.044	23.623	0.524
958.000	544.254	80.001	20.009	100.281	20.043	23.846	0.482
960.000	545.275	79.999	20.008	100.296	20.045	23.403	0.507
962.000	546.266	80.001	20.009	100.287	20.048	22.356	0.484
964.000	547.241	80.001	20.009	100.311	20.047	22.710	0.504
966.000	548.247	80.001	20.009	100.289	20.043	23.826	0.469
968.000	549.241	79.999	20.009	100.283	20.041	24.487	0.527
970.000	550.229	80.001	20.009	100.244	20.041	24.400	0.496
972.000	551.247	80.001	20.008	100.260	20.039	25.005	0.484
974.000	552.185	80.000	20.009	100.261	20.042	24.380	0.478
976.000	553.209	80.000	20.009	100.300	20.044	23.459	0.518
978.000	554.249	80.000	20.008	100.288	20.046	23.037	0.517
980.000	555.239	80.000	20.009	100.289	20.044	23.629	0.508
982.000	556.238	80.001	20.009	100.260	20.039	25.162	0.534
984.000	557.210	79.999	20.009	100.253	20.039	25.091	0.493
986.000	558.240	79.999	20.009	100.263	20.040	24.792	0.514
988.000	559.226	80.000	20.008	100.283	20.041	24.420	0.497
990.000	560.279	80.000	20.008	100.277	20.039	25.295	0.541
992.000	561.278	80.000	20.009	100.274	20.042	24.155	0.500
994.000	562.344	80.000	20.008	100.283	20.042	24.236	0.498
996.000	563.345	80.001	20.009	100.290	20.041	24.665	0.483
998.000	564.306	80.000	20.009	100.278	20.040	24.779	0.504
1000.000	565.332	80.000	20.008	100.276	20.038	25.489	0.525
1002.000	566.375	80.000	20.008	100.280	20.034	26.696	0.519
1004.000	567.377	79.999	20.009	100.260	20.035	26.384	0.528
1006.000	568.381	80.001	20.009	100.255	20.034	26.617	0.482
1008.000	569.392	80.000	20.009	100.250	20.032	27.175	0.538
1010.000	570.362	79.999	20.009	100.257	20.032	27.409	0.473
1012.000	571.350	80.001	20.008	100.248	20.026	29.050	0.499
1014.000	572.381	80.000	20.008	100.256	20.027	28.927	0.519
1016.000	573.355	79.999	20.008	100.244	20.029	28.319	0.458
1018.000	574.357	79.998	20.008	100.254	20.027	28.946	0.502
1020.000	575.391	80.001	20.008	100.244	20.028	28.682	0.534
1022.000	576.459	80.000	20.008	100.252	20.026	29.043	0.534
1024.000	577.435	80.000	20.009	100.234	20.029	28.251	0.505
1025.999	578.446	80.001	20.008	100.245	20.031	27.760	0.491
1028.000	579.503	80.000	20.009	100.239	20.027	28.752	0.526
1029.999	580.479	79.999	20.008	100.252	20.029	28.254	0.503
1031.999	581.546	80.000	20.009	100.234	20.026	29.241	0.569
1033.999	582.544	80.001	20.009	100.237	20.026	29.184	0.516
1036.000	583.549	79.999	20.008	100.242	20.029	28.161	0.488
1037.999	584.629	80.000	20.008	100.266	20.027	28.943	0.529
1040.000	585.653	80.000	20.009	100.248	20.029	28.222	0.493
1042.000	586.625	80.001	20.008	100.249	20.026	29.108	0.488
1043.999	587.591	80.000	20.009	100.255	20.028	28.493	0.480
1046.000	588.631	80.000	20.008	100.264	20.029	28.336	0.500
1047.999	589.584	79.999	20.008	100.248	20.028	28.651	0.441
1050.000	590.607	80.001	20.008	100.281	20.030	27.829	0.496
1052.000	591.601	79.998	20.009	100.269	20.031	27.600	0.507
1053.999	592.612	80.000	20.009	100.268	20.030	27.841	0.514
1055.999	593.578	80.000	20.009	100.261	20.031	27.598	0.477
1058.000	594.577	80.001	20.008	100.274	20.033	27.000	0.499
1060.000	595.524	80.000	20.008	100.262	20.036	25.941	0.488
1062.001	596.571	80.000	20.008	100.288	20.038	25.439	0.535
1063.999	597.523	80.000	20.009	100.274	20.033	26.986	0.468
1066.001	598.554	80.000	20.008	100.294	20.032	27.242	0.504
1067.999	599.563	80.001	20.009	100.267	20.032	27.370	0.515
1069.999	600.533	80.001	20.009	100.279	20.034	26.759	0.478
1071.999	601.532	80.001	20.009	100.258	20.027	28.983	0.516
1073.999	602.525	80.000	20.009	100.286	20.025	29.644	0.493
1075.999	603.578	80.000	20.008	100.265	20.026	29.282	0.550
1077.999	604.547	80.000	20.008	100.267	20.027	28.764	0.482
1079.999	605.532	80.002	20.009	100.266	20.026	29.230	0.446
1081.999	606.520	80.002	20.009	100.284	20.027	28.866	0.512
1084.000	607.487	79.999	20.009	100.259	20.028	28.413	0.496
1085.999	608.505	80.000	20.008	100.273	20.026	29.205	0.514
1088.000	609.418	80.001	20.008	100.253	20.023	29.963	0.484
1089.999	610.362	80.000	20.008	100.282	20.027	29.020	0.491
1091.999	611.343	80.000	20.008	100.251	20.029	28.336	0.477
1093.999	612.342	80.000	20.008	100.258	20.027	28.739	0.513
1096.001	613.294	80.000	20.008	100.252	20.027	28.927	0.483
1097.999	614.292	80.000	20.009	100.251	20.027	28.843	0.472
1099.999	615.324	80.000	20.009	100.257	20.028	28.515	0.526
1101.999	616.253	80.001	20.008	100.239	20.026	29.084	0.475
1103.999	617.280	79.999	20.009	100.262	20.026	29.305	0.512
1106.000	618.304	80.000	20.008	100.249	20.027	28.915	0.564
1107.999	619.334	79.999	20.009	100.258	20.029	28.148	0.514
1110.000	620.330	79.999	20.008	100.255	20.026	29.036	0.517
1111.999	621.329	80.000	20.009	100.249	20.025	29.557	0.470
1114.000	622.348	79.998	20.008	100.234	20.025	29.421	0.499
1116.000	623.406	80.001	20.009	100.267	20.024	29.663	0.534
1118.000	624.341	79.999	20.009	100.245	20.025	29.527	0.501
1119.999	625.355	80.000	20.009	100.268	20.025	29.372	0.513
1122.000	626.342	79.999	20.009	100.240	20.026	29.171	0.496
1123.999	627.390	80.001	20.008	100.260	20.029	28.406	0.557
1126.000	628.395	80.002	20.009	100.258	20.027	28.812	0.481
1127.999	629.336	80.001	20.008	100.284	20.029	28.398	0.471
1129.999	630.379	79.999	20.008	100.271	20.026	29.222	0.523
1131.999	631.337	79.999	20.008	100.276	20.031	27.769	0.528
1134.000	632.358	80.001	20.008	100.258	20.028	28.592	0.507
1135.999	633.343	80.000	20.008	100.244	20.030	28.078	0.502
1138.000	634.344	80.000	20.008	100.272	20.030	28.017	0.456
1140.000	635.360	79.999	20.008	100.268	20.031	27.762	0.557
1141.999	636.372	80.000	20.008	100.282	20.030	28.037	0.480
1144.000	637.432	79.999	20.008	100.246	20.027	28.757	0.574
1146.000	638.346	80.000	20.008	100.275	20.029	28.299	0.504
1147.999	639.414	80.001	20.008	100.260	20.028	28.536	0.523
1149.999	640.381	80.001	20.008	100.279	20.029	28.316	0.512
1151.999	641.445	79.999	20.008	100.249	20.029	28.202	0.519
1153.999	642.457	80.000	20.008	100.242	20.028	28.519	0.544
1155.999	643.453	80.000	20.008	100.244	20.030	27.946	0.526
1157.999	644.429	79.999	20.008	100.242	20.030	27.972	0.464
1160.000	645.485	80.001	20.008	100.254	20.028	28.568	0.498
1161.999	646.558	79.999	20.008	100.232	20.028	28.558	0.549
1163.999	647.497	80.000	20.008	100.255	20.029	28.337	0.494
1166.000	648.576	80.000	20.008	100.223	20.026	29.081	0.545
1168.000	649.586	79.999	20.008	100.236	20.031	27.781	0.508
1170.000	650.602	79.999	20.008	100.233	20.030	27.844	0.518
1172.000	651.596	80.000	20.008	100.273	20.030	28.081	0.509
1173.999	652.592	80.000	20.008	100.238	20.031	27.531	0.514
1176.000	653.584	80.000	20.009	100.260	20.029	28.202	0.505
1177.999	654.625	79.998	20.009	100.240	20.030	27.998	0.532
1179.999	655.624	79.999	20.009	100.262	20.035	26.451	0.520
1181.999	656.550	79.999	20.009	100.237	20.031	27.762	0.480
1183.999	657.643	79.999	20.009	100.266	20.033	26.953	0.568
1185.999	658.606	79.999	20.009	100.264	20.035	26.242	0.514
1187.999	659.562	80.001	20.008	100.284	20.034	26.733	0.459
1190.000	660.601	80.001	20.008	100.260	20.034	26.686	0.489
1192.000	661.551	79.999	20.008	100.271	20.029	28.317	0.475
1193.999	662.551	80.000	20.008	100.254	20.033	26.957	0.475
1195.999	663.538	79.999	20.008	100.262	20.031	27.585	0.547
1197.999	664.469	79.998	20.008	100.258	20.032	27.293	0.496
1199.999	665.504	80.001	20.008	100.255	20.030	27.851	0.520
1201.999	666.561	80.000	20.008	100.270	20.034	26.823	0.481
1203.999	667.535	79.999	20.008	100.234	20.034	26.751	0.497
1206.000	668.537	80.001	20.008	100.266	20.032	27.247	0.510
1208.000	669.524	80.000	20.009	100.241	20.031	27.606	0.512
1209.999	670.539	80.001	20.008	100.267	20.033	27.003	0.500
1211.999	671.523	80.000	20.009	100.257	20.032	27.200	0.505
1213.999	672.511	80.000	20.008	100.287	20.032	27.283	0.505
1215.999	673.497	80.000	20.009	100.235	20.028	28.490	0.522
1217.999	674.505	79.999	20.008	100.199	20.030	28.033	0.516
1219.999	675.557	79.997	20.006	100.241	20.031	27.501	0.507
1221.999	676.554	79.999	20.008	100.376	20.031	27.632	0.510
1223.999	677.570	79.999	20.008	100.269	20.031	27.486	0.513
1226.000	678.555	79.999	20.008	100.260	20.031	27.657	0.526
1228.000	679.526	80.000	20.008	100.235	20.036	26.021	0.490
1230.000	680.582	79.999	20.008	100.256	20.035	26.314	0.547
1231.999	681.536	80.000	20.009	100.239	20.032	27.242	0.481
1234.000	682.533	80.000	20.008	100.255	20.032	27.174	0.509
1235.999	683.552	80.000	20.009	100.262	20.030	27.801	0.473
1237.999	684.539	80.000	20.008	100.260	20.035	26.479	0.498
1239.999	685.531	80.000	20.009	100.269	20.031	27.679	0.478
1241.999	686.520	80.000	20.008	100.262	20.029	28.216	0.490
1243.999	687.567	80.000	20.008	100.269	20.028	28.464	0.514
1246.000	688.618	79.999	20.008	100.244	20.028	28.693	0.512
1247.999	689.552	80.001	20.008	100.264	20.028	28.419	0.504
1250.000	690.609	80.001	20.009	100.249	20.027	28.824	0.512
1251.999	691.665	80.000	20.008	100.263	20.029	28.162	0.527
1254.000	692.669	80.000	20.008	100.256	20.030	28.053	0.508
1255.999	693.717	80.000	20.008	100.280	20.027	28.758	0.515
1257.999	694.672	79.999	20.009	100.270	20.028	28.700	0.451
1259.999	695.651	80.000	20.008	100.262	20.030	27.794	0.497
1261.999	696.619	80.001	20.008	100.247	20.028	28.699	0.440
1263.999	697.595	79.998	20.008	100.242	20.029	28.191	0.471
1265.999	698.657	80.000	20.008	100.248	20.028	28.510	0.502
1267.999	699.624	80.000	20.008	100.248	20.028	28.443	0.489
1269.999	700.600	79.999	20.009	100.255	20.029	28.295	0.483
1271.999	701.503	79.999	20.008	100.236	20.027	28.957	0.470
1273.999	702.510	80.000	20.008	100.250	20.026	29.297	0.515
1275.999	703.439	80.001	20.008	100.230	20.029	28.330	0.453
1277.999	704.483	79.999	20.009	100.252	20.026	29.226	0.498
1280.000	705.479	80.000	20.008	100.235	20.025	29.470	0.516
1282.000	706.472	79.999	20.008	100.268	20.028	28.494	0.514
1284.000	707.441	80.000	20.008	100.265	20.028	28.590	0.510
1286.000	708.466	80.000	20.009	100.260	20.028	28.656	0.510
1287.999	709.461	80.000	20.008	100.247	20.027	28.953	0.527
1289.999	710.426	79.999	20.008	100.272	20.024	29.854	0.513
1291.999	711.481	80.000	20.008	100.246	20.026	29.275	0.555
1293.999	712.465	80.000	20.008	100.257	20.025	29.394	0.491
1296.000	713.515	80.000	20.009	100.253	20.024	29.768	0.527
1297.999	714.513	79.999	20.009	100.264	20.024	29.790	0.496
1299.999	715.568	80.000	20.008	100.243	20.026	29.083	0.529
1301.999	716.604	79.999	20.008	100.259	20.024	29.870	0.523
1303.999	717.664	80.000	20.008	100.256	20.021	30.779	0.548
1305.999	718.645	80.001	20.008	100.284	20.025	29.407	0.491
1307.999	719.731	80.000	20.008	100.255	20.024	29.931	0.563
1310.000	720.729	79.999	20.008	100.270	20.021	30.683	0.492
1311.999	721.701	80.001	20.008	100.243	20.025	29.408	0.497
1313.999	722.752	79.999	20.008	100.263	20.023	29.970	0.533
1315.999	723.814	79.999	20.008	100.252	20.025	29.598	0.556
1317.999	724.862	79.999	20.008	100.266	20.023	29.985	0.507
1319.999	725.865	80.000	20.008	100.259	20.025	29.601	0.505
1321.999	726.983	80.001	20.008	100.273	20.024	29.714	0.571
1323.999	727.957	80.000	20.008	100.241	20.022	30.282	0.495
1326.000	728.974	79.999	20.008	100.257	20.022	30.315	0.457
1327.999	729.984	80.000	20.008	100.247	20.023	29.957	0.447
1329.999	731.062	80.000	20.008	100.262	20.023	30.031	0.527
1331.999	732.079	80.000	20.008	100.266	20.024	29.776	0.491
1333.999	733.143	80.000	20.009	100.254	20.025	29.630	0.499
1335.999	734.154	79.999	20.009	100.248	20.022	30.509	0.500
1338.000	735.273	80.000	20.008	100.239	20.023	30.254	0.543
1339.999	736.270	80.000	20.008	100.257	20.023	30.144	0.485
1341.999	737.379	80.000	20.008	100.245	20.024	29.782	0.530
1343.999	738.432	80.000	20.008	100.279	20.023	29.998	0.517
1345.999	739.455	80.000	20.008	100.260	20.022	30.560	0.518
1347.999	740.533	80.000	20.009	100.270	20.022	30.325	0.541
1349.999	741.559	80.000	20.008	100.253	20.023	30.171	0.513
1351.499	742.355	80.001	20.008	100.251	20.025	29.390	0.541