File: Experiments/TUBS/mcc/mcc_powder_3mg_dyn30_r1.txt
Sample Weight (mg):	3
Heating Rate (C/s):	0.5
Combustor Temp (C):	900
N2 Flow Rate (cc/min):	80
O2 Flow Rate (cc/min):	20
Time (s)	Temperature (C)	N2 flow rate (cc/min)	O2 flow rate (cc/min)	Flow Rate (cc/min)	Oxygen (%)	HRR (W/g)	Heating rate (C/s)
0.000	88.300	80.002	20.009	100.517	20.081	2.359	-0.022
2.000	88.204	80.002	20.010	100.506	20.076	2.952	-0.030
4.000	88.107	80.003	20.010	100.511	20.080	2.507	-0.026
6.000	88.072	80.003	20.010	100.497	20.083	2.167	-0.010
8.000	88.028	80.004	20.009	100.532	20.081	2.366	-0.023
10.000	87.994	80.004	20.009	100.503	20.085	2.017	-0.036
12.001	88.016	80.003	20.010	100.524	20.086	1.836	-0.008
14.000	88.033	80.003	20.010	100.510	20.083	2.168	0.020
16.000	87.966	80.003	20.010	100.550	20.083	2.178	0.014
18.000	87.969	80.003	20.009	100.501	20.085	1.966	0.029
20.000	88.065	80.002	20.010	100.542	20.084	2.101	0.023
22.000	88.116	80.003	20.009	100.504	20.083	2.157	0.040
24.000	88.157	80.003	20.010	100.533	20.073	3.283	-0.001
26.000	88.211	80.003	20.010	100.517	20.072	3.342	0.034
28.000	88.332	80.003	20.010	100.598	20.065	4.106	0.040
30.000	88.400	80.004	20.010	100.593	20.059	4.657	0.082
32.000	88.508	80.004	20.010	100.640	20.056	5.019	0.036
34.000	88.688	80.004	20.010	100.631	20.053	5.363	0.147
36.000	88.817	80.004	20.011	100.683	20.049	5.788	0.104
38.000	88.987	80.004	20.010	100.678	20.044	6.305	0.125
40.000	89.239	80.003	20.010	100.693	20.041	6.554	0.195
42.000	89.450	80.004	20.010	100.689	20.039	6.804	0.098
44.001	89.681	80.002	20.011	100.704	20.037	6.978	0.123
46.000	89.971	80.002	20.010	100.718	20.042	6.530	0.146
48.001	90.379	80.003	20.010	100.674	20.041	6.614	0.179
50.000	90.734	80.002	20.009	100.709	20.040	6.693	0.202
52.001	91.072	80.004	20.009	100.721	20.039	6.806	0.187
54.001	91.436	80.003	20.009	100.745	20.035	7.230	0.183
56.001	91.939	80.002	20.010	100.732	20.036	7.094	0.244
58.000	92.381	80.002	20.010	100.757	20.031	7.610	0.234
60.000	92.798	80.003	20.010	100.742	20.030	7.737	0.220
62.000	93.368	80.002	20.010	100.785	20.028	7.982	0.286
64.000	93.908	80.002	20.010	100.746	20.028	8.005	0.262
66.001	94.490	80.003	20.010	100.764	20.026	8.184	0.284
68.001	95.056	80.003	20.011	100.743	20.026	8.138	0.298
70.000	95.671	80.002	20.010	100.764	20.024	8.361	0.295
72.000	96.318	80.003	20.009	100.757	20.022	8.555	0.309
74.000	96.903	80.002	20.009	100.791	20.022	8.553	0.300
76.001	97.598	80.002	20.009	100.773	20.022	8.627	0.333
78.001	98.319	80.002	20.009	100.779	20.022	8.629	0.346
80.000	99.078	80.003	20.009	100.760	20.023	8.442	0.383
82.001	99.763	80.002	20.009	100.779	20.021	8.662	0.308
84.000	100.548	80.004	20.009	100.755	20.022	8.586	0.378
86.001	101.321	80.002	20.010	100.760	20.019	8.903	0.375
88.001	102.105	80.004	20.009	100.767	20.018	8.988	0.391
90.000	102.944	80.003	20.009	100.770	20.020	8.770	0.428
92.001	103.723	80.002	20.009	100.776	20.019	8.892	0.403
94.000	104.614	80.002	20.009	100.779	20.022	8.570	0.442
96.000	105.450	80.003	20.009	100.794	20.018	8.987	0.450
98.000	106.369	80.003	20.010	100.771	20.018	9.017	0.446
100.001	107.268	80.001	20.009	100.805	20.018	9.020	0.468
102.000	108.140	80.002	20.009	100.790	20.016	9.186	0.421
104.000	109.130	80.002	20.008	100.821	20.017	9.152	0.504
106.000	110.117	80.003	20.009	100.764	20.016	9.183	0.535
108.000	111.088	80.001	20.009	100.795	20.016	9.256	0.493
110.001	112.088	80.004	20.009	100.781	20.018	8.997	0.473
112.000	113.041	80.002	20.010	100.801	20.016	9.165	0.446
114.000	114.104	80.003	20.010	100.779	20.016	9.221	0.486
116.001	115.126	80.002	20.010	100.812	20.015	9.293	0.552
118.001	116.183	80.003	20.010	100.798	20.019	8.923	0.529
120.001	117.243	80.002	20.010	100.818	20.018	9.039	0.527
122.001	118.263	80.002	20.010	100.783	20.019	8.934	0.533
124.000	119.378	80.002	20.010	100.813	20.016	9.219	0.524
126.000	120.486	80.002	20.010	100.778	20.018	8.986	0.580
128.000	121.564	80.002	20.010	100.795	20.014	9.405	0.528
130.000	122.672	80.002	20.009	100.761	20.017	9.139	0.585
132.000	123.777	80.003	20.009	100.782	20.016	9.259	0.558
134.000	124.922	80.002	20.009	100.752	20.016	9.234	0.555
136.000	126.055	80.003	20.009	100.790	20.015	9.362	0.591
138.000	127.202	80.002	20.008	100.744	20.015	9.304	0.607
140.000	128.289	80.002	20.009	100.771	20.015	9.359	0.535
142.000	129.444	80.001	20.010	100.755	20.016	9.227	0.582
144.000	130.582	80.003	20.010	100.770	20.017	9.058	0.558
146.000	131.804	80.004	20.010	100.709	20.016	9.176	0.597
148.000	132.926	80.003	20.010	100.738	20.018	8.991	0.594
150.000	134.108	80.002	20.010	100.707	20.016	9.188	0.541
152.000	135.238	80.004	20.009	100.725	20.016	9.246	0.543
154.000	136.409	80.003	20.010	100.700	20.013	9.539	0.585
156.001	137.554	80.001	20.009	100.702	20.018	9.033	0.572
158.000	138.705	80.002	20.011	100.705	20.012	9.649	0.554
160.000	139.885	80.002	20.010	100.698	20.013	9.555	0.604
162.000	141.014	80.004	20.010	100.707	20.013	9.467	0.558
164.000	142.241	80.003	20.010	100.699	20.014	9.428	0.576
166.000	143.314	80.004	20.010	100.725	20.014	9.394	0.556
168.000	144.472	80.004	20.010	100.688	20.013	9.488	0.558
170.000	145.626	80.003	20.010	100.702	20.013	9.548	0.560
172.000	146.832	80.003	20.010	100.664	20.013	9.545	0.570
174.000	147.927	80.002	20.010	100.687	20.009	9.913	0.533
176.000	149.080	80.002	20.010	100.648	20.009	9.939	0.542
178.000	150.190	80.002	20.009	100.692	20.006	10.197	0.595
180.000	151.357	80.003	20.010	100.671	20.006	10.268	0.593
182.000	152.488	80.003	20.009	100.677	20.004	10.434	0.555
184.000	153.592	80.002	20.010	100.667	20.004	10.418	0.553
186.000	154.725	80.001	20.010	100.670	19.999	10.931	0.561
188.000	155.840	80.004	20.010	100.678	19.993	11.565	0.547
190.000	156.987	80.001	20.010	100.661	19.987	12.222	0.563
192.000	158.102	80.003	20.010	100.671	19.984	12.522	0.590
194.000	159.189	80.002	20.009	100.657	19.983	12.683	0.540
196.000	160.335	80.003	20.010	100.678	19.977	13.272	0.602
198.000	161.455	80.002	20.009	100.624	19.977	13.308	0.540
200.001	162.576	80.002	20.009	100.665	19.971	13.890	0.543
202.000	163.654	80.002	20.009	100.642	19.968	14.266	0.527
204.000	164.737	80.002	20.010	100.667	19.965	14.509	0.517
206.000	165.833	80.003	20.010	100.638	19.964	14.607	0.560
208.000	166.941	80.002	20.010	100.675	19.959	15.135	0.522
210.000	167.982	80.002	20.011	100.636	19.956	15.447	0.539
212.000	169.182	80.001	20.010	100.659	19.954	15.640	0.555
214.000	170.267	80.002	20.009	100.644	19.952	15.930	0.554
216.000	171.315	80.002	20.010	100.681	19.952	15.908	0.569
218.000	172.373	80.002	20.010	100.652	19.954	15.712	0.507
220.001	173.461	80.002	20.010	100.680	19.952	15.938	0.537
222.000	174.586	80.002	20.011	100.639	19.952	15.910	0.572
224.001	175.599	80.003	20.010	100.654	19.954	15.696	0.515
226.000	176.730	80.003	20.010	100.621	19.954	15.678	0.510
228.000	177.750	80.002	20.010	100.644	19.958	15.309	0.554
230.000	178.856	80.002	20.011	100.624	19.960	15.035	0.536
232.000	179.957	80.002	20.010	100.649	19.962	14.849	0.532
234.000	180.973	80.003	20.011	100.649	19.963	14.764	0.532
236.000	182.035	80.002	20.010	100.649	19.973	13.736	0.536
238.001	183.071	80.003	20.010	100.637	19.975	13.512	0.495
240.000	184.197	80.002	20.010	100.646	19.982	12.798	0.528
242.000	185.290	80.004	20.010	100.622	19.985	12.398	0.585
244.000	186.350	80.002	20.010	100.619	19.991	11.811	0.511
246.001	187.450	80.003	20.009	100.631	19.995	11.403	0.554
248.000	188.472	80.003	20.009	100.620	19.996	11.318	0.538
250.000	189.532	80.003	20.009	100.658	20.001	10.726	0.518
252.000	190.597	80.002	20.010	100.622	20.003	10.567	0.521
254.000	191.621	80.003	20.009	100.660	20.009	9.965	0.486
256.000	192.654	80.003	20.009	100.644	20.010	9.799	0.523
258.000	193.738	80.002	20.009	100.649	20.012	9.585	0.556
260.000	194.716	80.003	20.009	100.655	20.016	9.199	0.482
262.000	195.773	80.003	20.009	100.634	20.021	8.623	0.495
264.000	196.860	80.003	20.010	100.657	20.022	8.525	0.573
266.000	197.827	80.002	20.009	100.637	20.023	8.498	0.490
268.000	198.834	80.003	20.009	100.650	20.026	8.172	0.522
270.000	199.848	80.004	20.009	100.613	20.024	8.322	0.518
272.000	200.871	80.003	20.009	100.638	20.025	8.311	0.511
274.000	201.815	80.003	20.009	100.613	20.026	8.192	0.517
276.000	202.859	80.003	20.010	100.642	20.022	8.537	0.430
278.000	203.945	80.000	20.009	100.608	20.021	8.641	0.550
280.000	204.911	80.004	20.008	100.547	20.021	8.625	0.496
282.000	205.832	80.004	20.009	100.554	20.025	8.285	0.449
284.000	206.940	80.002	20.009	100.599	20.028	7.912	0.561
286.000	207.929	80.003	20.009	100.716	20.027	8.041	0.443
288.000	208.912	80.003	20.009	100.612	20.029	7.852	0.497
290.000	209.990	80.004	20.010	100.627	20.029	7.876	0.490
292.000	211.002	80.003	20.009	100.576	20.031	7.672	0.533
294.000	212.001	80.003	20.010	100.627	20.031	7.626	0.488
296.000	213.025	80.004	20.010	100.597	20.028	7.938	0.526
298.000	214.037	80.003	20.010	100.645	20.028	7.955	0.459
300.000	215.020	80.002	20.009	100.591	20.029	7.833	0.496
302.000	216.050	80.002	20.009	100.604	20.030	7.711	0.486
304.000	217.076	80.005	20.009	100.592	20.029	7.860	0.514
306.000	218.130	80.004	20.009	100.590	20.028	7.904	0.484
308.000	219.162	80.002	20.009	100.600	20.027	8.002	0.506
310.000	220.161	80.002	20.009	100.589	20.028	7.948	0.524
312.000	221.186	80.003	20.009	100.598	20.027	8.089	0.546
314.000	222.136	80.004	20.009	100.556	20.027	8.064	0.470
316.000	223.140	80.003	20.009	100.577	20.030	7.749	0.510
318.000	224.166	80.004	20.009	100.570	20.032	7.496	0.486
320.000	225.189	80.003	20.010	100.588	20.032	7.516	0.554
322.000	226.210	80.002	20.010	100.595	20.035	7.257	0.480
324.001	227.163	80.003	20.009	100.568	20.030	7.717	0.451
326.000	228.248	80.004	20.009	100.602	20.033	7.429	0.569
328.000	229.188	80.003	20.009	100.586	20.037	6.962	0.472
330.000	230.204	80.002	20.009	100.591	20.035	7.181	0.480
332.000	231.282	80.003	20.009	100.547	20.034	7.281	0.559
334.000	232.305	80.003	20.009	100.589	20.033	7.384	0.572
336.000	233.285	80.003	20.009	100.553	20.035	7.172	0.485
338.000	234.250	80.002	20.009	100.584	20.035	7.203	0.471
340.000	235.237	80.004	20.010	100.562	20.037	6.946	0.466
342.000	236.249	80.004	20.009	100.595	20.036	7.100	0.526
344.000	237.271	80.002	20.009	100.571	20.039	6.785	0.528
346.001	238.307	80.002	20.010	100.571	20.042	6.504	0.526
348.000	239.249	80.004	20.010	100.592	20.040	6.696	0.497
350.000	240.261	80.002	20.009	100.567	20.043	6.350	0.500
352.001	241.210	80.002	20.009	100.578	20.040	6.698	0.458
354.000	242.211	80.003	20.010	100.563	20.040	6.715	0.519
356.000	243.268	80.003	20.009	100.595	20.041	6.628	0.528
358.000	244.272	80.003	20.010	100.570	20.037	6.949	0.483
360.000	245.317	80.003	20.010	100.575	20.038	6.920	0.506
362.000	246.374	80.005	20.014	100.595	20.035	7.209	0.561
364.000	247.329	80.003	20.008	100.461	20.038	6.928	0.506
366.001	248.341	80.003	20.008	100.608	20.039	6.809	0.517
368.000	249.298	80.003	20.009	100.682	20.038	6.916	0.491
370.000	250.315	80.003	20.009	100.603	20.039	6.806	0.506
372.001	251.277	80.003	20.009	100.558	20.034	7.332	0.501
374.000	252.268	80.003	20.009	100.585	20.035	7.225	0.464
376.000	253.209	80.002	20.009	100.557	20.031	7.651	0.464
378.000	254.202	80.002	20.009	100.577	20.027	8.070	0.511
380.000	255.150	80.002	20.009	100.563	20.026	8.162	0.476
382.000	256.143	80.002	20.010	100.563	20.024	8.371	0.512
384.000	257.124	80.002	20.010	100.576	20.024	8.314	0.520
386.000	258.120	80.003	20.010	100.552	20.019	8.909	0.522
388.000	259.114	80.003	20.011	100.582	20.019	8.924	0.469
390.000	260.094	80.001	20.010	100.558	20.015	9.268	0.534
392.000	261.087	80.001	20.010	100.592	20.016	9.221	0.470
394.000	262.067	80.003	20.010	100.541	20.009	9.884	0.546
396.000	263.058	80.002	20.010	100.568	20.012	9.597	0.456
398.000	264.127	80.003	20.010	100.538	20.008	9.988	0.512
400.000	265.062	80.001	20.010	100.565	20.007	10.113	0.480
402.000	266.102	80.003	20.011	100.546	20.003	10.502	0.494
404.000	267.094	80.001	20.010	100.541	19.999	10.944	0.487
406.000	268.114	80.003	20.010	100.565	19.994	11.530	0.517
408.000	269.085	80.002	20.010	100.530	19.991	11.778	0.512
410.000	270.099	80.003	20.010	100.562	19.982	12.721	0.486
412.000	271.128	80.003	20.009	100.524	19.976	13.358	0.507
414.000	272.139	80.002	20.010	100.549	19.974	13.606	0.510
416.000	273.166	80.003	20.010	100.546	19.972	13.831	0.545
418.000	274.080	80.002	20.009	100.558	19.971	13.872	0.553
420.000	275.131	80.004	20.010	100.543	19.965	14.524	0.448
422.000	276.029	80.003	20.010	100.543	19.960	15.088	0.372
424.000	277.153	80.003	20.010	100.557	19.959	15.140	0.486
426.001	278.030	80.002	20.010	100.530	19.953	15.764	0.524
428.000	278.904	80.001	20.010	100.555	19.948	16.307	0.384
430.000	280.214	80.004	20.010	100.513	19.945	16.572	0.535
432.000	281.020	80.003	20.010	100.558	19.938	17.302	0.474
434.000	282.252	80.003	20.010	100.535	19.932	17.954	0.540
436.000	283.191	80.004	20.009	100.556	19.933	17.922	0.489
438.000	284.189	80.003	20.009	100.545	19.924	18.823	0.520
440.000	285.301	80.003	20.009	100.553	19.920	19.257	0.558
442.000	286.305	80.001	20.010	100.554	19.917	19.550	0.488
444.000	287.280	80.001	20.010	100.529	19.915	19.734	0.540
446.000	288.298	80.003	20.009	100.530	19.914	19.855	0.509
448.000	289.348	80.003	20.009	100.525	19.907	20.553	0.494
450.000	290.341	80.002	20.009	100.561	19.906	20.687	0.529
452.000	291.395	80.002	20.009	100.529	19.903	20.977	0.553
454.000	292.330	80.003	20.009	100.532	19.898	21.581	0.483
456.000	293.347	80.002	20.009	100.520	19.894	21.915	0.482
458.000	294.342	80.003	20.010	100.543	19.892	22.143	0.518
460.000	295.381	80.001	20.009	100.518	19.890	22.418	0.513
462.000	296.401	80.002	20.010	100.576	19.887	22.719	0.520
464.000	297.448	80.003	20.010	100.520	19.885	22.873	0.532
466.000	298.379	80.003	20.010	100.561	19.881	23.356	0.479
468.000	299.407	80.003	20.010	100.542	19.878	23.600	0.485
470.000	300.370	80.001	20.010	100.559	19.871	24.312	0.508
472.000	301.398	80.002	20.010	100.533	19.866	24.910	0.486
474.000	302.381	80.000	20.010	100.562	19.859	25.579	0.473
476.000	303.397	80.002	20.010	100.531	19.854	26.167	0.505
478.000	304.429	80.002	20.009	100.562	19.849	26.689	0.500
480.000	305.394	80.004	20.009	100.550	19.838	27.824	0.517
482.000	306.395	80.004	20.010	100.570	19.827	28.925	0.487
484.000	307.396	80.002	20.010	100.546	19.819	29.807	0.467
486.000	308.358	80.002	20.009	100.544	19.810	30.680	0.492
488.000	309.316	80.002	20.010	100.547	19.798	32.007	0.483
490.000	310.313	80.002	20.009	100.526	19.782	33.602	0.485
492.000	311.342	80.003	20.010	100.536	19.764	35.529	0.497
494.000	312.364	80.002	20.010	100.519	19.751	36.837	0.478
496.000	313.366	80.004	20.010	100.531	19.736	38.442	0.520
498.000	314.309	80.002	20.010	100.498	19.719	40.242	0.455
500.000	315.300	80.003	20.010	100.532	19.701	42.074	0.476
502.000	316.268	80.002	20.010	100.504	19.682	44.098	0.457
504.000	317.317	80.002	20.010	100.527	19.659	46.490	0.512
506.000	318.306	80.003	20.010	100.487	19.636	48.829	0.483
508.000	319.246	80.002	20.010	100.486	19.611	51.522	0.455
510.000	320.291	80.003	20.010	100.477	19.589	53.789	0.470
512.000	321.338	80.002	20.010	100.498	19.565	56.317	0.491
514.000	322.301	80.002	20.010	100.487	19.535	59.412	0.507
516.000	323.348	80.002	20.010	100.502	19.508	62.302	0.475
518.000	324.330	80.003	20.010	100.462	19.479	65.276	0.518
520.000	325.386	80.002	20.009	100.449	19.454	67.921	0.519
522.000	326.349	80.002	20.009	100.455	19.421	71.386	0.484
524.000	327.319	80.002	20.009	100.466	19.394	74.188	0.468
526.000	328.371	80.002	20.010	100.480	19.361	77.647	0.544
528.000	329.408	80.003	20.009	100.457	19.332	80.583	0.508
530.000	330.346	80.003	20.010	100.476	19.304	83.620	0.478
532.000	331.379	80.002	20.010	100.450	19.268	87.280	0.493
534.000	332.389	80.002	20.009	100.476	19.238	90.461	0.524
536.000	333.370	80.002	20.010	100.450	19.204	94.024	0.504
538.000	334.333	80.002	20.010	100.467	19.178	96.773	0.456
540.000	335.320	80.003	20.010	100.436	19.141	100.553	0.521
542.000	336.273	80.003	20.010	100.466	19.112	103.640	0.464
544.000	337.313	80.003	20.011	100.448	19.082	106.939	0.522
546.000	338.259	80.002	20.010	100.453	19.051	109.980	0.483
548.000	339.220	80.003	20.010	100.476	19.021	113.185	0.475
550.000	340.167	80.001	20.010	100.448	18.993	116.076	0.446
552.000	341.164	80.002	20.012	100.454	18.969	118.655	0.502
554.000	342.138	80.003	20.014	100.285	18.947	120.883	0.487
556.000	343.154	80.002	20.009	100.576	18.921	123.657	0.490
558.000	344.063	80.002	20.010	100.497	18.900	125.841	0.478
560.000	345.091	80.002	20.010	100.483	18.875	128.480	0.506
562.000	346.008	80.002	20.011	100.449	18.852	130.795	0.481
564.000	347.022	80.003	20.009	100.492	18.834	132.817	0.474
566.000	347.991	80.003	20.010	100.479	18.815	134.861	0.504
568.000	348.977	80.001	20.009	100.510	18.794	137.026	0.503
570.000	349.995	80.003	20.010	100.479	18.777	138.813	0.480
572.000	350.942	80.001	20.009	100.491	18.762	140.463	0.508
574.000	351.959	80.002	20.010	100.498	18.746	142.057	0.503
576.000	352.914	80.002	20.010	100.525	18.723	144.417	0.495
578.000	353.883	80.003	20.010	100.590	18.692	147.624	0.517
580.000	354.857	80.002	20.009	100.588	18.653	151.718	0.497
582.000	355.823	80.002	20.010	100.630	18.616	155.642	0.484
584.000	356.803	80.001	20.009	100.607	18.591	158.060	0.468
586.000	357.766	80.002	20.009	100.613	18.559	161.426	0.460
588.000	358.708	80.001	20.010	100.544	18.524	165.175	0.453
590.000	359.716	80.001	20.010	100.596	18.486	169.101	0.456
592.000	360.688	80.003	20.009	100.526	18.459	171.921	0.491
594.000	361.671	80.003	20.010	100.560	18.467	171.187	0.491
596.000	362.623	80.002	20.009	100.506	18.460	171.961	0.460
598.000	363.602	80.001	20.009	100.436	18.449	173.286	0.517
600.000	364.652	80.003	20.009	100.539	18.466	171.626	0.516
602.000	365.608	80.004	20.009	100.489	18.500	168.055	0.474
604.000	366.573	80.003	20.009	100.531	18.527	165.357	0.505
606.000	367.551	80.002	20.009	100.558	18.551	162.591	0.488
608.000	368.580	80.003	20.010	100.571	18.577	159.903	0.527
610.000	369.678	80.003	20.010	100.637	18.599	157.843	0.561
612.000	370.703	80.002	20.010	100.730	18.621	155.423	0.526
614.000	371.765	80.002	20.011	100.758	18.635	153.911	0.511
616.000	372.738	80.002	20.010	100.753	18.649	152.363	0.496
618.000	373.749	80.002	20.011	100.763	18.666	150.690	0.528
620.000	374.752	80.004	20.008	100.645	18.685	148.566	0.502
622.000	375.758	80.003	20.007	100.832	18.702	146.822	0.514
624.000	376.738	80.002	20.009	100.821	18.720	144.924	0.473
626.000	377.807	80.003	20.010	100.752	18.740	142.843	0.551
628.000	378.851	80.004	20.009	100.729	18.759	140.817	0.523
630.000	379.880	80.004	20.009	100.723	18.785	138.141	0.540
632.000	380.902	80.002	20.010	100.738	18.811	135.428	0.516
634.000	381.955	80.002	20.010	100.713	18.844	132.026	0.532
636.000	382.899	80.002	20.009	100.732	18.871	129.177	0.478
638.000	383.934	80.003	20.008	100.695	18.908	125.270	0.473
640.000	384.938	80.002	20.009	100.736	18.942	121.750	0.501
642.000	385.935	80.001	20.009	100.698	18.980	117.814	0.505
644.000	386.924	80.001	20.010	100.732	19.017	113.893	0.498
646.000	387.963	80.004	20.009	100.707	19.058	109.589	0.537
648.000	388.975	80.002	20.009	100.746	19.100	105.242	0.529
650.000	389.998	80.004	20.010	100.714	19.141	100.975	0.540
652.000	390.982	80.003	20.010	100.749	19.184	96.490	0.465
654.000	391.983	80.002	20.009	100.753	19.224	92.175	0.478
656.001	393.034	80.002	20.010	100.771	19.267	87.756	0.501
658.000	393.933	80.003	20.009	100.762	19.314	82.825	0.471
660.000	394.898	80.003	20.009	100.773	19.354	78.594	0.457
662.001	395.918	80.002	20.009	100.799	19.396	74.246	0.482
664.000	396.921	80.003	20.009	100.792	19.438	69.762	0.478
666.000	397.842	80.003	20.009	100.795	19.478	65.585	0.456
668.000	398.810	80.002	20.009	100.772	19.515	61.751	0.508
670.000	399.823	80.000	20.009	100.793	19.554	57.673	0.481
672.000	400.847	80.002	20.009	100.770	19.589	53.965	0.481
674.000	401.883	80.004	20.009	100.800	19.621	50.635	0.525
676.000	402.833	80.003	20.010	100.783	19.654	47.150	0.504
678.000	403.856	80.002	20.009	100.782	19.688	43.616	0.490
680.000	404.769	80.002	20.009	100.748	19.721	40.084	0.468
682.000	405.760	80.001	20.009	100.781	19.751	37.020	0.461
684.000	406.751	80.002	20.009	100.799	19.781	33.836	0.436
686.000	407.788	80.002	20.009	100.782	19.808	31.006	0.509
688.000	408.815	80.003	20.009	100.757	19.832	28.496	0.533
690.000	409.768	80.002	20.008	100.739	19.856	25.909	0.458
692.000	410.786	80.003	20.009	100.749	19.879	23.544	0.506
694.000	411.771	80.002	20.009	100.734	19.896	21.751	0.502
696.000	412.778	80.005	20.011	100.737	19.912	20.057	0.487
698.000	413.774	80.004	20.010	100.725	19.929	18.290	0.481
700.000	414.785	80.002	20.011	100.722	19.945	16.577	0.491
702.000	415.784	80.003	20.009	100.681	19.961	14.956	0.506
704.000	416.781	80.001	20.010	100.688	19.972	13.783	0.493
706.000	417.798	80.004	20.011	100.664	19.985	12.440	0.535
708.000	418.743	80.003	20.010	100.638	19.995	11.387	0.463
710.001	419.747	80.003	20.009	100.652	20.006	10.198	0.485
712.000	420.703	80.003	20.009	100.639	20.015	9.264	0.435
714.000	421.729	80.002	20.008	100.643	20.024	8.333	0.487
716.000	422.736	80.003	20.009	100.621	20.033	7.467	0.529
718.000	423.728	80.003	20.009	100.623	20.038	6.896	0.518
720.000	424.727	80.004	20.009	100.624	20.044	6.243	0.493
722.000	425.711	80.004	20.009	100.619	20.050	5.606	0.506
724.000	426.679	80.002	20.009	100.596	20.055	5.124	0.473
726.000	427.729	80.003	20.008	100.597	20.062	4.349	0.498
728.000	428.776	80.003	20.009	100.593	20.066	3.948	0.521
730.000	429.764	80.002	20.008	100.598	20.070	3.567	0.507
732.000	430.727	80.003	20.009	100.581	20.074	3.173	0.440
734.000	431.747	80.003	20.009	100.571	20.079	2.641	0.492
736.000	432.767	80.003	20.010	100.568	20.081	2.358	0.495
738.000	433.819	80.002	20.009	100.559	20.079	2.641	0.528
740.000	434.730	80.003	20.009	100.538	20.084	2.040	0.462
742.000	435.822	80.003	20.009	100.549	20.087	1.717	0.555
744.000	436.811	80.002	20.009	100.533	20.089	1.602	0.515
746.000	437.809	80.003	20.008	100.562	20.087	1.801	0.488
748.000	438.797	80.002	20.010	100.541	20.090	1.440	0.486
750.000	439.848	80.003	20.009	100.558	20.090	1.505	0.518
752.000	440.882	80.003	20.009	100.537	20.091	1.316	0.507
754.001	441.793	80.002	20.010	100.556	20.091	1.381	0.488
756.000	442.800	80.001	20.009	100.523	20.093	1.146	0.530
758.000	443.788	80.003	20.009	100.561	20.094	1.001	0.480
760.000	444.768	80.002	20.009	100.522	20.095	0.928	0.470
762.000	445.752	80.002	20.009	100.540	20.095	0.912	0.495
764.001	446.784	80.003	20.009	100.510	20.096	0.786	0.536
766.000	447.734	80.002	20.009	100.519	20.095	0.890	0.467
768.000	448.746	80.003	20.010	100.522	20.095	0.954	0.493
770.000	449.726	80.003	20.009	100.521	20.095	0.906	0.499
772.000	450.719	80.003	20.009	100.513	20.096	0.773	0.496
774.000	451.674	80.002	20.009	100.524	20.099	0.550	0.474
776.001	452.697	80.002	20.009	100.518	20.097	0.674	0.507
778.000	453.682	80.004	20.009	100.515	20.099	0.521	0.528
780.000	454.698	80.002	20.008	100.507	20.102	0.186	0.512
782.000	455.611	80.003	20.010	100.520	20.099	0.508	0.477
784.000	456.621	80.002	20.010	100.497	20.095	0.932	0.534
786.000	457.632	80.003	20.009	100.501	20.097	0.736	0.549
788.000	458.628	80.002	20.009	100.501	20.098	0.623	0.505
790.000	459.641	80.003	20.009	100.540	20.098	0.605	0.521
792.000	460.602	80.003	20.010	100.502	20.101	0.338	0.497
794.000	461.610	80.005	20.011	100.549	20.097	0.753	0.475
796.000	462.619	80.003	20.009	100.510	20.097	0.713	0.511
798.000	463.582	80.001	20.010	100.545	20.096	0.870	0.491
800.000	464.573	80.003	20.010	100.516	20.097	0.707	0.482
802.000	465.533	80.002	20.011	100.544	20.098	0.577	0.489
804.000	466.542	80.003	20.010	100.513	20.097	0.689	0.474
806.000	467.575	80.003	20.009	100.534	20.096	0.806	0.535
808.000	468.551	80.003	20.009	100.515	20.099	0.499	0.519
810.000	469.513	80.004	20.009	100.528	20.099	0.486	0.470
812.000	470.455	80.002	20.009	100.523	20.096	0.787	0.489
814.000	471.516	80.002	20.008	100.538	20.097	0.729	0.494
816.000	472.530	80.003	20.009	100.509	20.099	0.513	0.522
818.000	473.490	80.004	20.009	100.523	20.098	0.601	0.487
820.000	474.465	80.002	20.009	100.498	20.097	0.722	0.485
822.000	475.422	80.003	20.009	100.518	20.099	0.559	0.487
824.000	476.430	80.002	20.009	100.516	20.101	0.327	0.435
826.001	477.446	80.003	20.009	100.540	20.100	0.455	0.490
828.000	478.423	80.002	20.009	100.511	20.101	0.316	0.516
830.000	479.402	80.004	20.009	100.528	20.101	0.285	0.516
832.000	480.395	80.003	20.009	100.498	20.100	0.418	0.498
834.000	481.352	80.002	20.009	100.519	20.101	0.265	0.443
836.000	482.392	80.002	20.009	100.500	20.102	0.166	0.527
838.000	483.348	80.003	20.009	100.521	20.105	-0.091	0.477
840.000	484.418	80.003	20.009	100.498	20.104	-0.042	0.549
842.000	485.425	80.003	20.009	100.524	20.102	0.230	0.494
844.000	486.401	80.003	20.009	100.509	20.100	0.440	0.458
846.000	487.425	80.003	20.009	100.547	20.103	0.102	0.521
848.000	488.458	80.003	20.010	100.516	20.105	-0.064	0.519
850.000	489.420	80.003	20.010	100.522	20.104	-0.018	0.481
852.000	490.470	80.003	20.010	100.507	20.106	-0.261	0.529
854.000	491.454	80.003	20.010	100.536	20.103	0.108	0.505
856.000	492.455	80.003	20.009	100.518	20.105	-0.113	0.536
858.000	493.407	80.003	20.010	100.537	20.103	0.106	0.510
860.000	494.312	80.002	20.010	100.532	20.104	0.002	0.482
862.000	495.353	80.003	20.011	100.536	20.104	0.018	0.509
864.000	496.331	80.002	20.010	100.524	20.103	0.121	0.491
866.000	497.330	80.002	20.010	100.525	20.102	0.247	0.484
868.000	498.307	80.001	20.010	100.494	20.100	0.382	0.483
870.000	499.260	80.002	20.010	100.514	20.104	0.035	0.484
872.000	500.247	80.004	20.010	100.524	20.106	-0.228	0.507
874.000	501.198	80.003	20.010	100.529	20.104	0.011	0.488
876.000	502.189	80.002	20.010	100.526	20.103	0.115	0.486
878.000	503.110	80.003	20.010	100.488	20.104	0.040	0.469
880.001	504.056	80.002	20.010	100.543	20.103	0.046	0.500
882.000	505.008	80.001	20.010	100.532	20.102	0.230	0.492
884.000	505.919	80.002	20.010	100.525	20.102	0.214	0.454
886.000	506.810	80.002	20.010	100.512	20.105	-0.161	0.462
888.000	507.812	80.002	20.009	100.520	20.104	-0.053	0.501
890.000	508.718	80.002	20.010	100.530	20.105	-0.073	0.471
892.000	509.687	80.002	20.010	100.511	20.103	0.093	0.457
894.000	510.622	80.002	20.010	100.525	20.103	0.088	0.427
896.000	511.558	80.004	20.010	100.518	20.100	0.440	0.465
898.000	512.487	80.003	20.010	100.522	20.100	0.384	0.468
900.000	513.426	80.003	20.010	100.508	20.100	0.384	0.459
902.000	514.382	80.004	20.010	100.519	20.103	0.046	0.447
904.000	515.320	80.002	20.009	100.518	20.103	0.084	0.488
906.000	516.320	80.003	20.010	100.509	20.105	-0.144	0.488
908.000	517.309	80.003	20.009	100.536	20.103	0.139	0.509
910.000	518.245	80.002	20.009	100.530	20.104	0.007	0.464
912.000	519.225	80.003	20.008	100.521	20.103	0.115	0.517
914.000	520.192	80.003	20.009	100.504	20.100	0.378	0.505
916.000	521.176	80.003	20.009	100.529	20.103	0.115	0.502
918.001	522.192	80.003	20.010	100.509	20.102	0.205	0.480
920.000	523.175	80.003	20.010	100.526	20.104	0.020	0.473
922.000	524.131	80.004	20.009	100.507	20.103	0.088	0.454
924.000	525.081	80.003	20.009	100.533	20.104	-0.013	0.477
926.000	526.061	80.002	20.009	100.513	20.102	0.170	0.501
928.000	527.023	80.002	20.009	100.526	20.103	0.097	0.454
930.000	528.001	80.001	20.010	100.518	20.103	0.071	0.451
932.000	529.048	80.003	20.010	100.544	20.103	0.068	0.522
934.001	530.054	80.002	20.009	100.507	20.102	0.228	0.497
936.001	531.047	80.002	20.009	100.525	20.104	-0.004	0.502
938.000	532.083	80.002	20.009	100.509	20.102	0.161	0.495
940.000	533.078	80.002	20.009	100.510	20.105	-0.122	0.486
942.000	534.122	80.003	20.008	100.513	20.107	-0.276	0.546
944.000	535.108	80.003	20.009	100.511	20.106	-0.247	0.492
946.000	536.158	80.003	20.009	100.519	20.104	-0.033	0.503
948.000	537.160	80.003	20.009	100.512	20.104	-0.013	0.502
950.000	538.146	80.003	20.009	100.529	20.103	0.122	0.467
952.000	539.231	80.003	20.009	100.512	20.102	0.192	0.537
954.001	540.182	80.003	20.009	100.539	20.104	0.007	0.479
956.000	541.295	80.004	20.009	100.508	20.104	-0.057	0.557
958.000	542.306	80.003	20.009	100.536	20.103	0.110	0.529
960.000	543.321	80.004	20.009	100.519	20.104	0.007	0.530
962.000	544.330	80.003	20.009	100.540	20.102	0.148	0.486
964.000	545.336	80.002	20.009	100.535	20.106	-0.214	0.509
966.000	546.370	80.003	20.009	100.507	20.104	0.033	0.516
968.000	547.404	80.003	20.009	100.530	20.105	-0.146	0.511
970.000	548.374	80.004	20.009	100.530	20.106	-0.272	0.489
972.000	549.372	80.003	20.009	100.550	20.105	-0.071	0.509
974.000	550.343	80.003	20.009	100.516	20.106	-0.243	0.486
976.001	551.363	80.004	20.010	100.537	20.105	-0.095	0.515
978.000	552.316	80.003	20.009	100.521	20.105	-0.108	0.477
980.000	553.308	80.003	20.009	100.529	20.102	0.216	0.477
982.000	554.328	80.002	20.009	100.531	20.105	-0.141	0.495
984.000	555.360	80.003	20.009	100.536	20.103	0.055	0.535
986.000	556.370	80.003	20.009	100.530	20.106	-0.208	0.528
988.000	557.318	80.001	20.009	100.531	20.105	-0.124	0.479
990.000	558.387	80.003	20.009	100.535	20.101	0.281	0.531
992.000	559.350	80.003	20.009	100.513	20.103	0.091	0.477
994.000	560.351	80.003	20.009	100.524	20.102	0.236	0.481
996.000	561.355	80.003	20.009	100.518	20.099	0.515	0.525
998.000	562.354	80.003	20.009	100.557	20.104	0.004	0.502
1000.000	563.356	80.001	20.009	100.546	20.104	-0.004	0.520
1002.000	564.395	80.003	20.009	100.514	20.101	0.314	0.491
1004.000	565.356	80.002	20.008	100.544	20.104	0.020	0.464
1006.000	566.393	80.003	20.010	100.524	20.107	-0.331	0.524
1008.000	567.367	80.003	20.009	100.528	20.103	0.097	0.515
1010.000	568.311	80.002	20.009	100.516	20.105	-0.093	0.491
1012.000	569.328	80.003	20.009	100.528	20.105	-0.086	0.499
1014.000	570.373	80.002	20.008	100.523	20.103	0.133	0.528
1016.000	571.391	80.003	20.009	100.516	20.103	0.073	0.492
1018.000	572.380	80.002	20.009	100.526	20.103	0.137	0.521
1020.000	573.374	80.002	20.009	100.516	20.101	0.349	0.457
1022.000	574.364	80.003	20.009	100.538	20.097	0.689	0.476
1024.001	575.352	80.003	20.009	100.524	20.096	0.795	0.470
1026.001	576.368	80.003	20.009	100.545	20.097	0.762	0.538
1028.001	577.372	80.003	20.009	100.518	20.099	0.495	0.527
1030.000	578.333	80.003	20.009	100.546	20.098	0.592	0.468
1032.000	579.384	80.003	20.009	100.542	20.100	0.409	0.529
1034.000	580.393	80.004	20.009	100.537	20.098	0.574	0.517
1036.000	581.373	80.002	20.009	100.543	20.097	0.727	0.518
1038.001	582.311	80.002	20.009	100.526	20.099	0.504	0.464
1040.000	583.302	80.002	20.009	100.532	20.096	0.868	0.491
1042.000	584.332	80.002	20.009	100.513	20.098	0.590	0.510
1044.000	585.336	80.001	20.008	100.533	20.099	0.510	0.482
1046.000	586.310	80.003	20.008	100.530	20.099	0.533	0.504
1048.000	587.297	80.002	20.009	100.520	20.098	0.665	0.500
1050.001	588.321	80.004	20.009	100.533	20.098	0.619	0.503
1052.001	589.274	80.001	20.009	100.519	20.099	0.543	0.506
1054.000	590.219	80.002	20.009	100.535	20.099	0.519	0.498
1056.000	591.161	80.001	20.009	100.529	20.098	0.634	0.460
1058.000	592.161	80.002	20.009	100.550	20.098	0.630	0.475
1060.001	593.135	80.002	20.009	100.555	20.099	0.537	0.487
1062.001	594.138	80.002	20.008	100.533	20.098	0.632	0.484
1064.000	595.092	80.002	20.009	100.522	20.099	0.495	0.478
1066.000	596.113	80.003	20.008	100.513	20.100	0.433	0.507
1068.000	597.110	80.001	20.009	100.542	20.097	0.718	0.508
1070.000	598.111	80.002	20.009	100.548	20.097	0.700	0.522
1072.001	599.111	80.003	20.010	100.518	20.097	0.747	0.515
1074.001	600.131	80.003	20.010	100.530	20.099	0.526	0.492
1076.001	601.126	80.002	20.010	100.534	20.101	0.347	0.521
1078.000	602.078	80.004	20.010	100.548	20.102	0.241	0.462
1080.001	603.069	80.003	20.009	100.539	20.100	0.444	0.488
1082.000	604.062	80.003	20.010	100.543	20.101	0.351	0.492
1084.001	605.038	80.002	20.009	100.549	20.101	0.307	0.499
1086.000	606.042	80.002	20.010	100.538	20.100	0.378	0.510
1088.001	607.042	80.003	20.009	100.558	20.098	0.574	0.517
1090.000	608.059	80.002	20.009	100.542	20.097	0.694	0.517
1092.001	609.043	80.003	20.010	100.550	20.098	0.625	0.477
1094.000	610.046	80.001	20.010	100.528	20.097	0.720	0.519
1096.000	611.009	80.001	20.010	100.540	20.099	0.517	0.493
1098.001	611.977	80.002	20.010	100.555	20.098	0.566	0.501
1100.000	612.967	80.002	20.010	100.541	20.096	0.811	0.488
1102.000	613.901	80.002	20.009	100.553	20.097	0.683	0.472
1104.001	614.901	80.004	20.010	100.534	20.092	1.198	0.507
1106.001	615.904	80.003	20.009	100.541	20.094	1.065	0.490
1108.001	616.900	80.003	20.009	100.530	20.095	0.937	0.507
1110.001	617.866	80.002	20.009	100.558	20.095	0.979	0.498
1112.001	618.864	80.003	20.009	100.544	20.099	0.530	0.517
1114.001	619.906	80.004	20.009	100.537	20.099	0.493	0.483
1116.001	620.842	80.002	20.008	100.544	20.100	0.367	0.485
1118.001	621.791	80.003	20.009	100.536	20.100	0.457	0.482
1120.001	622.766	80.001	20.009	100.555	20.099	0.482	0.470
1122.000	623.737	80.003	20.009	100.529	20.099	0.513	0.502
1124.001	624.786	80.002	20.009	100.533	20.098	0.583	0.471
1126.000	625.845	80.003	20.009	100.513	20.100	0.422	0.518
1128.001	626.878	80.002	20.010	100.538	20.099	0.466	0.535
1130.000	627.894	80.003	20.009	100.530	20.098	0.590	0.507
1132.000	628.919	80.003	20.009	100.554	20.098	0.628	0.489
1134.000	629.914	80.002	20.009	100.528	20.099	0.541	0.484
1136.000	630.903	80.003	20.010	100.552	20.100	0.416	0.489
1138.001	631.915	80.002	20.010	100.545	20.096	0.802	0.494
1140.000	632.884	80.002	20.010	100.542	20.099	0.460	0.500
1142.001	633.953	80.002	20.009	100.550	20.099	0.504	0.566
1144.001	634.936	80.002	20.009	100.542	20.100	0.433	0.473
1146.000	635.930	80.003	20.009	100.554	20.096	0.780	0.485
1148.000	636.929	80.003	20.010	100.563	20.095	0.963	0.514
1150.000	638.005	80.002	20.009	100.564	20.094	0.988	0.520
1152.000	639.073	80.003	20.009	100.532	20.092	1.295	0.543
1154.001	640.042	80.002	20.009	100.533	20.093	1.140	0.506
1156.001	641.133	80.002	20.009	100.536	20.094	1.060	0.520
1158.000	642.143	80.002	20.009	100.537	20.092	1.295	0.516
1160.001	643.149	80.002	20.009	100.548	20.090	1.445	0.539
1162.000	644.159	80.003	20.009	100.525	20.092	1.231	0.501
1164.000	645.156	80.002	20.009	100.548	20.094	1.030	0.495
1166.001	646.127	80.003	20.010	100.534	20.092	1.220	0.519
1168.001	647.162	80.002	20.009	100.532	20.092	1.253	0.516
1170.001	648.241	80.001	20.009	100.520	20.096	0.831	0.532
1172.001	649.247	80.002	20.009	100.540	20.094	1.001	0.514
1174.001	650.168	80.002	20.008	100.540	20.096	0.868	0.511
1176.000	651.134	80.002	20.009	100.543	20.095	0.977	0.446
1178.001	652.118	80.002	20.009	100.555	20.094	1.038	0.474
1180.000	653.221	80.002	20.009	100.546	20.096	0.826	0.530
1182.000	654.177	80.000	20.010	100.559	20.095	0.895	0.496
1184.001	655.198	80.003	20.011	100.549	20.093	1.091	0.517
1186.000	656.251	80.002	20.010	100.557	20.094	1.034	0.534
1188.001	657.223	80.002	20.010	100.536	20.095	0.884	0.484
1190.001	658.269	80.002	20.010	100.544	20.094	1.040	0.524
1192.001	659.273	80.002	20.009	100.504	20.092	1.195	0.534
1194.000	660.272	80.002	20.009	100.539	20.091	1.374	0.448
1196.001	661.331	80.003	20.009	100.509	20.089	1.609	0.540
1198.000	662.336	80.001	20.009	100.553	20.092	1.288	0.497
1200.001	663.307	80.003	20.009	100.542	20.092	1.268	0.514
1202.001	664.286	80.003	20.009	100.540	20.094	1.049	0.498
1204.001	665.291	80.002	20.009	100.517	20.093	1.087	0.503
1206.000	666.310	80.003	20.009	100.537	20.096	0.815	0.530
1208.001	667.300	80.002	20.009	100.532	20.096	0.804	0.501
1210.000	668.304	80.002	20.009	100.544	20.093	1.160	0.510
1212.000	669.278	80.003	20.009	100.546	20.095	0.964	0.486
1214.001	670.307	80.003	20.009	100.538	20.096	0.815	0.490
1216.001	671.292	80.002	20.009	100.557	20.095	0.901	0.502
1218.000	672.329	80.002	20.009	100.550	20.097	0.723	0.479
1220.001	673.324	80.003	20.009	100.560	20.096	0.806	0.508
1222.000	674.351	80.001	20.009	100.541	20.097	0.771	0.506
1224.000	675.389	80.002	20.008	100.573	20.097	0.680	0.497
1226.000	676.378	80.003	20.009	100.542	20.095	0.964	0.504
1228.000	677.394	80.003	20.009	100.555	20.093	1.140	0.517
1230.000	678.435	80.003	20.009	100.530	20.092	1.240	0.539
1232.000	679.418	80.001	20.009	100.555	20.093	1.160	0.497
1234.000	680.458	80.003	20.009	100.539	20.096	0.864	0.530
1236.000	681.462	80.003	20.010	100.538	20.093	1.131	0.501
1238.000	682.446	80.002	20.009	100.530	20.093	1.107	0.485
1240.001	683.475	80.002	20.009	100.554	20.094	1.030	0.491
1242.001	684.470	80.002	20.008	100.551	20.094	1.028	0.508
1244.000	685.475	80.004	20.009	100.557	20.096	0.857	0.491
1246.001	686.475	80.003	20.008	100.542	20.093	1.096	0.482
1248.000	687.501	80.003	20.009	100.554	20.094	1.065	0.486
1250.000	688.549	80.003	20.008	100.555	20.092	1.207	0.497
1252.001	689.501	80.004	20.009	100.536	20.090	1.463	0.473
1254.000	690.469	80.002	20.009	100.560	20.090	1.403	0.465
1256.000	691.424	80.003	20.009	100.548	20.092	1.251	0.471
1258.000	692.396	80.003	20.008	100.560	20.093	1.189	0.487
1260.000	693.366	80.003	20.009	100.542	20.091	1.348	0.459
1262.000	694.345	80.002	20.008	100.551	20.093	1.184	0.462
1264.001	695.341	80.002	20.009	100.542	20.090	1.423	0.511
1266.001	696.294	80.004	20.009	100.564	20.089	1.564	0.481
1268.000	697.293	80.000	20.009	100.534	20.089	1.529	0.477
1270.000	698.248	80.001	20.009	100.546	20.088	1.624	0.474
1272.000	699.248	80.002	20.008	100.528	20.090	1.437	0.518
1274.000	700.256	80.002	20.009	100.552	20.091	1.341	0.476
1276.001	701.228	80.003	20.008	100.534	20.090	1.485	0.494
1278.000	702.144	80.002	20.009	100.554	20.089	1.606	0.433
1280.000	703.139	80.001	20.009	100.549	20.091	1.375	0.479
1282.000	704.100	80.003	20.009	100.560	20.086	1.860	0.499
1284.000	705.051	80.003	20.008	100.552	20.086	1.843	0.481
1286.001	706.014	80.003	20.009	100.551	20.084	2.106	0.482
1288.000	707.054	80.003	20.008	100.560	20.086	1.820	0.488
1290.000	708.040	80.004	20.009	100.542	20.089	1.514	0.496
1292.001	708.998	80.003	20.008	100.557	20.084	2.077	0.515
1294.000	709.974	80.002	20.008	100.540	20.087	1.788	0.486
1296.000	710.952	80.004	20.009	100.544	20.086	1.922	0.443
1298.000	711.920	80.002	20.009	100.527	20.087	1.788	0.507
1300.001	712.890	80.002	20.008	100.537	20.087	1.743	0.476
1302.000	713.898	80.002	20.009	100.518	20.087	1.744	0.497
1304.000	714.941	80.003	20.009	100.558	20.085	1.993	0.497
1306.001	715.994	80.004	20.008	100.535	20.084	2.058	0.502
1308.000	716.984	80.002	20.009	100.543	20.085	2.024	0.496
1310.000	717.994	80.004	20.008	100.536	20.084	2.080	0.509
1312.001	719.035	80.004	20.009	100.552	20.084	2.129	0.538
1314.001	720.107	80.004	20.009	100.540	20.082	2.300	0.536
1316.001	721.048	80.003	20.009	100.559	20.080	2.470	0.461
1318.001	722.055	80.003	20.009	100.548	20.082	2.271	0.475
1320.001	723.078	80.002	20.009	100.564	20.085	1.982	0.525
1322.000	724.131	80.004	20.008	100.546	20.084	2.113	0.498
1324.001	725.130	80.003	20.009	100.541	20.084	2.062	0.503
1326.000	726.194	80.003	20.008	100.517	20.083	2.223	0.519
1328.000	727.259	80.003	20.009	100.529	20.085	1.951	0.553
1330.000	728.306	80.003	20.008	100.524	20.082	2.241	0.557
1332.000	729.338	80.004	20.009	100.534	20.080	2.453	0.503
1334.001	730.416	80.002	20.009	100.539	20.084	2.051	0.532
1336.000	731.496	80.003	20.009	100.555	20.081	2.444	0.549
1338.000	732.546	80.002	20.009	100.551	20.083	2.152	0.530
1340.000	733.607	80.003	20.009	100.545	20.081	2.397	0.547
1342.001	734.639	80.004	20.008	100.537	20.083	2.150	0.526
1344.000	735.687	80.003	20.009	100.541	20.084	2.079	0.505
1346.001	736.734	80.003	20.008	100.559	20.084	2.044	0.514
1348.000	737.775	80.003	20.009	100.546	20.082	2.243	0.537
1350.000	738.805	80.002	20.008	100.564	20.085	2.002	0.536
1352.001	739.820	80.002	20.009	100.533	20.083	2.187	0.505
1354.000	740.849	80.003	20.009	100.544	20.084	2.088	0.528
1356.001	741.892	80.003	20.009	100.539	20.083	2.220	0.519
1358.001	742.914	80.002	20.008	100.565	20.085	2.013	0.529
1359.500	743.714	80.003	20.009	100.548	20.082	2.267	0.530