File: Experiments/TUBS/mcc/mcc_piece_3mg_dyn30_r3.txt
Sample Weight (mg):	3.01
Heating Rate (C/s):	0.5
Combustor Temp (C):	900
N2 Flow Rate (cc/min):	80
O2 Flow Rate (cc/min):	20
Time (s)	Temperature (C)	N2 flow rate (cc/min)	O2 flow rate (cc/min)	Flow Rate (cc/min)	Oxygen (%)	HRR (W/g)	Heating rate (C/s)
0.000	89.684	80.002	20.008	100.006	20.180	2.366	-0.101
2.000	89.505	80.002	20.007	100.171	20.162	4.202	-0.112
4.000	89.304	80.000	20.008	100.371	20.149	5.579	-0.100
6.000	89.143	80.001	20.008	100.431	20.138	6.707	-0.117
8.000	89.030	80.001	20.008	100.481	20.130	7.519	-0.029
10.000	88.843	80.000	20.008	100.474	20.126	7.998	-0.059
12.000	88.728	80.000	20.008	100.497	20.124	8.164	-0.078
14.000	88.648	80.000	20.008	100.473	20.127	7.915	-0.050
16.000	88.584	79.999	20.008	100.490	20.123	8.311	-0.020
18.000	88.445	80.002	20.008	100.486	20.122	8.415	-0.041
20.000	88.446	79.999	20.008	100.551	20.119	8.663	0.002
22.001	88.404	80.001	20.008	100.555	20.123	8.342	-0.007
24.000	88.399	80.000	20.008	100.548	20.117	8.940	-0.012
26.000	88.409	80.001	20.008	100.519	20.116	9.064	0.012
28.000	88.429	80.001	20.008	100.563	20.111	9.553	0.024
30.001	88.487	80.002	20.008	100.567	20.107	9.971	0.060
32.000	88.537	80.001	20.008	100.611	20.101	10.619	0.015
34.000	88.627	80.001	20.008	100.598	20.100	10.664	0.073
36.000	88.739	80.000	20.008	100.655	20.098	10.912	0.042
38.000	88.931	80.002	20.008	100.627	20.095	11.183	0.138
40.000	89.040	80.001	20.008	100.664	20.099	10.804	0.108
42.000	89.316	79.999	20.009	100.655	20.101	10.587	0.108
44.000	89.548	80.001	20.008	100.663	20.104	10.325	0.148
46.000	89.829	80.001	20.008	100.642	20.103	10.390	0.132
48.000	90.064	80.002	20.008	100.648	20.103	10.365	0.125
50.000	90.405	80.001	20.008	100.662	20.104	10.299	0.178
52.000	90.792	80.001	20.008	100.664	20.103	10.394	0.210
54.000	91.082	80.000	20.008	100.633	20.100	10.682	0.179
56.001	91.506	80.001	20.008	100.620	20.101	10.634	0.198
58.001	91.862	80.001	20.008	100.641	20.094	11.347	0.200
60.000	92.295	80.000	20.008	100.618	20.098	10.935	0.212
62.000	92.659	80.002	20.008	100.652	20.093	11.480	0.192
64.000	93.116	80.000	20.008	100.646	20.093	11.403	0.203
66.000	93.595	80.000	20.008	100.698	20.088	11.962	0.260
68.000	94.075	80.002	20.008	100.666	20.090	11.697	0.234
70.000	94.564	80.001	20.008	100.702	20.091	11.694	0.242
72.001	95.095	80.001	20.008	100.680	20.091	11.671	0.268
74.000	95.648	80.002	20.008	100.719	20.089	11.842	0.253
76.000	96.268	80.001	20.008	100.678	20.087	12.060	0.282
78.000	96.808	80.002	20.008	100.685	20.087	12.049	0.291
80.000	97.497	80.000	20.008	100.668	20.086	12.174	0.319
82.001	98.095	80.002	20.008	100.686	20.084	12.380	0.334
84.000	98.791	80.001	20.008	100.685	20.085	12.263	0.337
86.000	99.492	80.003	20.008	100.702	20.083	12.438	0.359
88.000	100.154	80.001	20.008	100.708	20.086	12.211	0.331
90.000	100.941	80.001	20.008	100.705	20.085	12.308	0.368
92.000	101.656	80.001	20.008	100.699	20.083	12.433	0.394
94.000	102.413	80.001	20.008	100.699	20.084	12.423	0.398
96.001	103.232	80.001	20.008	100.703	20.086	12.148	0.399
98.000	104.069	80.001	20.008	100.699	20.083	12.473	0.414
100.000	104.927	80.001	20.008	100.687	20.085	12.290	0.422
102.001	105.790	80.000	20.008	100.702	20.082	12.601	0.409
104.000	106.671	80.001	20.008	100.699	20.083	12.482	0.459
106.000	107.498	80.002	20.008	100.682	20.083	12.481	0.441
108.000	108.376	80.001	20.008	100.700	20.085	12.271	0.445
110.000	109.310	80.000	20.008	100.704	20.087	12.085	0.444
112.000	110.261	80.002	20.008	100.713	20.086	12.181	0.463
114.000	111.175	80.001	20.008	100.697	20.084	12.351	0.487
116.000	112.148	80.002	20.008	100.718	20.084	12.363	0.468
118.001	113.096	80.001	20.008	100.703	20.085	12.323	0.467
120.000	114.127	80.001	20.008	100.707	20.082	12.547	0.466
122.001	115.124	80.001	20.008	100.688	20.084	12.348	0.489
124.000	116.121	80.001	20.008	100.702	20.087	12.102	0.506
126.000	117.170	80.001	20.008	100.697	20.087	12.021	0.501
128.000	118.205	80.002	20.008	100.712	20.088	12.005	0.529
130.000	119.258	80.000	20.008	100.705	20.090	11.712	0.512
132.000	120.298	80.001	20.008	100.710	20.090	11.765	0.514
134.000	121.377	80.000	20.008	100.697	20.092	11.494	0.530
136.000	122.464	80.001	20.008	100.705	20.093	11.455	0.597
138.000	123.538	80.002	20.008	100.708	20.093	11.447	0.541
140.000	124.631	80.002	20.008	100.710	20.095	11.226	0.560
142.000	125.732	80.000	20.008	100.694	20.095	11.231	0.561
144.000	126.906	80.002	20.008	100.677	20.094	11.351	0.613
146.000	128.002	80.001	20.008	100.667	20.093	11.482	0.551
148.000	129.126	80.000	20.008	100.677	20.095	11.237	0.603
150.000	130.224	80.002	20.008	100.669	20.097	11.039	0.539
152.000	131.394	80.000	20.008	100.665	20.098	10.933	0.567
154.000	132.480	80.001	20.008	100.662	20.098	10.939	0.515
156.000	133.693	80.000	20.008	100.669	20.097	10.964	0.613
158.000	134.850	80.000	20.008	100.642	20.098	10.863	0.583
160.000	135.966	80.001	20.008	100.649	20.102	10.507	0.554
162.000	137.102	80.002	20.008	100.634	20.099	10.774	0.581
164.000	138.250	80.000	20.007	100.660	20.101	10.567	0.582
166.000	139.373	80.000	20.008	100.656	20.099	10.840	0.534
168.000	140.537	80.001	20.008	100.687	20.101	10.626	0.563
170.000	141.668	80.001	20.008	100.659	20.105	10.171	0.560
172.000	142.755	80.001	20.008	100.669	20.105	10.186	0.553
174.000	143.979	80.000	20.008	100.625	20.108	9.846	0.617
176.000	145.106	80.000	20.008	100.648	20.106	10.090	0.552
178.000	146.264	80.001	20.008	100.620	20.105	10.162	0.546
180.000	147.384	80.000	20.007	100.638	20.107	9.968	0.548
182.000	148.541	80.002	20.008	100.615	20.104	10.234	0.589
184.000	149.668	80.001	20.008	100.639	20.104	10.304	0.531
186.000	150.897	80.002	20.008	100.621	20.107	10.012	0.615
188.000	151.993	80.002	20.007	100.625	20.107	9.948	0.567
190.000	153.126	80.001	20.008	100.619	20.109	9.740	0.590
192.000	154.247	80.002	20.008	100.623	20.113	9.292	0.576
194.000	155.392	80.001	20.008	100.591	20.115	9.108	0.545
196.000	156.559	80.000	20.008	100.602	20.112	9.483	0.570
198.000	157.622	80.001	20.008	100.591	20.111	9.517	0.552
200.000	158.753	80.001	20.008	100.615	20.113	9.328	0.561
202.000	159.878	80.000	20.008	100.594	20.114	9.262	0.571
204.000	161.008	80.001	20.008	100.592	20.111	9.584	0.552
206.000	162.103	80.001	20.008	100.593	20.112	9.450	0.527
208.000	163.268	80.000	20.008	100.593	20.113	9.306	0.588
210.000	164.381	80.001	20.008	100.608	20.111	9.565	0.554
212.000	165.438	80.001	20.008	100.605	20.111	9.584	0.545
214.001	166.558	80.001	20.008	100.583	20.108	9.817	0.554
216.000	167.615	80.000	20.008	100.572	20.109	9.801	0.565
218.000	168.754	80.000	20.008	100.583	20.112	9.454	0.568
220.000	169.742	80.002	20.008	100.619	20.110	9.660	0.513
222.000	170.854	80.002	20.008	100.613	20.112	9.432	0.547
224.000	171.880	80.002	20.008	100.609	20.109	9.723	0.560
226.000	172.967	80.001	20.008	100.587	20.111	9.559	0.528
228.000	174.013	80.000	20.008	100.596	20.106	10.016	0.511
230.000	175.002	80.001	20.008	100.578	20.107	9.910	0.482
232.000	176.105	79.999	20.008	100.575	20.105	10.181	0.527
234.000	177.145	80.001	20.008	100.562	20.103	10.326	0.532
236.000	178.188	80.002	20.008	100.583	20.102	10.431	0.520
238.000	179.226	80.000	20.008	100.562	20.104	10.289	0.543
240.000	180.331	80.000	20.008	100.580	20.103	10.397	0.498
242.000	181.336	80.002	20.008	100.577	20.100	10.705	0.517
244.000	182.348	80.003	20.007	100.569	20.100	10.695	0.495
246.000	183.392	80.002	20.008	100.549	20.100	10.651	0.550
248.000	184.410	80.001	20.008	100.547	20.098	10.920	0.513
250.000	185.447	80.001	20.008	100.545	20.100	10.638	0.552
252.000	186.475	80.001	20.008	100.557	20.097	11.024	0.498
254.000	187.486	80.002	20.008	100.549	20.099	10.831	0.496
256.000	188.511	80.000	20.008	100.553	20.098	10.938	0.518
258.000	189.509	80.002	20.008	100.559	20.099	10.742	0.506
260.000	190.539	80.001	20.008	100.554	20.096	11.080	0.493
262.000	191.542	80.001	20.008	100.539	20.099	10.837	0.518
264.000	192.519	80.002	20.007	100.536	20.100	10.664	0.475
266.000	193.557	80.000	20.008	100.530	20.101	10.574	0.488
268.000	194.568	79.999	20.008	100.551	20.097	10.992	0.529
270.000	195.589	80.000	20.008	100.525	20.098	10.871	0.503
272.000	196.622	80.001	20.008	100.539	20.099	10.793	0.529
274.000	197.619	80.002	20.008	100.520	20.100	10.642	0.497
276.000	198.644	80.002	20.008	100.556	20.102	10.517	0.532
278.000	199.676	80.000	20.007	100.540	20.100	10.667	0.524
280.000	200.695	80.000	20.008	100.570	20.102	10.524	0.525
282.000	201.690	80.000	20.008	100.551	20.103	10.396	0.504
284.000	202.690	80.000	20.008	100.549	20.103	10.404	0.490
286.000	203.668	80.001	20.008	100.533	20.102	10.471	0.519
288.000	204.697	80.001	20.008	100.547	20.099	10.759	0.491
290.000	205.752	80.002	20.008	100.528	20.101	10.616	0.486
292.000	206.784	80.002	20.008	100.542	20.103	10.382	0.513
294.000	207.768	80.002	20.008	100.543	20.098	10.942	0.477
296.000	208.790	80.002	20.008	100.560	20.099	10.793	0.506
298.000	209.807	80.002	20.008	100.538	20.102	10.470	0.505
300.000	210.849	80.001	20.008	100.567	20.101	10.535	0.542
302.000	211.801	80.002	20.008	100.546	20.103	10.376	0.497
304.000	212.833	80.002	20.008	100.553	20.103	10.404	0.511
306.000	213.785	80.001	20.008	100.521	20.104	10.301	0.457
308.000	214.857	80.003	20.008	100.539	20.104	10.250	0.530
310.000	215.896	80.001	20.008	100.520	20.102	10.495	0.498
312.000	216.858	80.001	20.007	100.527	20.102	10.529	0.486
314.000	217.907	80.001	20.007	100.503	20.104	10.269	0.483
316.000	218.972	80.001	20.008	100.516	20.101	10.587	0.519
318.000	220.011	80.001	20.007	100.511	20.102	10.448	0.497
320.000	220.988	80.001	20.008	100.538	20.105	10.158	0.498
322.000	222.042	80.002	20.008	100.532	20.106	10.055	0.531
324.000	223.051	80.001	20.008	100.554	20.104	10.224	0.559
326.000	224.053	80.003	20.008	100.546	20.105	10.156	0.509
328.000	225.057	80.001	20.008	100.562	20.110	9.637	0.500
330.000	226.026	80.002	20.007	100.552	20.112	9.408	0.482
332.000	227.059	80.002	20.008	100.563	20.109	9.720	0.481
334.000	228.109	80.000	20.007	100.551	20.110	9.653	0.534
336.000	229.066	80.002	20.008	100.550	20.109	9.789	0.502
338.000	230.087	80.002	20.008	100.548	20.105	10.199	0.497
340.000	231.066	80.001	20.008	100.540	20.102	10.454	0.473
342.000	232.125	80.001	20.008	100.518	20.098	10.863	0.510
344.000	233.122	80.001	20.007	100.534	20.097	10.958	0.522
346.000	234.152	80.002	20.007	100.522	20.103	10.338	0.553
348.000	235.118	80.002	20.007	100.545	20.103	10.406	0.519
350.000	236.123	80.001	20.007	100.517	20.103	10.348	0.513
352.000	237.132	80.001	20.008	100.531	20.102	10.513	0.494
354.000	238.145	80.002	20.008	100.518	20.103	10.337	0.476
356.000	239.174	80.002	20.007	100.541	20.104	10.310	0.499
358.000	240.131	80.001	20.008	100.512	20.100	10.643	0.480
360.000	241.126	80.001	20.007	100.534	20.103	10.422	0.496
362.000	242.251	80.000	20.008	100.514	20.100	10.654	0.566
364.000	243.287	80.002	20.007	100.534	20.103	10.389	0.547
366.000	244.314	80.000	20.007	100.520	20.102	10.506	0.527
368.000	245.345	80.000	20.007	100.532	20.102	10.510	0.491
370.000	246.401	80.000	20.007	100.542	20.104	10.315	0.529
372.000	247.452	80.001	20.008	100.521	20.103	10.387	0.482
374.000	248.420	80.001	20.008	100.527	20.100	10.725	0.516
376.000	249.418	80.000	20.008	100.513	20.101	10.580	0.549
378.000	250.443	80.001	20.007	100.537	20.096	11.080	0.511
380.000	251.475	80.001	20.008	100.489	20.087	12.007	0.532
382.000	252.497	80.001	20.007	100.525	20.078	12.944	0.484
384.000	253.536	80.002	20.008	100.520	20.079	12.876	0.547
386.000	254.560	80.001	20.008	100.522	20.078	13.021	0.488
388.000	255.533	80.000	20.008	100.499	20.083	12.465	0.512
390.000	256.538	80.001	20.008	100.478	20.081	12.667	0.493
392.000	257.589	80.000	20.007	100.490	20.078	12.959	0.500
394.000	258.598	80.001	20.008	100.497	20.082	12.525	0.520
396.000	259.590	80.001	20.007	100.529	20.081	12.624	0.503
398.000	260.590	80.002	20.008	100.486	20.086	12.191	0.486
400.000	261.625	80.001	20.007	100.540	20.089	11.797	0.560
402.000	262.616	80.000	20.007	100.519	20.091	11.639	0.517
404.000	263.676	80.001	20.007	100.514	20.092	11.546	0.547
406.000	264.668	80.002	20.007	100.532	20.089	11.877	0.491
408.000	265.644	80.000	20.007	100.532	20.090	11.730	0.491
410.000	266.683	80.001	20.007	100.526	20.086	12.189	0.484
412.000	267.700	80.002	20.008	100.516	20.084	12.381	0.502
414.000	268.765	80.000	20.008	100.554	20.083	12.476	0.516
416.000	269.761	80.001	20.008	100.512	20.079	12.829	0.528
418.000	270.804	80.001	20.008	100.505	20.076	13.196	0.510
420.000	271.836	80.000	20.008	100.481	20.075	13.329	0.511
422.000	272.822	80.001	20.008	100.518	20.075	13.275	0.500
424.000	273.779	80.000	20.008	100.505	20.072	13.556	0.503
426.000	274.795	80.001	20.008	100.504	20.068	14.021	0.474
428.001	275.746	80.001	20.008	100.515	20.068	14.060	0.460
430.000	276.788	80.002	20.008	100.511	20.064	14.423	0.465
432.000	277.786	80.000	20.008	100.519	20.057	15.197	0.447
434.000	278.769	80.001	20.008	100.496	20.057	15.213	0.487
436.000	279.805	80.002	20.008	100.509	20.055	15.335	0.473
438.000	280.784	80.001	20.008	100.476	20.052	15.720	0.511
440.000	281.776	80.001	20.008	100.513	20.052	15.697	0.506
442.000	282.741	80.002	20.008	100.514	20.048	16.065	0.479
444.000	283.669	80.000	20.008	100.556	20.047	16.254	0.490
446.000	284.670	80.001	20.008	100.524	20.040	16.950	0.461
448.000	285.618	80.001	20.008	100.507	20.035	17.471	0.447
450.000	286.558	80.001	20.008	100.501	20.032	17.732	0.494
452.000	287.579	80.002	20.008	100.507	20.028	18.199	0.477
454.000	288.557	80.000	20.008	100.512	20.029	18.078	0.515
456.000	289.522	80.000	20.008	100.506	20.027	18.334	0.487
458.000	290.523	80.001	20.008	100.523	20.022	18.852	0.505
460.000	291.485	80.002	20.008	100.508	20.021	18.927	0.479
462.000	292.503	80.001	20.008	100.516	20.020	19.071	0.498
464.000	293.491	80.002	20.008	100.481	20.021	18.888	0.479
466.000	294.504	80.000	20.008	100.530	20.020	19.040	0.513
468.000	295.433	80.000	20.008	100.502	20.016	19.472	0.479
470.000	296.491	80.001	20.008	100.510	20.011	19.976	0.522
472.000	297.438	80.000	20.008	100.491	20.008	20.287	0.482
474.000	298.472	80.000	20.008	100.519	20.010	20.097	0.481
476.000	299.474	80.000	20.008	100.500	20.006	20.520	0.499
478.000	300.488	80.000	20.008	100.516	20.007	20.407	0.504
480.000	301.520	80.000	20.008	100.501	20.000	21.084	0.519
482.000	302.561	80.000	20.008	100.519	19.999	21.187	0.501
484.000	303.486	80.000	20.008	100.511	19.999	21.251	0.455
486.000	304.518	80.001	20.008	100.510	19.996	21.488	0.502
488.000	305.463	80.000	20.008	100.499	19.989	22.281	0.475
490.000	306.521	80.000	20.008	100.479	19.985	22.674	0.524
492.000	307.488	80.002	20.008	100.490	19.980	23.226	0.523
494.000	308.497	80.001	20.008	100.499	19.973	23.941	0.508
496.000	309.503	80.000	20.008	100.493	19.966	24.644	0.525
498.000	310.488	80.001	20.008	100.475	19.961	25.207	0.473
500.000	311.498	80.001	20.008	100.506	19.952	26.139	0.498
502.000	312.510	80.001	20.008	100.491	19.947	26.560	0.496
504.000	313.505	80.001	20.008	100.524	19.936	27.777	0.501
506.000	314.498	80.000	20.008	100.495	19.924	29.011	0.497
508.000	315.488	79.999	20.008	100.523	19.912	30.313	0.506
510.000	316.525	80.003	20.008	100.504	19.900	31.541	0.514
512.000	317.515	80.002	20.008	100.512	19.887	32.846	0.524
514.000	318.587	80.000	20.008	100.463	19.876	33.980	0.549
516.000	319.597	80.002	20.008	100.481	19.856	36.136	0.476
518.000	320.605	80.001	20.009	100.483	19.844	37.410	0.514
520.000	321.578	80.001	20.008	100.517	19.826	39.281	0.471
522.000	322.549	80.001	20.008	100.516	19.808	41.060	0.489
524.000	323.541	80.001	20.008	100.523	19.786	43.393	0.469
526.000	324.607	80.001	20.008	100.514	19.766	45.467	0.516
528.000	325.563	80.001	20.008	100.523	19.742	48.001	0.508
530.000	326.583	80.002	20.008	100.546	19.718	50.504	0.479
532.000	327.556	79.999	20.008	100.534	19.690	53.350	0.496
534.000	328.550	80.000	20.008	100.527	19.664	56.088	0.511
536.000	329.580	80.001	20.008	100.501	19.634	59.275	0.499
538.001	330.612	80.001	20.008	100.516	19.605	62.276	0.552
540.000	331.618	80.001	20.008	100.513	19.572	65.668	0.506
542.000	332.607	80.000	20.008	100.545	19.539	69.193	0.507
544.000	333.559	80.001	20.008	100.506	19.502	73.002	0.524
546.000	334.557	79.999	20.008	100.530	19.466	76.774	0.473
548.000	335.600	80.001	20.008	100.496	19.431	80.420	0.493
550.000	336.524	80.001	20.007	100.518	19.391	84.530	0.495
552.000	337.569	80.001	20.008	100.495	19.350	88.875	0.562
554.000	338.548	80.001	20.007	100.503	19.309	93.096	0.484
556.000	339.584	80.001	20.008	100.522	19.265	97.671	0.530
558.000	340.497	80.001	20.008	100.508	19.224	101.958	0.461
560.000	341.472	80.001	20.007	100.538	19.169	107.695	0.445
562.000	342.437	80.000	20.007	100.517	19.109	113.918	0.447
564.000	343.483	80.001	20.008	100.561	19.043	120.825	0.504
566.000	344.433	80.001	20.008	100.560	18.985	126.900	0.475
568.000	345.436	80.000	20.008	100.555	18.931	132.564	0.510
570.000	346.434	80.000	20.008	100.500	18.884	137.443	0.513
572.000	347.360	80.000	20.007	100.508	18.846	141.458	0.469
574.000	348.393	80.002	20.008	100.462	18.813	144.914	0.514
576.000	349.306	80.000	20.007	100.480	18.779	148.491	0.445
578.000	350.371	80.001	20.008	100.486	18.739	152.545	0.484
580.000	351.373	80.001	20.008	100.554	18.699	156.766	0.474
582.000	352.376	80.000	20.008	100.561	18.658	161.100	0.501
584.000	353.353	80.001	20.007	100.595	18.614	165.745	0.513
586.000	354.300	80.002	20.008	100.608	18.576	169.660	0.452
588.000	355.301	80.001	20.008	100.641	18.544	172.913	0.525
590.000	356.338	80.001	20.008	100.586	18.513	176.281	0.608
592.000	357.269	80.001	20.008	100.601	18.477	179.998	0.529
594.000	358.267	80.001	20.008	100.577	18.441	183.782	0.535
596.000	359.276	80.002	20.008	100.639	18.404	187.552	0.488
598.000	360.256	80.001	20.007	100.631	18.362	191.834	0.509
600.000	361.257	80.001	20.007	100.626	18.326	195.657	0.539
602.000	362.261	80.002	20.008	100.602	18.277	200.774	0.499
604.000	363.231	80.000	20.008	100.649	18.240	204.661	0.473
606.000	364.193	80.001	20.008	100.651	18.223	206.327	0.458
608.000	365.188	80.001	20.007	100.604	18.213	207.337	0.524
610.000	366.229	80.002	20.008	100.571	18.197	209.249	0.502
612.000	367.228	80.002	20.008	100.572	18.189	210.094	0.487
614.000	368.179	79.999	20.007	100.586	18.189	210.269	0.486
616.000	369.319	80.001	20.008	100.591	18.220	207.011	0.551
618.000	370.271	80.002	20.007	100.594	18.247	204.045	0.502
620.000	371.305	80.001	20.008	100.530	18.260	202.615	0.480
622.000	372.331	80.001	20.008	100.618	18.272	201.257	0.506
624.000	373.356	80.001	20.008	100.664	18.282	200.240	0.504
626.000	374.340	80.002	20.008	100.703	18.293	199.121	0.499
628.000	375.373	80.002	20.007	100.747	18.313	197.086	0.539
630.000	376.382	80.000	20.008	100.702	18.345	193.741	0.489
632.001	377.407	80.001	20.010	100.621	18.382	189.999	0.507
634.000	378.432	80.001	20.008	100.616	18.437	184.199	0.515
636.000	379.444	80.002	20.010	100.572	18.497	178.041	0.503
638.000	380.530	80.001	20.007	100.593	18.569	170.469	0.517
640.000	381.503	80.000	20.009	100.592	18.639	163.273	0.484
642.000	382.593	80.002	20.008	100.610	18.708	155.968	0.523
644.000	383.564	80.001	20.008	100.633	18.765	149.921	0.496
646.000	384.654	80.003	20.008	100.665	18.819	144.270	0.519
648.000	385.676	80.001	20.007	100.697	18.873	138.660	0.499
650.000	386.802	80.001	20.007	100.708	18.923	133.487	0.628
652.000	387.791	80.002	20.008	100.707	18.978	127.792	0.507
654.001	388.826	80.002	20.007	100.715	19.027	122.600	0.501
656.000	389.835	80.000	20.008	100.658	19.076	117.469	0.468
658.000	390.880	80.001	20.008	100.631	19.127	112.119	0.516
660.000	391.916	80.000	20.008	100.623	19.177	107.035	0.523
662.000	392.881	80.003	20.008	100.640	19.227	101.797	0.495
664.000	393.911	80.001	20.008	100.628	19.278	96.409	0.496
666.000	394.849	80.000	20.008	100.647	19.331	90.856	0.480
668.000	395.881	80.000	20.008	100.621	19.385	85.227	0.487
670.000	396.950	80.001	20.008	100.623	19.442	79.296	0.542
672.000	397.945	80.002	20.008	100.603	19.493	73.941	0.506
674.000	398.935	80.002	20.007	100.652	19.542	68.831	0.530
676.000	399.937	80.000	20.008	100.591	19.596	63.257	0.490
678.000	400.895	80.001	20.007	100.613	19.640	58.648	0.496
680.000	401.899	80.000	20.008	100.587	19.680	54.459	0.487
682.000	402.899	80.002	20.008	100.605	19.721	50.194	0.488
684.000	403.887	80.001	20.008	100.577	19.759	46.250	0.459
686.000	404.853	80.000	20.007	100.590	19.794	42.552	0.485
688.000	405.799	80.001	20.008	100.564	19.823	39.532	0.498
690.000	406.780	80.000	20.007	100.596	19.856	36.144	0.487
692.000	407.783	80.002	20.008	100.574	19.883	33.285	0.491
694.000	408.776	80.000	20.008	100.591	19.906	30.905	0.501
696.000	409.733	80.002	20.008	100.573	19.932	28.234	0.514
698.000	410.749	80.002	20.008	100.576	19.954	25.867	0.499
700.000	411.708	80.001	20.008	100.574	19.975	23.713	0.474
702.000	412.736	80.001	20.008	100.570	19.991	22.003	0.540
704.000	413.688	80.000	20.008	100.547	20.016	19.477	0.487
706.000	414.634	80.003	20.008	100.550	20.034	17.584	0.525
708.000	415.590	80.000	20.008	100.563	20.045	16.369	0.458
710.001	416.552	80.001	20.008	100.598	20.056	15.303	0.464
712.000	417.571	80.000	20.008	100.544	20.064	14.449	0.499
714.000	418.564	80.002	20.008	100.521	20.072	13.596	0.504
716.000	419.508	80.003	20.008	100.510	20.077	13.058	0.494
718.000	420.435	80.002	20.008	100.506	20.085	12.235	0.425
720.000	421.471	80.000	20.008	100.500	20.087	11.989	0.522
722.000	422.420	80.001	20.008	100.503	20.095	11.215	0.516
724.000	423.414	80.001	20.008	100.517	20.105	10.140	0.527
726.000	424.369	80.001	20.008	100.492	20.111	9.574	0.488
728.000	425.309	80.001	20.008	100.494	20.111	9.560	0.487
730.000	426.267	80.000	20.008	100.467	20.119	8.695	0.498
732.000	427.197	80.002	20.007	100.498	20.122	8.435	0.496
734.000	428.228	80.001	20.008	100.465	20.127	7.836	0.502
736.000	429.186	80.000	20.007	100.489	20.134	7.179	0.507
738.000	430.140	80.002	20.008	100.470	20.134	7.122	0.470
740.000	431.159	80.002	20.008	100.475	20.137	6.841	0.512
742.000	432.135	80.001	20.008	100.450	20.140	6.518	0.503
744.000	433.074	80.002	20.008	100.467	20.148	5.684	0.482
746.000	434.095	80.001	20.008	100.484	20.149	5.535	0.490
748.000	435.080	80.001	20.008	100.473	20.153	5.208	0.480
750.000	436.074	80.001	20.008	100.468	20.154	5.068	0.490
752.000	437.100	80.001	20.008	100.467	20.158	4.618	0.486
754.000	438.021	80.001	20.008	100.477	20.163	4.118	0.456
756.000	439.045	80.002	20.008	100.486	20.165	3.878	0.491
758.001	439.987	80.002	20.008	100.489	20.167	3.713	0.469
760.000	441.069	80.002	20.008	100.484	20.171	3.249	0.521
762.000	442.035	80.001	20.008	100.472	20.171	3.274	0.487
764.000	443.008	80.000	20.008	100.487	20.170	3.350	0.483
766.000	443.947	80.002	20.008	100.475	20.174	2.955	0.477
768.000	444.937	80.000	20.008	100.482	20.174	2.951	0.494
770.000	445.968	80.001	20.008	100.472	20.177	2.695	0.510
772.000	447.005	80.001	20.008	100.486	20.175	2.859	0.515
774.000	447.976	80.002	20.008	100.459	20.174	2.938	0.501
776.000	449.031	80.003	20.008	100.476	20.176	2.802	0.536
778.001	450.040	80.002	20.008	100.460	20.175	2.828	0.501
780.000	451.039	80.001	20.008	100.464	20.176	2.758	0.491
782.000	452.117	80.002	20.007	100.445	20.176	2.771	0.518
784.000	453.131	80.000	20.008	100.472	20.178	2.598	0.516
786.000	454.142	80.001	20.008	100.455	20.180	2.303	0.497
788.000	455.105	80.001	20.008	100.482	20.180	2.381	0.478
790.000	456.145	80.003	20.008	100.466	20.186	1.770	0.530
792.000	457.106	80.001	20.008	100.506	20.186	1.683	0.465
794.000	458.115	80.002	20.008	100.477	20.189	1.362	0.531
796.000	459.124	80.000	20.008	100.517	20.189	1.380	0.500
798.000	460.046	80.002	20.008	100.498	20.189	1.406	0.446
800.000	461.039	80.001	20.008	100.500	20.189	1.380	0.471
802.000	462.008	80.002	20.008	100.474	20.188	1.523	0.516
804.000	462.959	80.001	20.008	100.486	20.189	1.430	0.498
806.000	463.924	80.001	20.008	100.452	20.187	1.670	0.461
808.000	464.847	80.000	20.007	100.456	20.186	1.752	0.462
810.000	465.801	80.001	20.008	100.460	20.185	1.801	0.494
812.001	466.717	80.001	20.008	100.480	20.185	1.866	0.461
814.000	467.700	80.002	20.008	100.461	20.181	2.223	0.502
816.000	468.673	80.002	20.008	100.467	20.181	2.247	0.491
818.000	469.636	80.002	20.008	100.464	20.184	1.970	0.493
820.000	470.647	80.000	20.008	100.455	20.187	1.589	0.518
822.000	471.605	80.001	20.008	100.505	20.190	1.272	0.515
824.000	472.566	80.002	20.008	100.501	20.187	1.582	0.458
826.000	473.558	80.001	20.008	100.473	20.188	1.512	0.487
828.000	474.488	80.001	20.008	100.468	20.186	1.699	0.480
830.000	475.455	80.001	20.008	100.466	20.188	1.472	0.487
832.001	476.426	80.002	20.008	100.458	20.183	2.013	0.464
834.000	477.405	80.003	20.008	100.453	20.188	1.551	0.507
836.000	478.442	80.002	20.008	100.437	20.187	1.615	0.502
838.000	479.417	80.000	20.008	100.464	20.184	1.892	0.496
840.000	480.390	80.002	20.008	100.460	20.184	1.910	0.477
842.000	481.383	80.002	20.008	100.464	20.184	1.921	0.495
844.000	482.374	80.001	20.008	100.470	20.184	1.971	0.479
846.000	483.429	80.000	20.008	100.463	20.182	2.179	0.542
848.000	484.443	80.003	20.008	100.453	20.184	1.974	0.515
850.000	485.433	79.999	20.008	100.463	20.185	1.877	0.509
852.000	486.461	80.002	20.008	100.456	20.184	1.921	0.533
854.000	487.455	80.001	20.008	100.462	20.182	2.152	0.514
856.000	488.454	80.002	20.008	100.448	20.180	2.337	0.524
858.000	489.521	80.001	20.008	100.469	20.181	2.268	0.511
860.000	490.548	80.002	20.008	100.445	20.184	1.899	0.494
862.000	491.598	80.002	20.008	100.464	20.187	1.644	0.542
864.000	492.571	80.000	20.008	100.437	20.184	1.908	0.484
866.000	493.630	80.000	20.008	100.467	20.183	2.078	0.530
868.000	494.613	80.001	20.008	100.441	20.183	2.065	0.491
870.000	495.596	80.002	20.008	100.465	20.182	2.117	0.474
872.000	496.581	80.002	20.008	100.438	20.181	2.232	0.476
874.000	497.625	80.000	20.008	100.468	20.181	2.264	0.525
876.000	498.657	80.002	20.008	100.436	20.185	1.820	0.516
878.000	499.665	80.001	20.008	100.496	20.187	1.571	0.502
880.000	500.661	80.002	20.008	100.476	20.190	1.296	0.497
882.000	501.603	80.002	20.008	100.505	20.192	1.109	0.461
884.000	502.524	80.002	20.008	100.476	20.191	1.204	0.486
886.000	503.466	80.001	20.008	100.482	20.186	1.699	0.463
888.000	504.385	80.002	20.008	100.430	20.185	1.794	0.445
890.000	505.415	80.003	20.008	100.467	20.187	1.644	0.477
892.000	506.330	80.002	20.008	100.464	20.187	1.624	0.474
894.000	507.323	80.002	20.008	100.487	20.185	1.822	0.520
896.000	508.288	80.002	20.008	100.465	20.189	1.384	0.508
898.000	509.296	80.002	20.008	100.486	20.189	1.450	0.487
900.000	510.254	80.002	20.008	100.474	20.191	1.241	0.499
902.000	511.226	80.001	20.008	100.482	20.188	1.527	0.497
904.000	512.185	80.001	20.008	100.471	20.186	1.721	0.492
906.000	513.120	80.002	20.008	100.460	20.186	1.708	0.467
908.000	514.143	80.002	20.008	100.461	20.183	2.088	0.508
910.000	515.095	80.001	20.008	100.468	20.187	1.589	0.463
912.000	516.127	80.000	20.008	100.459	20.186	1.672	0.512
914.000	517.108	80.001	20.008	100.457	20.189	1.404	0.497
916.000	518.119	80.002	20.008	100.479	20.188	1.466	0.489
918.000	519.104	80.001	20.008	100.492	20.192	1.114	0.506
920.000	520.063	80.002	20.008	100.496	20.193	0.944	0.507
922.000	521.078	80.001	20.008	100.451	20.189	1.450	0.551
924.000	522.078	80.001	20.008	100.478	20.184	1.881	0.497
926.000	523.092	80.002	20.008	100.446	20.187	1.604	0.535
928.000	523.999	80.002	20.008	100.478	20.188	1.543	0.471
930.000	525.020	80.001	20.008	100.460	20.189	1.457	0.496
932.000	525.975	80.001	20.008	100.488	20.190	1.294	0.488
934.000	526.967	80.000	20.008	100.471	20.187	1.598	0.514
936.000	527.964	80.001	20.008	100.485	20.191	1.186	0.485
938.000	528.982	80.002	20.008	100.453	20.192	1.124	0.463
940.000	529.889	80.001	20.008	100.496	20.190	1.280	0.440
942.000	530.876	80.001	20.008	100.476	20.190	1.296	0.485
944.000	531.923	80.002	20.008	100.486	20.188	1.560	0.474
946.000	532.885	80.001	20.008	100.467	20.190	1.327	0.487
948.000	533.887	80.000	20.008	100.474	20.190	1.329	0.502
950.000	534.873	80.002	20.008	100.442	20.187	1.646	0.491
952.000	535.833	80.002	20.008	100.424	20.184	1.884	0.508
954.000	536.807	80.003	20.008	100.418	20.183	1.985	0.513
956.000	537.769	80.002	20.008	100.445	20.187	1.650	0.489
958.000	538.675	80.001	20.008	100.449	20.189	1.428	0.501
960.000	539.683	80.000	20.008	100.488	20.187	1.608	0.487
962.000	540.642	80.001	20.008	100.466	20.187	1.589	0.531
964.000	541.624	80.001	20.007	100.468	20.187	1.615	0.514
966.000	542.622	80.002	20.008	100.474	20.184	1.937	0.512
968.000	543.551	80.002	20.008	100.475	20.185	1.789	0.473
970.000	544.584	80.003	20.007	100.467	20.185	1.802	0.485
972.000	545.582	80.003	20.008	100.437	20.185	1.864	0.486
974.000	546.551	80.002	20.007	100.448	20.186	1.726	0.501
976.000	547.539	80.001	20.008	100.461	20.187	1.662	0.481
978.000	548.495	80.002	20.008	100.484	20.187	1.625	0.486
980.000	549.433	80.002	20.008	100.461	20.184	1.900	0.487
982.000	550.415	80.001	20.007	100.486	20.186	1.706	0.453
984.000	551.395	80.002	20.008	100.468	20.190	1.327	0.508
986.000	552.385	80.002	20.007	100.519	20.193	0.979	0.472
988.000	553.325	80.001	20.008	100.507	20.197	0.605	0.456
990.001	554.329	80.002	20.008	100.530	20.199	0.385	0.508
992.000	555.272	80.003	20.008	100.512	20.195	0.823	0.514
994.000	556.250	80.003	20.008	100.520	20.192	1.061	0.478
996.000	557.216	80.001	20.008	100.460	20.190	1.265	0.454
998.000	558.192	80.002	20.007	100.474	20.185	1.798	0.487
1000.000	559.202	80.003	20.008	100.461	20.185	1.816	0.516
1002.001	560.252	80.001	20.007	100.484	20.184	1.930	0.519
1004.000	561.252	80.001	20.008	100.464	20.184	1.981	0.483
1006.000	562.307	80.002	20.008	100.483	20.186	1.682	0.530
1008.000	563.333	80.001	20.008	100.462	20.184	1.933	0.527
1010.000	564.376	80.001	20.008	100.498	20.187	1.631	0.496
1012.000	565.417	80.001	20.008	100.469	20.186	1.735	0.543
1014.000	566.408	80.002	20.008	100.490	20.183	2.045	0.508
1016.000	567.443	80.001	20.008	100.472	20.188	1.514	0.522
1018.000	568.483	80.002	20.008	100.494	20.190	1.341	0.523
1020.000	569.438	80.001	20.008	100.474	20.187	1.643	0.480
1022.000	570.444	80.002	20.007	100.505	20.191	1.211	0.519
1024.000	571.454	80.002	20.008	100.486	20.191	1.197	0.514
1026.000	572.447	80.003	20.008	100.512	20.193	0.959	0.509
1028.000	573.482	80.002	20.008	100.482	20.193	0.982	0.549
1030.000	574.426	80.001	20.008	100.521	20.197	0.557	0.476
1032.000	575.453	80.002	20.007	100.511	20.198	0.495	0.519
1034.000	576.445	80.002	20.008	100.522	20.197	0.590	0.487
1036.000	577.401	80.002	20.008	100.482	20.194	0.848	0.476
1038.000	578.432	80.001	20.008	100.479	20.195	0.735	0.517
1040.001	579.413	80.002	20.008	100.478	20.190	1.281	0.497
1042.000	580.376	80.002	20.008	100.473	20.190	1.259	0.515
1044.000	581.427	80.002	20.008	100.458	20.189	1.406	0.508
1046.000	582.445	80.001	20.008	100.473	20.192	1.151	0.539
1048.000	583.402	80.002	20.008	100.479	20.193	0.984	0.522
1050.000	584.391	80.001	20.008	100.512	20.191	1.228	0.553
1052.001	585.357	80.001	20.008	100.485	20.188	1.484	0.496
1054.000	586.359	80.002	20.008	100.484	20.188	1.468	0.501
1056.000	587.355	80.001	20.008	100.468	20.189	1.439	0.483
1058.000	588.401	80.003	20.008	100.471	20.189	1.364	0.508
1060.001	589.417	80.002	20.008	100.484	20.192	1.127	0.517
1062.000	590.373	80.001	20.008	100.480	20.189	1.430	0.494
1064.001	591.315	80.002	20.008	100.481	20.190	1.268	0.492
1066.000	592.238	80.002	20.008	100.480	20.191	1.243	0.472
1068.001	593.165	80.003	20.008	100.487	20.192	1.100	0.496
1070.000	594.095	80.002	20.008	100.462	20.186	1.752	0.498
1072.000	595.104	80.001	20.008	100.480	20.183	1.994	0.499
1074.005	596.133	80.001	20.008	100.462	20.185	1.871	0.494
1076.000	597.044	80.005	20.009	100.484	20.186	1.723	0.487
1078.000	598.037	80.001	20.008	100.458	20.185	1.844	0.480
1080.000	599.112	80.002	20.008	100.479	20.184	1.957	0.530
1082.000	600.124	80.001	20.008	100.470	20.185	1.847	0.500
1084.000	601.155	80.002	20.008	100.488	20.186	1.710	0.550
1086.000	602.150	80.001	20.008	100.467	20.186	1.774	0.476
1088.000	603.157	80.002	20.008	100.487	20.188	1.547	0.497
1090.000	604.184	80.001	20.008	100.462	20.182	2.179	0.520
1092.000	605.245	80.001	20.008	100.481	20.185	1.833	0.515
1094.000	606.296	80.001	20.008	100.480	20.182	2.188	0.511
1096.000	607.246	80.003	20.008	100.477	20.183	2.047	0.498
1098.001	608.320	80.003	20.008	100.472	20.180	2.368	0.484
1100.000	609.381	80.003	20.008	100.466	20.181	2.243	0.505
1102.000	610.318	80.003	20.008	100.471	20.185	1.787	0.482
1104.000	611.380	80.002	20.008	100.467	20.185	1.864	0.530
1106.000	612.323	80.001	20.008	100.482	20.186	1.677	0.461
1108.001	613.338	80.000	20.008	100.473	20.189	1.461	0.497
1110.000	614.280	80.002	20.008	100.490	20.186	1.675	0.469
1112.000	615.240	80.001	20.008	100.489	20.188	1.505	0.511
1114.000	616.205	80.001	20.008	100.485	20.185	1.813	0.481
1116.000	617.249	80.000	20.008	100.454	20.183	2.065	0.516
1118.000	618.248	80.001	20.008	100.479	20.181	2.198	0.542
1120.001	619.276	80.002	20.008	100.466	20.182	2.164	0.536
1122.000	620.248	80.001	20.008	100.475	20.185	1.818	0.463
1124.000	621.274	80.001	20.008	100.465	20.184	1.884	0.500
1126.001	622.255	80.003	20.008	100.481	20.185	1.798	0.484
1128.000	623.272	80.001	20.008	100.478	20.187	1.591	0.500
1130.000	624.328	80.001	20.008	100.478	20.182	2.144	0.534
1132.000	625.342	80.000	20.008	100.476	20.184	1.973	0.530
1134.001	626.296	80.001	20.008	100.481	20.186	1.763	0.479
1136.001	627.319	80.003	20.008	100.473	20.187	1.647	0.515
1138.000	628.357	80.001	20.008	100.478	20.187	1.669	0.506
1140.000	629.308	80.001	20.008	100.475	20.188	1.497	0.449
1142.001	630.300	80.001	20.008	100.485	20.185	1.822	0.498
1144.001	631.273	80.001	20.008	100.502	20.189	1.437	0.484
1146.000	632.226	80.001	20.008	100.522	20.188	1.493	0.454
1148.000	633.205	80.003	20.008	100.510	20.188	1.476	0.501
1150.000	634.207	80.002	20.008	100.496	20.191	1.193	0.483
1152.000	635.198	80.001	20.008	100.515	20.187	1.660	0.483
1154.000	636.174	80.002	20.008	100.477	20.188	1.512	0.506
1156.000	637.126	80.002	20.008	100.481	20.190	1.332	0.500
1158.000	638.107	80.002	20.008	100.496	20.190	1.270	0.510
1160.000	639.091	80.000	20.008	100.537	20.191	1.198	0.481
1162.000	640.065	80.001	20.008	100.519	20.190	1.338	0.529
1164.000	641.071	80.001	20.007	100.514	20.192	1.076	0.506
1166.000	642.108	80.002	20.008	100.514	20.190	1.316	0.556
1168.000	643.002	80.000	20.008	100.517	20.187	1.581	0.443
1170.000	644.049	80.002	20.008	100.476	20.191	1.253	0.486
1172.001	645.042	80.001	20.008	100.521	20.191	1.173	0.498
1174.000	645.981	80.001	20.008	100.484	20.189	1.403	0.487
1176.000	646.918	80.002	20.008	100.481	20.187	1.592	0.486
1178.001	647.819	80.002	20.008	100.464	20.188	1.563	0.489
1180.000	648.797	80.001	20.008	100.506	20.185	1.781	0.511
1182.001	649.777	80.002	20.008	100.509	20.190	1.301	0.491
1184.001	650.717	80.002	20.008	100.520	20.191	1.223	0.454
1186.000	651.716	80.001	20.008	100.516	20.190	1.267	0.517
1188.000	652.659	80.001	20.008	100.531	20.188	1.502	0.511
1190.000	653.611	80.001	20.008	100.510	20.191	1.209	0.481
1192.000	654.655	80.000	20.008	100.512	20.188	1.481	0.482
1194.000	655.623	80.001	20.008	100.503	20.188	1.481	0.506
1196.000	656.650	80.003	20.012	100.569	20.189	1.395	0.516
1198.001	657.686	80.002	20.009	100.433	20.186	1.741	0.529
1200.001	658.718	80.001	20.009	100.484	20.189	1.461	0.530
1202.000	659.856	80.002	20.008	100.618	20.187	1.638	0.561
1204.000	660.863	80.001	20.008	100.479	20.181	2.260	0.521
1206.000	661.919	80.001	20.008	100.445	20.180	2.377	0.505
1208.000	663.005	80.003	20.008	100.436	20.174	2.948	0.578
1210.001	664.038	80.002	20.008	100.461	20.174	2.927	0.514
1212.001	665.119	80.001	20.008	100.476	20.177	2.695	0.539
1214.000	666.099	80.001	20.008	100.473	20.179	2.476	0.464
1216.000	667.240	80.003	20.008	100.489	20.181	2.257	0.579
1218.000	668.228	80.000	20.008	100.488	20.181	2.278	0.526
1220.000	669.285	80.002	20.008	100.468	20.175	2.920	0.517
1222.000	670.286	80.001	20.008	100.470	20.174	3.006	0.513
1224.000	671.324	80.001	20.008	100.469	20.176	2.800	0.483
1226.000	672.330	80.001	20.008	100.455	20.173	3.118	0.518
1228.000	673.347	80.002	20.008	100.460	20.173	3.082	0.447
1230.001	674.422	80.002	20.008	100.466	20.176	2.729	0.500
1232.000	675.533	80.001	20.008	100.479	20.177	2.675	0.554
1234.001	676.629	80.003	20.008	100.455	20.178	2.601	0.570
1236.000	677.628	80.001	20.007	100.487	20.178	2.584	0.527
1238.000	678.709	80.002	20.008	100.469	20.174	2.981	0.528
1240.000	679.771	80.002	20.008	100.499	20.178	2.556	0.548
1242.000	680.830	80.001	20.008	100.499	20.179	2.418	0.532
1244.001	681.894	80.002	20.008	100.506	20.178	2.543	0.525
1246.000	683.004	80.000	20.008	100.509	20.179	2.458	0.559
1248.000	684.125	80.002	20.008	100.457	20.180	2.402	0.514
1250.000	685.154	80.001	20.008	100.492	20.180	2.376	0.517
1252.000	686.194	80.003	20.008	100.509	20.182	2.112	0.515
1254.000	687.238	80.002	20.007	100.537	20.185	1.881	0.530
1256.000	688.288	80.001	20.008	100.508	20.182	2.162	0.534
1258.000	689.292	80.001	20.008	100.518	20.180	2.395	0.485
1260.000	690.347	80.002	20.008	100.523	20.182	2.176	0.505
1262.000	691.316	80.000	20.008	100.512	20.182	2.109	0.464
1264.000	692.342	80.001	20.008	100.548	20.184	1.949	0.494
1266.000	693.358	80.001	20.008	100.532	20.186	1.735	0.473
1268.000	694.296	80.001	20.008	100.546	20.185	1.786	0.471
1270.000	695.277	80.001	20.008	100.503	20.183	2.045	0.481
1272.001	696.225	80.001	20.007	100.522	20.186	1.772	0.465
1274.000	697.182	80.003	20.008	100.514	20.182	2.133	0.492
1276.000	698.188	80.002	20.008	100.516	20.183	2.030	0.464
1278.000	699.165	80.001	20.008	100.532	20.181	2.217	0.492
1280.000	700.145	80.002	20.008	100.512	20.182	2.192	0.507
1282.000	701.189	80.001	20.008	100.525	20.182	2.173	0.524
1284.001	702.194	80.002	20.008	100.497	20.179	2.437	0.498
1286.000	703.146	80.002	20.008	100.525	20.178	2.569	0.488
1288.000	704.169	80.001	20.008	100.499	20.178	2.578	0.522
1290.000	705.171	80.000	20.007	100.512	20.173	3.050	0.485
1292.000	706.145	80.002	20.008	100.511	20.176	2.716	0.520
1294.000	707.125	80.001	20.008	100.494	20.175	2.855	0.497
1296.000	708.109	80.001	20.008	100.513	20.173	3.072	0.516
1298.000	709.073	80.002	20.008	100.491	20.174	2.961	0.476
1300.001	710.059	80.001	20.008	100.509	20.170	3.425	0.480
1302.000	711.044	80.002	20.008	100.503	20.170	3.411	0.506
1304.000	711.980	80.001	20.008	100.472	20.167	3.737	0.484
1306.000	712.925	80.002	20.008	100.495	20.167	3.692	0.480
1308.000	713.860	80.001	20.008	100.468	20.168	3.589	0.473
1310.000	714.827	80.002	20.008	100.500	20.165	3.931	0.494
1312.000	715.817	80.001	20.008	100.506	20.164	3.968	0.487
1314.000	716.815	80.002	20.008	100.466	20.163	4.069	0.502
1316.000	717.687	80.002	20.008	100.487	20.162	4.265	0.417
1318.000	718.823	80.001	20.008	100.462	20.163	4.132	0.482
1320.000	719.822	80.000	20.008	100.482	20.163	4.163	0.509
1322.001	720.865	80.004	20.008	100.515	20.163	4.111	0.532
1324.000	721.869	80.002	20.008	100.466	20.161	4.336	0.533
1326.001	722.859	80.001	20.008	100.473	20.161	4.347	0.473
1328.000	723.918	80.002	20.008	100.467	20.160	4.427	0.525
1330.000	724.965	80.001	20.008	100.481	20.161	4.280	0.527
1332.001	726.008	80.002	20.008	100.520	20.160	4.465	0.568
1334.000	727.132	80.002	20.008	100.487	20.159	4.547	0.540
1336.001	728.172	80.001	20.008	100.502	20.164	4.036	0.503
1338.001	729.217	80.002	20.008	100.535	20.165	3.961	0.499
1340.000	730.338	80.002	20.008	100.514	20.165	3.939	0.520
1342.000	731.389	80.004	20.008	100.526	20.164	4.023	0.516
1344.000	732.478	80.001	20.008	100.500	20.166	3.800	0.563
1346.000	733.476	80.002	20.008	100.470	20.169	3.521	0.526
1348.000	734.479	80.002	20.008	100.515	20.166	3.858	0.482
1350.000	735.570	80.001	20.008	100.504	20.166	3.833	0.512
1352.000	736.653	80.003	20.008	100.466	20.167	3.729	0.525
1354.000	737.730	80.003	20.007	100.500	20.167	3.677	0.508
1356.000	738.768	80.002	20.008	100.523	20.171	3.301	0.491
1358.000	739.845	80.003	20.008	100.517	20.173	3.104	0.523
1360.000	740.895	80.002	20.008	100.547	20.169	3.521	0.516
1362.000	741.972	80.003	20.008	100.512	20.167	3.688	0.542
1363.000	742.503	80.002	20.007	100.500	20.167	3.717	0.538