File: Experiments/TUBS/mcc/mcc_powder_2mg_dyn30_r1.txt
Sample Weight (mg):	2.01
Heating Rate (C/s):	0.5
Combustor Temp (C):	900
N2 Flow Rate (cc/min):	80
O2 Flow Rate (cc/min):	20
Time (s)	Temperature (C)	N2 flow rate (cc/min)	O2 flow rate (cc/min)	Flow Rate (cc/min)	Oxygen (%)	HRR (W/g)	Heating rate (C/s)
-0.001	86.426	80.004	20.011	100.210	20.058	3.081	-0.101
1.999	86.202	80.005	20.011	100.191	20.061	2.587	-0.090
3.999	86.059	80.003	20.010	100.199	20.060	2.716	-0.083
5.999	85.898	80.004	20.011	100.213	20.063	2.303	-0.132
7.999	85.856	80.005	20.010	100.184	20.064	2.188	-0.040
9.999	85.772	80.006	20.010	100.216	20.064	2.205	-0.062
11.999	85.691	80.004	20.010	100.203	20.062	2.524	-0.042
13.999	85.632	80.004	20.010	100.190	20.059	2.890	-0.050
15.999	85.563	80.005	20.010	100.228	20.056	3.437	-0.032
17.999	85.526	80.005	20.010	100.204	20.054	3.759	-0.032
19.999	85.511	80.005	20.011	100.196	20.055	3.596	-0.029
21.999	85.481	80.004	20.011	100.224	20.056	3.330	-0.068
23.999	85.512	80.005	20.010	100.217	20.051	4.152	0.064
25.999	85.558	80.004	20.010	100.209	20.058	3.088	0.059
27.999	85.545	80.005	20.010	100.222	20.059	2.914	0.004
29.999	85.608	80.005	20.010	100.203	20.054	3.678	0.008
31.999	85.612	80.005	20.010	100.190	20.058	3.033	0.019
33.999	85.695	80.004	20.011	100.245	20.057	3.251	0.018
35.999	85.844	80.005	20.011	100.227	20.065	1.971	0.060
37.999	85.908	80.004	20.011	100.195	20.069	1.434	0.018
39.999	85.966	80.004	20.010	100.239	20.058	3.127	0.057
41.999	86.155	80.005	20.011	100.235	20.057	3.281	0.145
43.999	86.303	80.003	20.010	100.224	20.068	1.472	0.115
45.999	86.421	80.004	20.009	100.267	20.056	3.388	0.101
47.999	86.591	80.003	20.010	100.262	20.070	1.171	0.082
49.999	86.745	80.005	20.010	100.244	20.060	2.851	0.121
51.999	86.895	80.005	20.011	100.305	20.055	3.532	0.049
53.999	87.141	80.005	20.010	100.286	20.047	4.790	0.086
55.999	87.471	80.005	20.010	100.304	20.049	4.425	0.175
57.999	87.671	80.003	20.010	100.336	20.044	5.263	0.062
59.999	87.850	80.005	20.010	100.289	20.040	5.842	0.048
61.999	88.238	80.003	20.010	100.287	20.035	6.651	0.165
63.999	88.596	80.004	20.010	100.353	20.031	7.262	0.175
65.999	88.893	80.005	20.010	100.367	20.025	8.183	0.142
67.999	89.186	80.003	20.010	100.389	20.020	9.038	0.154
69.999	89.582	80.004	20.010	100.437	20.018	9.401	0.222
71.999	90.015	80.004	20.010	100.489	20.018	9.376	0.211
73.999	90.577	80.004	20.009	100.444	20.017	9.421	0.320
75.999	90.974	80.004	20.010	100.419	20.016	9.640	0.264
77.999	91.473	80.005	20.010	100.441	20.020	9.045	0.296
79.999	91.995	80.004	20.010	100.441	20.016	9.627	0.221
81.999	92.645	80.003	20.010	100.401	20.012	10.221	0.330
83.999	93.194	80.005	20.009	100.441	20.010	10.506	0.286
85.999	93.773	80.004	20.010	100.458	20.014	9.973	0.258
87.999	94.503	80.004	20.010	100.430	20.014	9.893	0.313
90.001	95.195	80.004	20.010	100.434	20.013	10.066	0.355
91.999	95.907	80.004	20.009	100.463	20.012	10.200	0.357
93.999	96.503	80.004	20.010	100.436	20.013	10.053	0.362
95.999	97.326	80.003	20.010	100.417	20.012	10.331	0.442
97.999	98.078	80.003	20.009	100.443	20.009	10.710	0.377
99.999	98.866	80.003	20.010	100.456	20.008	10.836	0.364
101.999	99.670	80.004	20.010	100.432	20.014	9.894	0.397
103.999	100.364	80.004	20.009	100.423	20.015	9.746	0.399
105.999	101.277	80.004	20.009	100.475	20.019	9.182	0.436
107.999	102.125	80.004	20.009	100.496	20.020	8.952	0.410
109.999	103.028	80.003	20.009	100.497	20.013	10.037	0.416
111.999	103.932	80.004	20.009	100.482	20.011	10.474	0.478
113.999	104.752	80.004	20.009	100.486	20.007	10.984	0.423
115.999	105.709	80.003	20.009	100.428	20.008	10.959	0.521
117.999	106.619	80.005	20.009	100.448	20.008	10.897	0.467
119.999	107.573	80.004	20.009	100.473	20.005	11.383	0.439
121.999	108.570	80.005	20.009	100.423	20.004	11.488	0.487
123.999	109.623	80.005	20.009	100.447	20.006	11.132	0.529
125.999	110.498	80.005	20.009	100.472	20.003	11.639	0.440
127.999	111.510	80.005	20.009	100.424	20.004	11.546	0.470
130.000	112.560	80.003	20.008	100.463	20.004	11.506	0.517
132.000	113.616	80.004	20.009	100.482	20.001	11.965	0.459
133.999	114.758	80.004	20.009	100.455	20.004	11.563	0.534
135.999	115.876	80.004	20.009	100.453	20.002	11.848	0.600
137.999	116.859	80.005	20.010	100.476	20.004	11.503	0.491
139.999	118.019	80.005	20.009	100.434	20.005	11.396	0.527
141.999	119.115	80.004	20.009	100.445	20.002	11.748	0.604
143.999	120.217	80.003	20.009	100.455	20.005	11.394	0.506
145.999	121.360	80.004	20.010	100.424	20.005	11.285	0.526
147.999	122.490	80.004	20.009	100.409	20.008	10.885	0.518
149.999	123.659	80.005	20.010	100.456	20.011	10.478	0.609
151.999	124.725	80.004	20.009	100.457	20.012	10.193	0.518
154.000	125.905	80.006	20.010	100.413	20.011	10.421	0.613
156.000	127.081	80.005	20.009	100.424	20.009	10.757	0.593
157.999	128.277	80.004	20.009	100.422	20.006	11.197	0.570
159.999	129.300	80.006	20.009	100.384	20.006	11.220	0.537
162.000	130.543	80.005	20.009	100.408	20.008	10.894	0.586
163.999	131.752	80.006	20.009	100.415	20.009	10.741	0.562
165.999	132.882	80.005	20.009	100.385	20.005	11.338	0.541
167.999	134.094	80.005	20.009	100.388	20.004	11.485	0.560
169.999	135.252	80.005	20.009	100.413	20.007	10.984	0.567
171.999	136.412	80.003	20.009	100.389	20.008	10.933	0.596
174.000	137.538	80.004	20.009	100.393	20.008	10.853	0.575
175.999	138.678	80.005	20.010	100.431	20.019	9.184	0.585
177.999	139.859	80.005	20.009	100.413	20.008	10.928	0.630
179.999	140.981	80.006	20.010	100.383	20.010	10.580	0.545
181.999	142.131	80.005	20.010	100.392	20.008	10.859	0.533
183.999	143.277	80.003	20.010	100.390	20.008	10.880	0.456
186.000	144.500	80.003	20.009	100.372	20.010	10.605	0.621
187.999	145.606	80.004	20.010	100.380	20.011	10.419	0.608
189.999	146.693	80.004	20.009	100.386	20.011	10.423	0.573
192.000	147.774	80.004	20.010	100.346	20.011	10.364	0.550
193.999	148.923	80.005	20.010	100.354	20.004	11.487	0.540
196.000	150.081	80.004	20.010	100.378	20.004	11.558	0.592
197.999	151.244	80.004	20.009	100.356	20.001	12.031	0.567
200.000	152.331	80.005	20.010	100.326	20.002	11.760	0.573
201.999	153.485	80.006	20.009	100.353	19.997	12.558	0.559
203.999	154.584	80.006	20.010	100.355	19.996	12.775	0.561
205.999	155.690	80.005	20.010	100.320	19.993	13.200	0.545
207.999	156.801	80.004	20.009	100.344	19.990	13.755	0.477
209.999	157.889	80.005	20.010	100.364	19.987	14.082	0.499
211.999	158.921	80.004	20.010	100.313	19.986	14.302	0.543
214.000	160.034	80.005	20.010	100.333	19.983	14.830	0.562
216.001	161.128	80.005	20.009	100.357	19.980	15.246	0.568
217.999	162.147	80.004	20.010	100.312	19.981	15.063	0.501
220.000	163.195	80.005	20.010	100.340	19.976	15.871	0.526
222.000	164.338	80.004	20.009	100.355	19.972	16.486	0.507
223.999	165.333	80.005	20.010	100.301	19.965	17.491	0.533
225.999	166.389	80.004	20.009	100.278	19.966	17.384	0.564
227.999	167.457	80.005	20.009	100.310	19.964	17.795	0.491
229.999	168.443	80.005	20.010	100.286	19.963	17.899	0.488
231.999	169.493	80.005	20.010	100.277	19.962	18.017	0.481
233.999	170.581	80.004	20.009	100.304	19.960	18.356	0.461
235.999	171.619	80.004	20.010	100.293	19.960	18.375	0.523
238.000	172.713	80.004	20.010	100.267	19.961	18.213	0.617
239.999	173.719	80.004	20.009	100.314	19.963	17.924	0.546
241.999	174.795	80.005	20.009	100.309	19.965	17.556	0.547
244.000	175.758	80.005	20.010	100.285	19.967	17.186	0.522
246.000	176.843	80.005	20.010	100.312	19.967	17.281	0.537
247.999	177.871	80.003	20.009	100.311	19.971	16.684	0.524
250.000	178.887	80.005	20.010	100.296	19.975	16.037	0.527
251.999	179.917	80.003	20.010	100.304	19.979	15.446	0.493
253.999	180.922	80.004	20.009	100.334	19.978	15.493	0.497
255.999	181.912	80.005	20.009	100.310	19.987	14.173	0.556
257.999	182.912	80.007	20.010	100.320	19.989	13.913	0.526
259.999	183.922	80.005	20.009	100.359	19.992	13.361	0.509
261.999	184.966	80.005	20.010	100.338	19.996	12.766	0.514
263.999	185.926	80.005	20.009	100.323	19.997	12.532	0.550
265.999	186.994	80.004	20.009	100.341	19.999	12.219	0.465
268.000	187.999	80.005	20.009	100.337	20.002	11.869	0.523
270.000	188.985	80.005	20.010	100.311	20.006	11.263	0.483
271.999	190.010	80.004	20.009	100.352	20.009	10.746	0.532
273.999	191.013	80.004	20.009	100.362	20.010	10.530	0.473
275.999	192.078	80.005	20.010	100.318	20.015	9.850	0.516
278.000	192.983	80.005	20.009	100.339	20.017	9.467	0.498
280.000	193.884	80.005	20.009	100.364	20.015	9.808	0.452
281.999	195.024	80.006	20.010	100.314	20.020	9.046	0.559
283.999	196.047	80.005	20.009	100.343	20.021	8.919	0.513
285.999	197.081	80.004	20.009	100.354	20.018	9.327	0.562
288.000	197.988	80.005	20.010	100.341	20.021	8.840	0.435
290.000	199.028	80.005	20.010	100.339	20.028	7.800	0.534
291.999	199.956	80.005	20.009	100.335	20.025	8.211	0.488
294.000	201.073	80.005	20.010	100.308	20.020	8.952	0.550
295.999	201.997	80.004	20.009	100.331	20.025	8.199	0.508
298.000	203.039	80.004	20.009	100.343	20.025	8.265	0.510
300.000	204.036	80.006	20.010	100.309	20.027	7.881	0.502
301.999	205.081	80.005	20.009	100.313	20.026	8.114	0.563
303.999	206.079	80.004	20.010	100.333	20.025	8.231	0.504
306.000	207.078	80.005	20.010	100.302	20.023	8.588	0.482
307.999	208.069	80.003	20.009	100.313	20.025	8.154	0.469
310.000	209.014	80.005	20.010	100.342	20.026	8.123	0.492
311.999	210.082	80.005	20.010	100.318	20.027	7.858	0.565
314.000	211.114	80.005	20.009	100.332	20.028	7.721	0.499
316.000	212.045	80.004	20.009	100.330	20.030	7.447	0.450
317.999	213.070	80.005	20.010	100.316	20.028	7.762	0.523
319.999	214.059	80.006	20.009	100.338	20.028	7.757	0.515
322.000	215.018	80.005	20.010	100.336	20.028	7.764	0.492
323.999	216.008	80.006	20.010	100.308	20.028	7.722	0.519
325.999	217.103	80.005	20.009	100.335	20.028	7.695	0.531
328.000	218.047	80.005	20.009	100.308	20.027	7.873	0.463
330.000	219.022	80.005	20.010	100.295	20.031	7.301	0.481
331.999	220.141	80.003	20.009	100.330	20.032	7.064	0.521
333.999	221.084	80.004	20.010	100.314	20.030	7.507	0.493
336.000	222.068	80.005	20.010	100.300	20.025	8.198	0.464
337.999	223.060	80.006	20.009	100.303	20.024	8.458	0.474
340.000	224.180	80.005	20.010	100.298	20.028	7.832	0.493
341.999	225.113	80.005	20.009	100.292	20.028	7.710	0.466
343.999	226.163	80.003	20.009	100.336	20.027	7.874	0.481
346.000	227.265	80.004	20.009	100.311	20.027	7.916	0.562
347.999	228.257	80.004	20.009	100.304	20.030	7.380	0.534
349.999	229.263	80.004	20.009	100.326	20.028	7.732	0.565
351.999	230.250	80.004	20.009	100.278	20.033	7.060	0.461
353.999	231.202	80.005	20.009	100.291	20.032	7.127	0.446
355.999	232.245	80.006	20.009	100.319	20.035	6.616	0.499
357.999	233.322	80.005	20.010	100.292	20.030	7.381	0.570
360.000	234.267	80.005	20.009	100.310	20.037	6.410	0.493
361.999	235.231	80.006	20.010	100.310	20.034	6.882	0.515
363.999	236.335	80.005	20.009	100.305	20.034	6.785	0.495
365.999	237.327	80.005	20.009	100.338	20.032	7.160	0.464
367.999	238.409	80.005	20.009	100.304	20.033	7.021	0.533
370.000	239.436	80.005	20.009	100.313	20.034	6.798	0.522
371.999	240.502	80.004	20.009	100.339	20.036	6.545	0.571
374.000	241.395	80.005	20.010	100.287	20.033	6.944	0.442
375.999	242.485	80.005	20.010	100.287	20.032	7.214	0.485
377.999	243.526	80.006	20.009	100.304	20.035	6.664	0.489
379.999	244.463	80.004	20.009	100.276	20.035	6.717	0.462
382.000	245.465	80.005	20.009	100.311	20.032	7.074	0.468
383.999	246.523	80.005	20.010	100.281	20.032	7.105	0.521
385.999	247.583	80.005	20.009	100.288	20.030	7.433	0.547
388.000	248.637	80.004	20.009	100.321	20.036	6.458	0.519
390.000	249.511	80.005	20.010	100.299	20.034	6.788	0.519
392.000	250.544	80.005	20.009	100.334	20.035	6.707	0.514
393.999	251.587	80.006	20.009	100.284	20.031	7.305	0.457
395.999	252.584	80.005	20.009	100.292	20.033	6.990	0.541
397.999	253.504	80.005	20.010	100.287	20.029	7.630	0.479
399.999	254.549	80.004	20.009	100.278	20.032	7.160	0.469
401.999	255.612	80.005	20.009	100.302	20.029	7.549	0.569
404.000	256.510	80.005	20.009	100.297	20.029	7.652	0.435
405.999	257.562	80.005	20.009	100.332	20.027	7.973	0.495
408.000	258.639	80.006	20.009	100.326	20.024	8.323	0.509
409.999	259.581	80.004	20.009	100.313	20.026	8.143	0.453
412.000	260.620	80.005	20.009	100.310	20.021	8.793	0.540
413.999	261.649	80.005	20.009	100.270	20.022	8.741	0.560
415.999	262.659	80.005	20.008	100.298	20.019	9.230	0.467
417.999	263.644	80.005	20.009	100.279	20.017	9.483	0.485
419.999	264.666	80.005	20.008	100.291	20.011	10.378	0.476
422.000	265.601	80.005	20.009	100.310	20.027	7.929	0.446
423.999	266.625	80.005	20.009	100.287	20.012	10.273	0.487
425.999	267.620	80.005	20.008	100.309	20.009	10.767	0.490
428.000	268.667	80.004	20.009	100.285	20.007	10.961	0.553
429.999	269.668	80.005	20.009	100.285	20.001	12.017	0.499
432.000	270.623	80.005	20.009	100.293	20.001	12.024	0.423
433.999	271.687	80.004	20.009	100.269	19.998	12.448	0.526
435.999	272.710	80.006	20.009	100.325	19.991	13.579	0.514
437.999	273.571	80.006	20.010	100.287	19.991	13.533	0.440
439.999	274.596	80.005	20.009	100.293	19.995	12.870	0.518
441.999	275.663	80.005	20.008	100.294	19.984	14.661	0.511
444.000	276.670	80.005	20.009	100.271	19.982	14.955	0.536
445.999	277.628	80.005	20.009	100.298	19.981	15.060	0.455
447.999	278.660	80.006	20.009	100.298	19.975	15.963	0.508
449.999	279.703	80.005	20.009	100.300	19.968	17.074	0.500
451.999	280.646	80.006	20.008	100.288	19.983	14.700	0.494
453.999	281.702	80.005	20.009	100.261	19.968	17.158	0.531
455.999	282.649	80.004	20.009	100.288	19.962	18.022	0.502
457.999	283.629	80.005	20.009	100.292	19.959	18.480	0.479
459.999	284.612	80.004	20.010	100.261	19.965	17.519	0.498
461.999	285.647	80.005	20.009	100.285	19.953	19.381	0.485
463.999	286.629	80.005	20.009	100.268	19.949	20.016	0.468
465.999	287.595	80.005	20.009	100.248	19.947	20.305	0.484
467.999	288.612	80.004	20.009	100.295	19.946	20.450	0.518
469.999	289.633	80.005	20.009	100.283	19.944	20.876	0.533
472.000	290.571	80.004	20.008	100.291	19.946	20.481	0.463
474.000	291.604	80.006	20.009	100.299	19.942	21.095	0.501
475.999	292.656	80.005	20.009	100.254	19.941	21.352	0.478
478.000	293.639	80.005	20.009	100.282	19.937	21.906	0.472
479.999	294.614	80.005	20.009	100.284	19.937	21.912	0.534
481.999	295.564	80.005	20.009	100.277	19.935	22.211	0.504
483.999	296.619	80.005	20.009	100.316	19.936	22.115	0.503
486.000	297.647	80.005	20.009	100.280	19.937	21.962	0.545
487.999	298.661	80.007	20.009	100.291	19.935	22.310	0.524
489.999	299.665	80.006	20.009	100.292	19.928	23.376	0.493
491.999	300.652	80.006	20.009	100.271	19.925	23.731	0.509
493.999	301.642	80.005	20.009	100.300	19.922	24.302	0.523
495.999	302.679	80.006	20.009	100.295	19.920	24.611	0.492
498.000	303.663	80.005	20.009	100.304	19.916	25.158	0.483
499.999	304.696	80.007	20.008	100.303	19.915	25.376	0.495
502.000	305.802	80.005	20.009	100.298	19.911	26.025	0.575
504.000	306.778	80.006	20.008	100.329	19.904	27.067	0.504
505.999	307.722	80.005	20.009	100.294	19.897	28.142	0.454
507.999	308.732	80.006	20.008	100.297	19.891	29.050	0.459
509.999	309.756	80.004	20.009	100.326	19.883	30.375	0.514
512.000	310.762	80.006	20.009	100.284	19.878	31.070	0.482
513.999	311.760	80.005	20.008	100.314	19.865	33.117	0.492
515.999	312.832	80.006	20.009	100.284	19.859	34.083	0.492
517.999	313.857	80.005	20.010	100.263	19.843	36.509	0.551
520.000	314.831	80.006	20.009	100.291	19.831	38.442	0.491
522.000	315.869	80.006	20.009	100.240	19.821	40.044	0.521
523.999	316.894	80.006	20.009	100.251	19.807	42.213	0.484
525.999	317.819	80.005	20.009	100.264	19.791	44.614	0.437
527.999	318.920	80.005	20.009	100.236	19.778	46.597	0.598
530.000	319.921	80.006	20.009	100.249	19.758	49.740	0.525
532.000	320.898	80.006	20.010	100.245	19.744	51.963	0.490
534.000	321.842	80.006	20.009	100.237	19.725	54.917	0.477
535.999	322.910	80.005	20.009	100.252	19.709	57.426	0.522
537.999	323.898	80.004	20.009	100.202	19.691	60.163	0.504
539.999	324.924	80.005	20.009	100.200	19.670	63.389	0.533
541.999	325.901	80.005	20.009	100.215	19.650	66.472	0.506
544.000	326.951	80.006	20.009	100.195	19.631	69.502	0.513
545.999	327.871	80.004	20.009	100.220	19.608	73.107	0.470
547.999	328.817	80.005	20.009	100.196	19.589	76.103	0.497
549.999	329.807	80.004	20.009	100.202	19.563	80.110	0.488
552.000	330.772	80.006	20.009	100.184	19.542	83.319	0.465
553.999	331.815	80.006	20.009	100.186	19.521	86.628	0.532
555.999	332.750	80.006	20.008	100.206	19.501	89.762	0.459
557.999	333.791	80.005	20.009	100.157	19.476	93.529	0.460
559.999	334.778	80.006	20.009	100.185	19.458	96.404	0.469
562.000	335.721	80.005	20.009	100.197	19.431	100.589	0.493
564.000	336.765	80.005	20.009	100.196	19.405	104.555	0.532
565.999	337.741	80.005	20.009	100.198	19.385	107.684	0.467
568.000	338.691	80.005	20.009	100.156	19.363	111.240	0.431
569.999	339.728	80.005	20.009	100.207	19.342	114.478	0.479
572.000	340.746	80.006	20.008	100.163	19.319	117.950	0.536
573.999	341.701	80.006	20.009	100.169	19.299	121.176	0.512
575.999	342.711	80.003	20.009	100.191	19.281	124.049	0.515
578.000	343.682	80.005	20.008	100.163	19.265	126.418	0.454
579.999	344.703	80.004	20.009	100.200	19.244	129.711	0.533
581.999	345.730	80.006	20.009	100.183	19.226	132.450	0.528
583.999	346.774	80.004	20.009	100.204	19.213	134.466	0.595
585.999	347.795	80.006	20.009	100.185	19.201	136.497	0.527
587.999	348.731	80.004	20.009	100.221	19.187	138.706	0.473
589.999	349.692	80.004	20.010	100.240	19.167	141.757	0.481
591.999	350.777	80.005	20.009	100.213	19.151	144.344	0.543
593.999	351.803	80.005	20.009	100.195	19.135	146.749	0.486
595.999	352.717	80.006	20.009	100.202	19.115	149.937	0.484
598.000	353.739	80.006	20.009	100.246	19.097	152.670	0.516
599.999	354.753	80.005	20.010	100.266	19.068	157.075	0.498
601.999	355.780	80.005	20.009	100.276	19.046	160.457	0.507
603.999	356.748	80.004	20.008	100.318	19.019	164.780	0.521
606.000	357.693	80.006	20.009	100.257	18.994	168.645	0.486
607.999	358.662	80.004	20.009	100.262	18.977	171.179	0.467
609.999	359.697	80.005	20.010	100.267	18.964	173.234	0.498
611.999	360.661	80.006	20.009	100.231	18.955	174.586	0.479
613.999	361.654	80.005	20.008	100.241	18.926	178.934	0.512
615.999	362.675	80.005	20.009	100.203	18.887	185.195	0.471
617.999	363.612	80.005	20.009	100.271	18.882	186.086	0.515
620.000	364.553	80.003	20.010	100.235	18.897	183.976	0.496
621.999	365.570	80.006	20.008	100.218	18.922	180.176	0.482
623.999	366.554	80.005	20.009	100.171	18.951	175.707	0.510
626.000	367.531	80.006	20.009	100.094	18.977	171.740	0.515
627.999	368.607	80.004	20.009	100.152	18.998	168.425	0.551
630.000	369.614	80.005	20.009	100.232	19.015	165.829	0.563
631.999	370.562	80.004	20.009	100.340	19.029	163.595	0.547
633.999	371.571	80.004	20.009	100.422	19.041	161.703	0.500
635.999	372.577	80.006	20.008	100.444	19.054	159.590	0.554
637.999	373.592	80.005	20.009	100.523	19.065	157.940	0.540
639.999	374.627	80.005	20.009	100.514	19.081	155.403	0.527
641.999	375.576	80.005	20.009	100.535	19.093	153.600	0.526
643.999	376.533	80.006	20.009	100.522	19.102	152.238	0.497
646.000	377.553	80.003	20.009	100.497	19.116	149.900	0.501
647.999	378.522	80.004	20.009	100.478	19.130	147.845	0.517
650.000	379.479	80.004	20.009	100.467	19.146	145.326	0.500
651.999	380.484	80.005	20.009	100.495	19.160	143.238	0.483
653.999	381.547	80.005	20.009	100.443	19.181	139.762	0.540
655.999	382.529	80.004	20.008	100.464	19.201	136.722	0.501
657.999	383.519	80.006	20.010	100.461	19.227	132.780	0.496
660.000	384.514	80.004	20.009	100.466	19.249	129.447	0.476
662.000	385.531	80.005	20.009	100.471	19.273	125.535	0.504
663.999	386.519	80.004	20.009	100.474	19.297	121.868	0.506
665.999	387.605	80.006	20.011	100.541	19.324	117.618	0.485
667.999	388.579	80.005	20.008	100.409	19.351	113.356	0.526
669.999	389.530	80.005	20.009	100.453	19.382	108.656	0.502
671.999	390.568	80.003	20.009	100.596	19.412	103.958	0.526
674.000	391.663	80.004	20.009	100.543	19.438	99.836	0.525
675.999	392.635	80.005	20.009	100.511	19.468	95.239	0.503
677.999	393.634	80.005	20.009	100.522	19.494	91.120	0.500
679.999	394.668	80.005	20.009	100.515	19.522	86.707	0.470
682.000	395.737	80.005	20.009	100.545	19.553	81.977	0.542
683.999	396.743	80.005	20.009	100.537	19.580	77.758	0.520
685.999	397.701	80.004	20.010	100.558	19.609	73.129	0.486
687.999	398.768	80.005	20.009	100.548	19.637	68.866	0.469
689.999	399.791	80.005	20.008	100.544	19.663	64.785	0.494
691.999	400.787	80.006	20.009	100.567	19.688	60.833	0.543
694.000	401.798	80.005	20.009	100.547	19.714	56.820	0.487
695.999	402.766	80.006	20.008	100.578	19.740	52.783	0.506
697.999	403.765	80.006	20.009	100.547	19.763	49.132	0.478
699.999	404.671	80.006	20.008	100.569	19.787	45.351	0.464
702.000	405.683	80.005	20.009	100.555	19.803	42.857	0.479
703.999	406.658	80.005	20.009	100.559	19.827	39.092	0.505
705.999	407.633	80.006	20.009	100.558	19.845	36.300	0.479
707.999	408.609	80.006	20.008	100.552	19.860	33.912	0.448
710.000	409.619	80.005	20.009	100.566	19.880	30.871	0.471
711.999	410.614	80.006	20.008	100.553	19.895	28.462	0.496
713.999	411.588	80.006	20.009	100.553	19.910	26.116	0.464
715.999	412.593	80.006	20.009	100.522	19.922	24.265	0.514
717.999	413.546	80.005	20.009	100.528	19.931	22.919	0.466
719.999	414.516	80.006	20.008	100.505	19.945	20.766	0.506
722.000	415.515	80.005	20.009	100.499	19.956	18.919	0.481
723.999	416.552	80.006	20.009	100.477	19.965	17.573	0.482
725.999	417.577	80.005	20.009	100.504	19.974	16.227	0.520
727.999	418.492	80.006	20.009	100.500	19.986	14.325	0.462
730.000	419.529	80.007	20.009	100.502	19.988	14.076	0.499
732.000	420.569	80.006	20.009	100.475	19.995	12.857	0.495
733.999	421.499	80.006	20.009	100.467	20.001	11.915	0.510
735.999	422.477	80.006	20.009	100.430	20.000	12.155	0.511
737.999	423.499	80.006	20.009	100.438	20.006	11.229	0.485
740.000	424.467	80.006	20.009	100.403	20.014	9.999	0.490
742.000	425.422	80.005	20.009	100.420	20.017	9.480	0.513
743.999	426.377	80.005	20.009	100.389	20.021	8.887	0.462
746.000	427.350	80.005	20.009	100.404	20.023	8.512	0.517
747.999	428.302	80.005	20.009	100.379	20.024	8.375	0.458
749.999	429.291	80.006	20.008	100.397	20.022	8.664	0.470
752.000	430.247	80.006	20.009	100.382	20.025	8.293	0.455
753.999	431.243	80.006	20.009	100.382	20.027	7.885	0.546
756.000	432.254	80.007	20.009	100.352	20.031	7.220	0.508
757.999	433.238	80.006	20.009	100.363	20.035	6.695	0.502
760.000	434.197	80.007	20.009	100.343	20.036	6.464	0.469
761.999	435.217	80.005	20.009	100.343	20.036	6.562	0.471
763.999	436.153	80.006	20.009	100.310	20.037	6.391	0.450
766.000	437.063	80.007	20.008	100.327	20.040	5.873	0.437
768.000	438.105	80.006	20.009	100.323	20.040	5.938	0.575
770.000	439.121	80.005	20.009	100.353	20.041	5.734	0.544
771.999	440.105	80.006	20.009	100.330	20.043	5.469	0.470
773.999	441.087	80.007	20.009	100.341	20.043	5.448	0.521
775.999	442.087	80.004	20.009	100.323	20.044	5.296	0.506
778.000	443.062	80.006	20.009	100.342	20.042	5.538	0.480
779.999	444.125	80.005	20.009	100.308	20.044	5.314	0.521
781.999	445.078	80.005	20.009	100.328	20.048	4.579	0.491
783.999	446.071	80.006	20.009	100.306	20.045	5.131	0.496
786.000	447.095	80.006	20.009	100.329	20.050	4.397	0.511
787.999	448.169	80.006	20.009	100.337	20.051	4.205	0.542
789.999	449.175	80.005	20.008	100.356	20.047	4.737	0.524
791.999	450.082	80.005	20.009	100.331	20.044	5.252	0.472
793.999	451.106	80.006	20.009	100.301	20.045	5.062	0.461
796.000	452.143	80.005	20.009	100.303	20.045	5.130	0.504
797.999	453.134	80.005	20.009	100.282	20.044	5.272	0.491
799.999	454.131	80.006	20.009	100.300	20.043	5.351	0.465
802.000	455.139	80.005	20.009	100.295	20.044	5.302	0.505
803.999	456.090	80.006	20.008	100.328	20.047	4.738	0.474
805.999	457.084	80.005	20.009	100.332	20.048	4.708	0.492
808.000	458.070	80.006	20.009	100.350	20.048	4.610	0.481
809.999	459.031	80.006	20.009	100.321	20.049	4.550	0.461
811.999	460.037	80.006	20.009	100.338	20.048	4.591	0.493
813.999	461.048	80.005	20.008	100.310	20.048	4.578	0.501
815.999	462.035	80.004	20.009	100.333	20.048	4.703	0.520
818.000	463.073	80.007	20.009	100.312	20.045	5.073	0.557
819.999	464.085	80.005	20.009	100.341	20.045	5.154	0.533
821.999	465.083	80.007	20.009	100.341	20.052	4.083	0.485
823.999	466.054	80.005	20.009	100.337	20.049	4.534	0.503
826.000	467.122	80.006	20.008	100.375	20.054	3.740	0.540
828.000	468.066	80.006	20.009	100.342	20.056	3.443	0.478
829.999	469.082	80.005	20.008	100.368	20.054	3.664	0.512
832.000	470.065	80.005	20.009	100.360	20.055	3.630	0.476
833.999	471.006	80.007	20.009	100.350	20.054	3.754	0.458
835.999	471.977	80.006	20.009	100.368	20.054	3.785	0.489
838.000	473.006	80.006	20.008	100.354	20.051	4.177	0.488
839.999	473.983	80.007	20.012	100.364	20.047	4.797	0.497
842.000	474.967	80.006	20.009	100.221	20.048	4.633	0.473
843.999	475.939	80.006	20.010	100.332	20.048	4.602	0.564
846.000	476.946	80.005	20.010	100.347	20.047	4.863	0.511
848.000	477.963	80.005	20.009	100.326	20.048	4.714	0.509
849.999	478.933	80.005	20.009	100.352	20.048	4.616	0.489
852.000	479.991	80.006	20.009	100.306	20.049	4.546	0.521
853.999	480.938	80.005	20.008	100.329	20.048	4.667	0.460
855.999	481.885	80.005	20.009	100.319	20.044	5.203	0.501
858.000	482.961	80.006	20.008	100.317	20.046	4.938	0.531
859.999	484.007	80.006	20.009	100.324	20.048	4.639	0.536
861.999	484.972	80.006	20.009	100.316	20.044	5.294	0.459
863.999	485.967	80.005	20.009	100.339	20.045	5.179	0.515
865.999	486.965	80.006	20.009	100.301	20.045	5.167	0.466
868.000	487.962	80.006	20.009	100.311	20.046	4.954	0.487
870.000	488.999	80.006	20.009	100.320	20.048	4.705	0.478
872.000	490.001	80.005	20.009	100.305	20.045	5.156	0.493
873.999	491.037	80.005	20.009	100.320	20.044	5.191	0.493
875.999	492.069	80.005	20.010	100.285	20.044	5.271	0.503
877.999	493.025	80.005	20.009	100.326	20.042	5.507	0.506
879.999	494.013	80.005	20.010	100.316	20.044	5.315	0.492
881.999	495.006	80.005	20.009	100.308	20.043	5.440	0.487
883.999	496.048	80.007	20.009	100.362	20.044	5.305	0.537
885.999	497.031	80.004	20.009	100.286	20.045	5.121	0.499
887.999	498.024	80.005	20.007	100.346	20.041	5.690	0.503
890.000	498.999	80.006	20.009	100.425	20.040	5.818	0.494
891.999	500.057	80.005	20.009	100.308	20.040	5.912	0.536
894.000	501.023	80.006	20.009	100.333	20.043	5.434	0.502
895.999	502.011	80.005	20.009	100.305	20.042	5.559	0.495
898.000	502.999	80.006	20.009	100.330	20.044	5.254	0.506
899.999	504.017	80.005	20.009	100.315	20.042	5.507	0.495
902.000	505.021	80.007	20.008	100.327	20.044	5.232	0.508
903.999	505.954	80.006	20.009	100.339	20.044	5.191	0.481
905.999	506.946	80.004	20.009	100.312	20.043	5.443	0.505
907.999	507.993	80.006	20.009	100.334	20.042	5.617	0.509
909.999	508.938	80.005	20.009	100.299	20.040	5.966	0.482
912.000	509.999	80.006	20.009	100.323	20.042	5.556	0.484
913.999	510.975	80.006	20.009	100.317	20.041	5.682	0.474
915.999	511.999	80.005	20.010	100.329	20.035	6.623	0.482
918.000	512.970	80.005	20.010	100.247	20.042	5.532	0.493
919.999	513.953	80.006	20.012	100.280	20.042	5.650	0.482
921.999	514.918	80.005	20.008	100.388	20.043	5.394	0.471
923.999	515.942	80.006	20.009	100.364	20.043	5.454	0.486
926.000	516.924	80.005	20.009	100.326	20.039	5.978	0.520
927.999	517.953	80.006	20.009	100.344	20.042	5.645	0.494
930.000	518.886	80.004	20.008	100.352	20.042	5.602	0.518
931.999	519.809	80.007	20.010	100.367	20.038	6.168	0.447
934.000	520.850	80.005	20.010	100.279	20.039	6.051	0.496
936.000	521.816	80.007	20.010	100.292	20.040	5.964	0.490
937.999	522.842	80.005	20.010	100.334	20.042	5.586	0.534
940.000	523.783	80.006	20.008	100.352	20.043	5.444	0.493
941.999	524.735	80.005	20.009	100.366	20.041	5.688	0.448
943.999	525.708	80.006	20.009	100.311	20.038	6.270	0.460
946.000	526.698	80.005	20.009	100.321	20.040	5.888	0.453
947.999	527.689	80.005	20.009	100.324	20.040	5.836	0.474
949.999	528.685	80.005	20.009	100.310	20.037	6.367	0.536
951.999	529.751	80.005	20.009	100.337	20.043	5.438	0.502
954.000	530.774	80.007	20.009	100.311	20.041	5.682	0.485
956.000	531.713	80.006	20.008	100.351	20.037	6.298	0.505
957.999	532.737	80.006	20.009	100.320	20.038	6.131	0.498
960.000	533.710	80.006	20.008	100.307	20.040	5.942	0.496
961.999	534.737	80.007	20.009	100.331	20.039	6.065	0.504
963.999	535.729	80.006	20.009	100.317	20.040	5.872	0.523
965.999	536.694	80.006	20.009	100.353	20.039	6.121	0.520
967.999	537.696	80.005	20.009	100.313	20.037	6.384	0.539
970.000	538.680	80.006	20.008	100.328	20.038	6.160	0.504
971.999	539.669	80.006	20.009	100.326	20.040	5.943	0.496
974.000	540.656	80.005	20.009	100.326	20.040	5.930	0.519
975.999	541.713	80.005	20.009	100.331	20.040	5.843	0.517
977.999	542.585	80.006	20.009	100.318	20.039	6.083	0.450
979.999	543.627	80.005	20.009	100.342	20.041	5.722	0.518
981.999	544.665	80.007	20.009	100.316	20.039	6.008	0.481
983.999	545.609	80.007	20.008	100.341	20.035	6.629	0.507
985.999	546.661	80.007	20.009	100.314	20.037	6.309	0.537
988.000	547.655	80.006	20.008	100.294	20.037	6.308	0.507
989.999	548.676	80.006	20.009	100.319	20.037	6.322	0.501
991.999	549.734	80.005	20.009	100.326	20.036	6.495	0.564
993.999	550.695	80.006	20.009	100.347	20.037	6.371	0.539
995.999	551.733	80.005	20.009	100.323	20.036	6.548	0.537
997.999	552.707	80.006	20.009	100.348	20.036	6.506	0.477
999.999	553.674	80.006	20.009	100.318	20.036	6.547	0.524
1002.000	554.702	80.006	20.008	100.333	20.038	6.209	0.492
1004.000	555.726	80.005	20.009	100.326	20.037	6.302	0.494
1006.000	556.763	80.006	20.009	100.313	20.034	6.793	0.489
1008.000	557.754	80.007	20.009	100.328	20.037	6.332	0.520
1009.999	558.749	80.006	20.009	100.305	20.037	6.430	0.517
1012.000	559.745	80.007	20.009	100.340	20.039	6.122	0.470
1013.999	560.788	80.006	20.009	100.324	20.039	6.065	0.503
1015.999	561.779	80.006	20.008	100.338	20.039	6.010	0.514
1017.999	562.812	80.006	20.009	100.322	20.044	5.263	0.528
1019.999	563.803	80.005	20.008	100.340	20.037	6.408	0.475
1022.000	564.811	80.006	20.009	100.323	20.042	5.651	0.509
1023.999	565.745	80.007	20.008	100.337	20.039	6.114	0.454
1025.999	566.834	80.005	20.009	100.362	20.040	5.901	0.521
1027.999	567.836	80.006	20.009	100.338	20.036	6.556	0.521
1029.999	568.822	80.006	20.009	100.355	20.037	6.322	0.519
1032.000	569.810	80.007	20.010	100.319	20.037	6.397	0.492
1034.000	570.773	80.006	20.009	100.282	20.040	5.890	0.461
1035.999	571.690	80.005	20.009	100.333	20.041	5.710	0.458
1038.000	572.667	80.005	20.009	100.405	20.041	5.666	0.458
1039.999	573.662	80.006	20.009	100.321	20.039	6.047	0.466
1042.000	574.598	80.006	20.009	100.342	20.041	5.799	0.486
1043.999	575.536	80.006	20.009	100.316	20.035	6.648	0.480
1045.999	576.567	80.006	20.009	100.338	20.035	6.734	0.548
1048.000	577.478	80.005	20.009	100.317	20.035	6.674	0.498
1049.999	578.498	80.006	20.009	100.334	20.038	6.162	0.527
1051.999	579.455	80.005	20.009	100.330	20.041	5.735	0.482
1054.000	580.384	80.006	20.008	100.343	20.038	6.276	0.463
1055.999	581.344	80.005	20.010	100.327	20.038	6.273	0.467
1058.000	582.309	80.005	20.009	100.285	20.036	6.523	0.469
1059.999	583.222	80.006	20.008	100.337	20.037	6.380	0.437
1062.000	584.169	80.005	20.009	100.305	20.037	6.380	0.455
1064.000	585.156	80.005	20.009	100.331	20.035	6.684	0.480
1065.999	586.188	80.006	20.009	100.327	20.037	6.425	0.511
1067.999	587.155	80.005	20.008	100.359	20.037	6.432	0.508
1070.000	588.218	80.005	20.009	100.325	20.034	6.757	0.506
1071.999	589.181	80.006	20.009	100.364	20.034	6.754	0.524
1074.000	590.207	80.005	20.009	100.331	20.038	6.193	0.487
1075.999	591.222	80.006	20.009	100.347	20.033	6.952	0.498
1078.000	592.203	80.006	20.009	100.355	20.034	6.779	0.540
1079.999	593.256	80.006	20.009	100.342	20.032	7.138	0.491
1081.999	594.266	80.005	20.009	100.339	20.033	7.002	0.506
1083.999	595.337	80.005	20.008	100.323	20.033	7.049	0.503
1086.000	596.268	80.006	20.009	100.342	20.032	7.141	0.455
1087.999	597.348	80.005	20.009	100.316	20.033	6.954	0.516
1089.999	598.382	80.005	20.009	100.356	20.038	6.259	0.539
1092.000	599.372	80.005	20.009	100.340	20.042	5.628	0.479
1093.999	600.353	80.006	20.008	100.369	20.039	6.021	0.511
1096.000	601.341	80.006	20.009	100.366	20.041	5.740	0.468
1098.000	602.274	80.005	20.009	100.346	20.037	6.348	0.452
1099.999	603.268	80.005	20.009	100.327	20.038	6.190	0.433
1101.999	604.215	80.004	20.008	100.311	20.036	6.547	0.440
1103.999	605.297	80.005	20.009	100.337	20.035	6.601	0.449
1105.999	606.335	80.005	20.009	100.319	20.038	6.233	0.534
1107.999	607.296	80.005	20.009	100.330	20.037	6.324	0.479
1109.999	608.304	80.006	20.009	100.306	20.035	6.709	0.466
1111.999	609.359	80.006	20.009	100.339	20.036	6.535	0.523
1113.999	610.364	80.004	20.010	100.331	20.035	6.711	0.510
1115.999	611.398	80.006	20.009	100.372	20.037	6.356	0.499
1117.999	612.391	80.006	20.009	100.328	20.040	5.879	0.549
1120.000	613.348	80.005	20.010	100.363	20.037	6.415	0.470
1121.999	614.371	80.005	20.010	100.354	20.037	6.382	0.535
1123.999	615.395	80.005	20.009	100.366	20.033	6.984	0.462
1125.999	616.356	80.006	20.009	100.339	20.031	7.321	0.459
1128.000	617.357	80.007	20.009	100.332	20.034	6.810	0.501
1129.999	618.362	80.005	20.009	100.331	20.036	6.580	0.474
1131.999	619.383	80.006	20.009	100.333	20.034	6.872	0.547
1133.999	620.424	80.004	20.010	100.336	20.036	6.503	0.555
1135.999	621.335	80.006	20.009	100.359	20.036	6.504	0.449
1138.000	622.341	80.006	20.009	100.341	20.034	6.810	0.490
1139.999	623.333	80.005	20.009	100.328	20.038	6.185	0.469
1141.999	624.320	80.005	20.009	100.325	20.036	6.442	0.486
1144.000	625.376	80.004	20.009	100.366	20.034	6.901	0.537
1145.999	626.364	80.004	20.009	100.340	20.036	6.553	0.426
1148.000	627.388	80.006	20.009	100.332	20.036	6.537	0.478
1150.000	628.388	80.006	20.010	100.343	20.035	6.696	0.510
1151.999	629.363	80.006	20.009	100.341	20.036	6.528	0.466
1154.000	630.369	80.005	20.009	100.368	20.032	7.164	0.560
1155.999	631.437	80.006	20.008	100.340	20.032	7.136	0.489
1157.999	632.434	80.005	20.009	100.355	20.029	7.595	0.535
1159.999	633.436	80.004	20.009	100.318	20.032	7.163	0.464
1162.000	634.485	80.006	20.009	100.361	20.028	7.722	0.544
1163.999	635.499	80.006	20.010	100.339	20.031	7.262	0.488
1165.999	636.474	80.005	20.009	100.377	20.031	7.268	0.485
1168.000	637.531	80.006	20.010	100.358	20.034	6.773	0.478
1169.999	638.456	80.006	20.010	100.377	20.035	6.710	0.448
1171.999	639.457	80.007	20.010	100.335	20.037	6.317	0.465
1173.999	640.507	80.005	20.010	100.335	20.036	6.557	0.502
1175.999	641.535	80.004	20.010	100.331	20.035	6.723	0.504
1177.999	642.442	80.005	20.009	100.341	20.034	6.762	0.473
1180.000	643.416	80.005	20.010	100.350	20.030	7.505	0.454
1181.999	644.519	80.007	20.006	100.361	20.028	7.826	0.468
1183.999	645.504	80.002	20.008	100.248	20.033	6.947	0.444
1186.000	646.499	80.005	20.009	100.347	20.031	7.279	0.488
1187.999	647.563	80.006	20.010	100.446	20.031	7.225	0.526
1189.999	648.494	80.007	20.010	100.335	20.037	6.413	0.467
1191.999	649.543	80.006	20.009	100.377	20.034	6.850	0.467
1193.999	650.547	80.006	20.010	100.336	20.031	7.247	0.535
1195.999	651.492	80.006	20.010	100.349	20.034	6.845	0.485
1197.999	652.460	80.006	20.010	100.348	20.030	7.386	0.453
1199.999	653.507	80.006	20.009	100.359	20.031	7.223	0.495
1201.999	654.410	80.006	20.010	100.342	20.028	7.700	0.469
1203.999	655.429	80.005	20.009	100.315	20.025	8.186	0.455
1206.000	656.546	80.005	20.010	100.324	20.027	7.889	0.572
1207.999	657.441	80.005	20.010	100.320	20.029	7.670	0.508
1209.999	658.536	80.007	20.010	100.372	20.033	7.001	0.544
1212.000	659.516	80.006	20.009	100.365	20.032	7.202	0.496
1213.999	660.520	80.007	20.010	100.386	20.031	7.279	0.459
1215.999	661.546	80.006	20.010	100.349	20.029	7.537	0.550
1217.999	662.513	80.006	20.010	100.386	20.029	7.643	0.530
1219.999	663.507	80.005	20.010	100.351	20.029	7.599	0.470
1221.999	664.590	80.007	20.009	100.376	20.030	7.439	0.498
1223.999	665.597	80.005	20.009	100.359	20.033	7.010	0.517
1225.999	666.631	80.005	20.009	100.392	20.037	6.358	0.584
1228.000	667.655	80.006	20.010	100.377	20.035	6.651	0.476
1229.999	668.639	80.004	20.010	100.402	20.034	6.773	0.450
1231.999	669.633	80.005	20.010	100.379	20.031	7.292	0.515
1233.999	670.642	80.006	20.010	100.379	20.028	7.731	0.490
1236.000	671.614	80.007	20.010	100.348	20.031	7.375	0.506
1237.999	672.595	80.005	20.009	100.380	20.035	6.615	0.466
1239.999	673.668	80.005	20.010	100.368	20.035	6.655	0.564
1241.999	674.725	80.007	20.010	100.382	20.036	6.538	0.552
1244.000	675.643	80.005	20.010	100.370	20.034	6.780	0.477
1246.000	676.594	80.007	20.010	100.379	20.036	6.516	0.524
1248.000	677.530	80.006	20.009	100.378	20.033	7.053	0.436
1249.999	678.537	80.005	20.010	100.384	20.031	7.221	0.444
1251.999	679.562	80.005	20.009	100.378	20.034	6.839	0.516
1254.000	680.557	80.006	20.010	100.361	20.030	7.524	0.489
1255.999	681.592	80.006	20.009	100.364	20.029	7.617	0.534
1257.999	682.525	80.006	20.010	100.339	20.028	7.719	0.500
1259.999	683.544	80.006	20.009	100.353	20.027	7.855	0.447
1261.999	684.507	80.006	20.010	100.356	20.027	7.882	0.469
1263.999	685.488	80.006	20.010	100.368	20.029	7.588	0.446
1265.999	686.591	80.005	20.010	100.352	20.029	7.611	0.487
1267.999	687.630	80.005	20.010	100.353	20.031	7.321	0.482
1270.000	688.643	80.005	20.010	100.338	20.027	7.866	0.532
1271.999	689.681	80.007	20.010	100.364	20.030	7.455	0.512
1273.999	690.715	80.004	20.009	100.350	20.029	7.549	0.510
1275.999	691.689	80.004	20.009	100.376	20.028	7.805	0.516
1277.999	692.751	80.005	20.010	100.352	20.032	7.200	0.555
1279.999	693.757	80.005	20.010	100.373	20.029	7.588	0.522
1281.999	694.805	80.006	20.010	100.375	20.026	8.116	0.492
1283.999	695.805	80.006	20.010	100.362	20.025	8.284	0.474
1285.999	696.802	80.006	20.010	100.364	20.026	8.036	0.444
1287.999	697.832	80.005	20.010	100.358	20.026	8.088	0.465
1289.999	698.857	80.005	20.009	100.376	20.025	8.239	0.548
1291.999	699.893	80.005	20.010	100.379	20.027	7.865	0.518
1293.999	700.886	80.005	20.010	100.371	20.029	7.614	0.492
1296.000	701.867	80.004	20.010	100.351	20.026	8.031	0.509
1297.999	702.813	80.004	20.010	100.371	20.028	7.768	0.500
1299.999	703.846	80.005	20.010	100.336	20.030	7.519	0.482
1302.000	704.834	80.006	20.010	100.365	20.029	7.561	0.464
1303.999	705.849	80.004	20.010	100.379	20.035	6.676	0.466
1305.999	706.795	80.005	20.010	100.419	20.035	6.740	0.475
1307.999	707.793	80.006	20.010	100.407	20.035	6.600	0.452
1310.000	708.794	80.005	20.010	100.406	20.034	6.769	0.435
1311.999	709.843	80.006	20.010	100.396	20.033	6.921	0.506
1314.000	710.831	80.007	20.010	100.406	20.036	6.462	0.519
1315.999	711.825	80.006	20.010	100.421	20.041	5.710	0.467
1317.999	712.767	80.004	20.010	100.435	20.041	5.789	0.553
1320.000	713.854	80.005	20.010	100.416	20.033	7.034	0.521
1321.999	714.836	80.004	20.010	100.363	20.029	7.535	0.493
1324.000	715.945	80.007	20.010	100.365	20.027	7.932	0.546
1325.999	716.944	80.003	20.010	100.349	20.023	8.535	0.477
1327.999	717.981	80.004	20.010	100.370	20.024	8.449	0.512
1330.000	718.964	80.005	20.010	100.355	20.025	8.171	0.444
1331.999	720.020	80.006	20.010	100.372	20.022	8.752	0.518
1333.999	721.060	80.005	20.010	100.363	20.022	8.672	0.519
1336.000	721.984	80.006	20.010	100.377	20.024	8.466	0.451
1337.999	723.011	80.004	20.011	100.354	20.022	8.643	0.536
1340.000	724.044	80.005	20.010	100.371	20.023	8.533	0.493
1342.000	725.027	80.005	20.011	100.348	20.022	8.685	0.470
1343.999	726.072	80.004	20.010	100.376	20.022	8.746	0.499
1345.999	727.203	80.005	20.010	100.380	20.019	9.172	0.541
1348.000	728.121	80.005	20.010	100.379	20.021	8.806	0.484
1349.999	729.150	80.005	20.010	100.365	20.025	8.196	0.520
1352.000	730.235	80.006	20.010	100.395	20.022	8.710	0.569
1353.999	731.247	80.006	20.010	100.366	20.020	9.025	0.499
1355.999	732.283	80.005	20.010	100.379	20.024	8.373	0.504
1357.999	733.252	80.005	20.010	100.345	20.024	8.365	0.491
1359.999	734.404	80.005	20.010	100.373	20.022	8.700	0.502
1362.000	735.353	80.003	20.010	100.368	20.021	8.787	0.542
1364.000	736.491	80.005	20.010	100.375	20.024	8.410	0.572
1366.000	737.572	80.005	20.010	100.362	20.020	9.038	0.551
1367.999	738.618	80.006	20.010	100.374	20.020	9.012	0.511
1369.999	739.656	80.005	20.010	100.360	20.020	8.980	0.551
1371.999	740.733	80.004	20.010	100.383	20.021	8.820	0.513
1373.999	741.803	80.004	20.010	100.351	20.019	9.234	0.537
1374.999	742.318	80.005	20.010	100.369	20.023	8.568	0.566