File: Experiments/TUBS/mcc/mcc_powder_1mg_dyn30_r3.txt
Sample Weight (mg):	0.98
Heating Rate (C/s):	0.5
Combustor Temp (C):	900
N2 Flow Rate (cc/min):	80
O2 Flow Rate (cc/min):	20
Time (s)	Temperature (C)	N2 flow rate (cc/min)	O2 flow rate (cc/min)	Flow Rate (cc/min)	Oxygen (%)	HRR (W/g)	Heating rate (C/s)
0.000	88.370	80.005	20.009	100.181	19.995	0.041	0.060
2.000	88.432	80.005	20.009	100.202	19.990	1.609	0.019
3.999	88.567	80.007	20.009	100.189	19.995	-0.176	0.059
5.999	88.737	80.006	20.010	100.217	19.998	-0.858	0.080
7.999	88.711	80.004	20.008	100.189	19.996	-0.453	0.009
9.999	88.797	80.006	20.008	100.215	19.993	0.561	0.027
11.999	88.849	80.005	20.009	100.185	19.995	-0.074	-0.110
13.999	88.876	80.005	20.009	100.215	19.997	-0.784	0.048
15.999	89.261	80.006	20.010	100.199	19.998	-0.940	0.106
18.000	89.190	80.006	20.009	100.222	19.987	2.604	0.046
19.999	89.248	80.006	20.009	100.196	19.987	2.556	0.114
21.999	89.348	80.005	20.009	100.249	19.981	4.301	0.073
23.999	89.499	80.005	20.009	100.243	19.985	3.036	0.108
26.000	89.664	80.005	20.009	100.253	19.982	3.957	0.050
27.999	89.851	80.006	20.009	100.246	19.987	2.617	-0.003
29.999	90.184	80.006	20.008	100.270	19.983	3.638	0.132
31.999	90.408	80.006	20.010	100.259	19.980	4.645	0.145
33.999	90.369	80.005	20.009	100.261	19.979	4.937	0.078
35.999	90.607	80.004	20.010	100.243	19.980	4.775	0.085
37.999	90.803	80.007	20.009	100.286	19.978	5.337	0.119
39.999	91.076	80.006	20.009	100.265	19.982	4.065	0.099
41.999	91.333	80.005	20.009	100.258	19.984	3.368	0.134
43.999	91.644	80.007	20.009	100.229	19.977	5.788	0.145
45.999	91.864	80.005	20.009	100.271	19.980	4.834	0.084
47.999	92.059	80.008	20.010	100.259	19.980	4.672	0.058
49.999	92.214	80.005	20.009	100.283	19.978	5.484	0.096
51.999	92.614	80.007	20.009	100.272	19.984	3.571	0.229
53.999	92.805	80.006	20.009	100.289	19.981	4.573	0.158
55.999	93.185	80.006	20.009	100.248	19.983	3.755	0.183
57.999	93.424	80.005	20.009	100.255	19.983	3.769	0.135
60.000	93.697	80.006	20.009	100.224	19.982	4.238	0.056
61.999	94.029	80.006	20.009	100.256	19.986	2.884	0.149
63.999	94.314	80.004	20.009	100.244	19.975	6.335	0.112
65.999	94.532	80.006	20.009	100.293	19.976	5.913	0.075
67.999	95.051	80.007	20.009	100.299	19.969	8.185	0.120
69.999	95.333	80.006	20.009	100.319	19.965	9.696	0.176
71.999	95.718	80.005	20.009	100.335	19.965	9.645	0.224
73.999	96.159	80.006	20.009	100.376	19.964	9.770	0.200
75.999	96.611	80.007	20.010	100.352	19.966	9.169	0.179
77.999	96.944	80.006	20.009	100.338	19.970	7.818	0.098
79.999	97.301	80.008	20.010	100.289	19.969	8.283	0.218
82.000	97.733	80.006	20.009	100.315	19.969	8.414	0.167
83.999	98.194	80.005	20.009	100.326	19.965	9.416	0.226
86.000	98.715	80.005	20.008	100.376	19.961	10.712	0.138
87.999	99.214	80.005	20.009	100.383	19.960	11.224	0.270
89.999	99.814	80.006	20.009	100.431	19.955	12.623	0.325
91.999	100.326	80.005	20.010	100.416	19.959	11.329	0.334
93.999	100.960	80.007	20.010	100.435	19.956	12.322	0.253
95.999	101.465	80.005	20.010	100.424	19.955	12.780	0.279
98.000	102.154	80.004	20.009	100.444	19.952	13.838	0.326
100.001	102.786	80.005	20.010	100.433	19.951	13.877	0.265
101.999	103.425	80.006	20.009	100.443	19.952	13.812	0.246
103.999	104.101	80.005	20.009	100.452	19.944	16.137	0.343
105.999	104.826	80.007	20.009	100.473	19.951	14.000	0.359
108.000	105.594	80.005	20.009	100.482	19.949	14.823	0.419
110.000	106.344	80.005	20.008	100.459	19.942	17.024	0.390
111.999	106.981	80.006	20.009	100.478	19.939	17.816	0.399
113.999	107.776	80.006	20.009	100.455	19.940	17.596	0.429
115.999	108.727	80.007	20.009	100.495	19.941	17.288	0.537
117.999	109.374	80.005	20.009	100.461	19.940	17.543	0.424
119.999	110.226	80.005	20.009	100.488	19.939	17.730	0.348
122.000	111.235	80.006	20.009	100.475	19.943	16.492	0.416
123.999	112.068	80.006	20.008	100.507	19.938	18.134	0.451
125.999	112.896	80.003	20.009	100.495	19.940	17.505	0.455
127.999	113.836	80.005	20.008	100.512	19.944	16.417	0.408
130.000	114.720	80.005	20.009	100.499	19.944	16.129	0.425
132.000	115.789	80.005	20.008	100.520	19.941	17.386	0.410
134.000	116.743	80.006	20.009	100.499	19.939	17.801	0.412
136.000	117.891	80.007	20.009	100.506	19.946	15.613	0.693
138.000	118.847	80.004	20.010	100.481	19.943	16.634	0.405
140.000	119.835	80.005	20.009	100.489	19.940	17.543	0.453
142.000	120.916	80.005	20.009	100.478	19.941	17.181	0.477
144.000	122.130	80.005	20.009	100.488	19.945	15.999	0.590
146.000	123.199	80.005	20.009	100.477	19.945	15.860	0.548
148.000	124.265	80.004	20.009	100.463	19.946	15.589	0.525
150.000	125.461	80.006	20.010	100.456	19.946	15.656	0.647
152.000	126.524	80.004	20.008	100.458	19.948	15.061	0.451
154.000	127.677	80.006	20.010	100.446	19.951	13.996	0.596
156.000	128.641	80.005	20.009	100.449	19.947	15.284	0.624
158.000	129.925	80.007	20.010	100.465	19.944	16.144	0.526
160.000	130.992	80.005	20.009	100.437	19.945	15.948	0.602
162.000	132.216	80.005	20.009	100.449	19.955	12.858	0.553
164.000	133.472	80.006	20.009	100.433	19.941	17.180	0.723
166.000	134.486	80.004	20.009	100.450	19.951	13.980	0.565
168.000	135.716	80.005	20.009	100.430	19.952	13.790	0.574
170.000	137.089	80.007	20.009	100.456	19.948	14.867	0.795
172.000	138.006	80.005	20.009	100.430	19.947	15.309	0.579
174.000	139.259	80.004	20.009	100.454	19.948	14.874	0.611
176.000	140.494	80.006	20.009	100.424	19.950	14.220	0.685
178.000	141.740	80.005	20.009	100.442	19.951	13.958	0.676
180.000	142.763	80.005	20.009	100.402	19.954	13.061	0.656
182.000	144.006	80.005	20.009	100.430	19.955	12.765	0.620
184.000	145.147	80.006	20.009	100.415	19.959	11.563	0.497
186.000	146.226	80.004	20.009	100.446	19.953	13.294	0.518
188.000	147.490	80.004	20.009	100.394	19.956	12.452	0.449
190.000	148.518	80.005	20.008	100.412	19.954	13.036	0.553
192.000	149.843	80.008	20.010	100.394	19.956	12.396	0.677
194.000	151.084	80.008	20.009	100.401	19.957	12.203	0.677
196.000	151.969	80.005	20.009	100.377	19.950	14.412	0.493
198.000	153.140	80.005	20.009	100.389	19.950	14.447	0.515
200.000	154.310	80.004	20.009	100.403	19.954	12.942	0.532
202.000	155.305	80.004	20.009	100.387	19.949	14.536	0.624
204.000	156.557	80.006	20.010	100.392	19.952	13.564	0.626
206.000	157.694	80.005	20.009	100.375	19.949	14.507	0.632
208.000	158.861	80.006	20.010	100.389	19.950	14.227	0.569
210.000	159.853	80.005	20.008	100.354	19.953	13.451	0.386
212.000	160.980	80.006	20.010	100.372	19.949	14.762	0.608
214.000	162.170	80.004	20.009	100.356	19.954	13.023	0.564
216.000	163.215	80.006	20.009	100.375	19.953	13.413	0.497
218.000	164.210	80.006	20.009	100.346	19.949	14.761	0.607
220.000	165.390	80.005	20.009	100.369	19.946	15.529	0.712
222.000	166.377	80.005	20.009	100.343	19.935	19.248	0.431
224.000	167.574	80.007	20.009	100.366	19.939	17.832	0.656
226.000	168.698	80.005	20.009	100.344	19.937	18.572	0.577
228.000	169.702	80.005	20.010	100.349	19.937	18.496	0.448
230.000	170.685	80.004	20.009	100.334	19.936	18.922	0.446
232.000	171.915	80.006	20.010	100.331	19.937	18.594	0.531
234.000	172.830	80.005	20.008	100.323	19.938	18.123	0.420
236.000	173.807	80.005	20.009	100.334	19.936	18.675	0.569
238.000	174.762	80.006	20.009	100.337	19.934	19.366	0.437
240.000	175.871	80.005	20.009	100.342	19.936	18.751	0.610
242.000	176.692	80.004	20.008	100.341	19.932	20.123	0.407
244.000	177.802	80.005	20.009	100.321	19.937	18.462	0.566
246.000	178.841	80.005	20.009	100.330	19.934	19.424	0.448
248.000	179.817	80.005	20.009	100.320	19.933	19.925	0.510
250.000	180.906	80.005	20.009	100.330	19.943	16.646	0.359
252.000	181.817	80.005	20.009	100.308	19.941	17.153	0.547
254.000	182.914	80.005	20.009	100.349	19.943	16.580	0.440
256.000	183.838	80.005	20.009	100.337	19.945	15.992	0.502
258.000	184.857	80.006	20.009	100.347	19.946	15.699	0.455
260.000	185.723	80.006	20.009	100.335	19.949	14.568	0.469
262.000	186.815	80.006	20.009	100.363	19.943	16.591	0.404
264.000	187.765	80.006	20.009	100.349	19.951	13.884	0.543
266.000	188.898	80.005	20.008	100.375	19.958	11.861	0.492
268.000	189.813	80.006	20.009	100.372	19.957	11.987	0.530
270.000	190.819	80.006	20.009	100.384	19.957	12.043	0.473
272.000	191.865	80.006	20.009	100.354	19.961	10.965	0.479
274.000	192.859	80.006	20.009	100.373	19.963	10.081	0.499
276.000	193.816	80.006	20.009	100.348	19.962	10.363	0.463
278.000	194.613	80.005	20.009	100.382	19.968	8.442	0.286
280.000	195.771	80.006	20.009	100.347	19.971	7.736	0.514
282.000	196.731	80.005	20.008	100.366	19.967	8.881	0.365
284.000	197.778	80.005	20.009	100.350	19.975	6.294	0.493
286.000	198.871	80.005	20.009	100.362	19.967	8.921	0.415
288.000	199.728	80.004	20.009	100.364	19.969	8.232	0.456
290.000	200.832	80.003	20.008	100.356	19.970	7.982	0.551
292.000	201.737	80.005	20.009	100.358	19.964	9.724	0.395
294.000	202.873	80.005	20.009	100.342	19.969	8.353	0.521
296.000	203.948	80.005	20.009	100.359	19.967	8.941	0.527
298.000	204.864	80.006	20.009	100.325	19.971	7.614	0.581
300.000	206.099	80.006	20.009	100.368	19.968	8.596	0.628
302.000	206.879	80.005	20.009	100.360	19.968	8.596	0.406
304.000	207.898	80.005	20.008	100.349	19.965	9.394	0.374
306.000	208.958	80.006	20.009	100.332	19.970	8.013	0.414
308.000	209.985	80.007	20.009	100.371	19.970	8.052	0.487
310.000	211.058	80.007	20.010	100.321	19.971	7.755	0.496
312.000	211.981	80.006	20.009	100.364	19.970	7.899	0.482
314.000	213.089	80.006	20.009	100.337	19.965	9.477	0.554
316.000	214.081	80.006	20.009	100.361	19.968	8.650	0.635
318.000	214.997	80.005	20.008	100.321	19.968	8.704	0.532
320.000	216.152	80.006	20.009	100.353	19.961	10.959	0.663
322.000	217.140	80.004	20.009	100.303	19.963	10.199	0.382
324.000	218.339	80.006	20.009	100.353	19.967	9.030	0.576
326.000	219.351	80.005	20.008	100.341	19.966	9.189	0.440
328.000	220.469	80.006	20.009	100.365	19.967	8.846	0.611
330.000	221.474	80.005	20.009	100.333	19.967	8.959	0.505
332.000	222.593	80.007	20.009	100.365	19.972	7.437	0.561
334.000	223.534	80.004	20.008	100.340	19.970	7.868	0.639
336.000	224.508	80.005	20.009	100.355	19.973	6.882	0.489
338.000	225.685	80.006	20.010	100.336	19.967	8.871	0.454
340.000	226.838	80.006	20.009	100.331	19.972	7.261	0.519
342.000	227.841	80.006	20.009	100.329	19.973	6.834	0.648
344.000	228.877	80.005	20.009	100.326	19.969	8.270	0.539
346.000	229.934	80.006	20.009	100.314	19.970	7.795	0.504
348.000	231.111	80.007	20.009	100.306	19.972	7.153	0.486
350.000	232.113	80.005	20.009	100.330	19.975	6.265	0.583
352.000	233.212	80.006	20.009	100.316	19.974	6.807	0.542
354.000	234.113	80.006	20.009	100.328	19.972	7.361	0.461
356.000	235.261	80.005	20.009	100.319	19.974	6.693	0.576
358.000	236.321	80.005	20.009	100.337	19.977	5.678	0.573
360.000	237.364	80.006	20.009	100.321	19.970	8.023	0.509
362.000	238.420	80.007	20.010	100.333	19.978	5.446	0.508
364.000	239.383	80.005	20.009	100.298	19.976	5.881	0.475
366.000	240.506	80.005	20.009	100.321	19.979	5.178	0.470
368.000	241.534	80.006	20.009	100.312	19.975	6.321	0.569
370.000	242.561	80.007	20.009	100.360	19.973	7.120	0.467
372.000	243.574	80.005	20.009	100.294	19.977	5.677	0.523
374.000	244.621	80.005	20.009	100.309	19.984	3.424	0.470
376.000	245.572	80.006	20.010	100.307	19.981	4.343	0.461
378.000	246.725	80.006	20.008	100.357	19.986	2.829	0.549
380.000	247.736	80.005	20.010	100.329	19.983	3.903	0.483
382.000	248.797	80.006	20.009	100.356	19.984	3.606	0.513
384.000	249.756	80.006	20.009	100.311	19.978	5.330	0.503
386.000	250.715	80.006	20.009	100.338	19.978	5.297	0.574
388.000	251.749	80.005	20.010	100.312	19.982	3.992	0.504
390.000	252.904	80.006	20.009	100.319	19.986	2.971	0.472
392.000	253.920	80.005	20.010	100.328	19.981	4.323	0.405
394.000	254.971	80.006	20.009	100.299	19.981	4.532	0.645
396.000	255.915	80.005	20.009	100.306	19.979	4.967	0.574
398.000	256.850	80.004	20.009	100.275	19.978	5.520	0.385
400.000	257.791	80.006	20.009	100.331	19.984	3.417	0.417
402.000	258.850	80.006	20.009	100.324	19.978	5.291	0.545
404.000	259.924	80.007	20.009	100.324	19.975	6.496	0.562
406.000	260.881	80.003	20.009	100.282	19.980	4.790	0.501
408.000	261.830	80.005	20.009	100.314	19.978	5.271	0.550
410.000	262.887	80.006	20.009	100.300	19.982	3.957	0.558
412.000	263.703	80.007	20.009	100.309	19.972	7.171	0.510
414.000	264.634	80.005	20.009	100.321	19.976	5.973	0.506
416.000	265.745	80.006	20.009	100.318	19.978	5.345	0.603
418.000	266.830	80.008	20.010	100.315	19.976	6.069	0.430
420.000	267.623	80.005	20.009	100.319	19.972	7.186	0.496
422.000	268.615	80.005	20.009	100.302	19.976	5.994	0.482
424.000	269.677	80.007	20.009	100.295	19.969	8.418	0.504
426.000	270.689	80.004	20.009	100.291	19.966	9.229	0.531
428.000	271.577	80.006	20.009	100.303	19.963	10.322	0.551
430.000	272.532	80.006	20.009	100.294	19.965	9.554	0.441
432.000	273.615	80.005	20.008	100.329	19.967	8.825	0.526
434.000	274.524	80.004	20.010	100.298	19.963	10.135	0.510
436.000	275.327	80.004	20.008	100.324	19.958	11.927	0.346
438.000	276.496	80.006	20.009	100.312	19.958	11.695	0.734
440.000	277.408	80.005	20.009	100.336	19.958	11.853	0.479
442.000	278.400	80.006	20.010	100.332	19.962	10.472	0.534
444.000	279.224	80.005	20.008	100.326	19.952	13.792	0.341
446.000	280.425	80.007	20.009	100.318	19.954	12.937	0.478
448.000	281.543	80.006	20.009	100.312	19.953	13.311	0.495
450.000	282.282	80.004	20.008	100.287	19.948	14.974	0.488
452.000	283.237	80.005	20.009	100.304	19.947	15.197	0.498
454.000	284.295	80.005	20.010	100.287	19.950	14.362	0.542
456.000	285.406	80.005	20.009	100.336	19.952	13.705	0.556
458.000	286.307	80.004	20.009	100.284	19.945	15.772	0.403
460.000	287.343	80.005	20.008	100.282	19.949	14.596	0.337
462.000	288.254	80.006	20.009	100.266	19.947	15.205	0.567
464.000	289.295	80.005	20.009	100.309	19.936	18.802	0.512
466.000	290.341	80.007	20.010	100.306	19.936	18.925	0.502
468.000	291.175	80.005	20.009	100.298	19.932	19.950	0.671
470.000	292.268	80.005	20.009	100.269	19.927	21.633	0.522
472.000	293.227	80.005	20.008	100.295	19.934	19.562	0.424
474.000	294.127	80.005	20.009	100.309	19.930	20.750	0.398
476.000	295.241	80.005	20.009	100.267	19.930	20.745	0.683
478.000	296.339	80.006	20.009	100.345	19.934	19.280	0.740
480.000	297.127	80.005	20.009	100.336	19.931	20.292	0.300
482.000	298.170	80.005	20.010	100.309	19.934	19.307	0.402
484.000	298.909	80.004	20.008	100.296	19.933	19.720	0.203
486.000	299.931	80.004	20.009	100.319	19.933	19.745	0.455
488.000	301.152	80.005	20.009	100.314	19.935	19.099	0.470
490.000	302.032	80.006	20.009	100.307	19.930	20.709	0.513
492.000	302.868	80.005	20.009	100.303	19.920	23.790	0.359
494.000	304.069	80.005	20.010	100.315	19.928	21.496	0.523
496.000	304.915	80.006	20.009	100.297	19.923	23.036	0.466
498.000	305.915	80.004	20.009	100.262	19.917	24.772	0.538
500.000	306.935	80.005	20.009	100.232	19.920	23.980	0.544
502.000	307.823	80.004	20.009	100.319	19.923	23.108	0.493
504.000	308.660	80.004	20.010	100.287	19.923	22.930	0.418
506.000	309.863	80.005	20.008	100.381	19.922	23.339	0.455
508.000	310.505	80.006	20.009	100.347	19.921	23.500	0.256
510.000	311.758	80.007	20.009	100.326	19.912	26.550	0.677
512.000	312.610	80.006	20.008	100.294	19.907	28.066	0.410
514.000	313.402	80.005	20.008	100.321	19.904	29.068	0.292
516.000	314.565	80.006	20.009	100.291	19.898	31.051	0.532
518.000	315.304	80.003	20.008	100.327	19.903	29.423	0.354
520.000	316.529	80.007	20.010	100.295	19.896	31.417	0.498
522.000	317.260	80.005	20.008	100.333	19.883	35.677	0.664
524.000	318.257	80.003	20.008	100.298	19.885	35.208	0.552
526.000	319.237	80.005	20.009	100.325	19.880	36.693	0.561
528.000	320.225	80.005	20.009	100.304	19.870	40.025	0.541
530.000	321.116	80.005	20.008	100.329	19.862	42.414	0.479
532.000	321.984	80.004	20.009	100.279	19.859	43.475	0.354
534.000	323.259	80.006	20.009	100.326	19.847	47.108	0.531
536.000	324.083	80.004	20.009	100.303	19.837	50.532	0.364
538.000	324.977	80.005	20.009	100.306	19.835	51.048	0.200
540.000	326.206	80.005	20.010	100.270	19.822	55.272	0.584
542.000	327.110	80.005	20.008	100.315	19.813	58.151	0.461
544.000	328.139	80.006	20.009	100.281	19.796	63.443	0.472
546.000	329.108	80.005	20.008	100.300	19.786	66.700	0.539
548.000	330.009	80.003	20.008	100.284	19.780	68.617	0.348
550.000	331.152	80.006	20.009	100.299	19.767	72.848	0.599
552.000	332.032	80.004	20.009	100.297	19.757	76.000	0.601
554.000	333.257	80.006	20.008	100.291	19.745	79.874	0.577
556.000	334.193	80.006	20.010	100.287	19.734	83.223	0.528
558.000	335.220	80.005	20.008	100.300	19.721	87.364	0.494
560.000	336.040	80.004	20.009	100.275	19.709	91.251	0.545
562.000	337.126	80.005	20.009	100.293	19.694	95.974	0.519
564.000	338.146	80.006	20.009	100.273	19.679	100.997	0.424
566.000	339.079	80.005	20.009	100.291	19.672	103.008	0.445
568.000	340.193	80.004	20.009	100.273	19.660	106.797	0.471
570.000	341.164	80.005	20.009	100.292	19.641	112.860	0.500
572.000	342.172	80.005	20.009	100.264	19.624	118.202	0.466
574.000	343.234	80.005	20.009	100.260	19.618	120.183	0.516
576.000	344.321	80.006	20.009	100.277	19.604	124.940	0.585
578.000	345.186	80.005	20.008	100.304	19.589	129.501	0.488
580.000	346.257	80.005	20.009	100.279	19.580	132.498	0.491
582.000	347.287	80.003	20.012	100.255	19.562	138.187	0.511
584.000	348.346	80.005	20.012	100.141	19.547	142.877	0.573
586.000	349.330	80.005	20.005	100.227	19.542	144.850	0.501
588.000	350.365	80.007	20.008	100.347	19.527	149.524	0.652
590.000	351.321	80.007	20.009	100.417	19.525	150.169	0.525
592.000	352.294	80.005	20.011	100.293	19.514	153.575	0.384
594.000	353.283	80.005	20.009	100.213	19.496	159.406	0.495
596.000	354.321	80.003	20.016	100.197	19.488	161.970	0.420
598.000	355.283	80.005	20.009	100.361	19.481	164.096	0.602
600.000	356.291	80.005	20.009	100.371	19.469	167.857	0.546
602.000	357.258	80.006	20.009	100.271	19.451	173.545	0.545
604.000	358.185	80.006	20.008	100.315	19.444	175.902	0.572
606.000	359.316	80.005	20.008	100.293	19.437	178.125	0.548
608.000	360.442	80.006	20.008	100.351	19.430	180.349	0.520
610.000	361.279	80.004	20.009	100.304	19.417	184.443	0.494
612.000	362.527	80.007	20.009	100.333	19.413	185.761	0.664
614.000	363.363	80.006	20.009	100.274	19.406	188.096	0.485
616.000	364.356	80.005	20.008	100.307	19.399	190.348	0.500
618.000	365.356	80.003	20.007	100.302	19.392	192.654	0.489
620.000	366.432	80.005	20.009	100.253	19.391	193.000	0.471
622.000	367.337	80.006	20.009	100.285	19.392	192.533	0.579
624.000	368.322	80.006	20.008	100.250	19.402	189.452	0.431
626.000	369.398	80.005	20.010	100.413	19.410	186.734	0.551
628.000	370.480	80.005	20.008	100.342	19.419	183.952	0.487
630.000	371.501	80.006	20.009	100.294	19.419	184.116	0.475
632.000	372.451	80.005	20.009	100.328	19.423	182.843	0.566
634.000	373.399	80.004	20.009	100.337	19.428	181.311	0.452
636.000	374.441	80.006	20.009	100.362	19.435	178.989	0.482
638.000	375.357	80.006	20.010	100.352	19.439	177.546	0.504
640.000	376.354	80.008	20.013	100.370	19.446	175.510	0.493
642.000	377.405	80.006	20.010	100.362	19.457	171.939	0.472
644.000	378.411	80.006	20.009	100.383	19.473	166.667	0.452
646.000	379.427	80.005	20.009	100.373	19.481	164.260	0.504
648.000	380.386	80.005	20.009	100.395	19.496	159.452	0.519
650.000	381.442	80.006	20.009	100.388	19.509	155.296	0.508
652.000	382.386	80.006	20.009	100.405	19.521	151.538	0.499
654.006	383.402	80.006	20.009	100.388	19.534	147.355	0.497
656.004	384.333	80.006	20.008	100.412	19.550	142.143	0.460
658.012	385.364	80.004	20.009	100.399	19.561	138.710	0.479
660.004	386.449	80.005	20.009	100.411	19.580	132.519	0.515
662.011	387.371	80.006	20.009	100.403	19.597	127.381	0.452
664.011	388.367	80.006	20.010	100.402	19.616	121.107	0.448
666.004	389.444	80.005	20.009	100.407	19.633	115.869	0.536
668.010	390.366	80.006	20.009	100.418	19.648	110.837	0.480
670.007	391.396	80.005	20.009	100.431	19.668	104.576	0.554
672.013	392.352	80.006	20.009	100.441	19.683	99.805	0.525
674.008	393.324	80.005	20.008	100.443	19.700	94.422	0.433
676.003	394.413	80.007	20.009	100.461	19.718	88.414	0.553
678.011	395.355	80.006	20.009	100.445	19.733	83.677	0.537
680.003	396.377	80.006	20.009	100.463	19.749	78.750	0.575
682.005	397.325	80.006	20.010	100.437	19.764	73.837	0.460
684.002	398.285	80.005	20.009	100.460	19.776	70.087	0.480
686.000	399.344	80.006	20.009	100.410	19.788	66.167	0.545
688.000	400.290	80.005	20.009	100.440	19.799	62.601	0.476
690.000	401.244	80.005	20.008	100.420	19.810	59.231	0.457
692.000	402.292	80.006	20.009	100.444	19.823	54.865	0.510
694.000	403.227	80.004	20.009	100.419	19.834	51.388	0.514
696.000	404.179	80.005	20.008	100.446	19.844	48.128	0.509
698.000	405.147	80.005	20.008	100.431	19.856	44.409	0.487
700.000	406.163	80.006	20.008	100.439	19.865	41.608	0.509
702.000	407.161	80.003	20.008	100.419	19.870	39.772	0.522
704.000	408.151	80.004	20.009	100.422	19.879	36.967	0.524
706.000	409.105	80.005	20.008	100.392	19.888	34.003	0.555
708.000	410.098	80.006	20.009	100.406	19.896	31.585	0.516
710.000	411.041	80.005	20.009	100.398	19.903	29.493	0.504
712.000	412.000	80.006	20.008	100.408	19.909	27.401	0.450
714.000	413.029	80.005	20.009	100.389	19.915	25.378	0.480
716.000	414.049	80.006	20.008	100.399	19.919	24.239	0.453
718.000	415.007	80.005	20.009	100.372	19.921	23.663	0.481
720.000	415.971	80.004	20.009	100.376	19.928	21.494	0.508
722.000	416.949	80.004	20.009	100.359	19.932	20.050	0.483
724.000	417.899	80.005	20.008	100.375	19.935	19.205	0.473
726.000	418.906	80.007	20.009	100.363	19.935	19.150	0.472
728.000	419.918	80.006	20.009	100.380	19.942	17.051	0.500
730.000	420.817	80.005	20.009	100.360	19.941	17.370	0.483
732.000	421.782	80.004	20.008	100.367	19.944	16.203	0.463
734.000	422.811	80.006	20.009	100.354	19.949	14.810	0.551
736.000	423.769	80.005	20.009	100.375	19.946	15.720	0.501
738.000	424.756	80.006	20.009	100.351	19.948	14.820	0.510
740.000	425.717	80.006	20.008	100.364	19.949	14.574	0.456
742.000	426.727	80.006	20.009	100.346	19.954	13.210	0.540
744.000	427.765	80.006	20.009	100.364	19.957	12.247	0.550
746.000	428.751	80.006	20.008	100.334	19.954	13.082	0.513
748.000	429.727	80.004	20.009	100.353	19.957	12.153	0.500
750.000	430.743	80.005	20.009	100.319	19.956	12.338	0.524
752.000	431.684	80.006	20.009	100.332	19.953	13.237	0.436
754.000	432.680	80.005	20.009	100.314	19.958	11.849	0.520
756.000	433.689	80.006	20.009	100.333	19.961	10.779	0.536
758.000	434.647	80.006	20.009	100.321	19.956	12.418	0.520
760.000	435.610	80.005	20.009	100.339	19.960	11.153	0.475
762.000	436.592	80.005	20.009	100.328	19.961	10.854	0.474
764.000	437.594	80.006	20.009	100.345	19.959	11.303	0.473
766.000	438.619	80.004	20.009	100.325	19.961	10.828	0.522
768.000	439.541	80.003	20.009	100.338	19.959	11.360	0.435
770.000	440.549	80.005	20.009	100.319	19.963	10.220	0.486
772.000	441.559	80.007	20.009	100.346	19.958	11.777	0.518
774.000	442.520	80.005	20.009	100.315	19.957	11.943	0.461
776.000	443.526	80.005	20.009	100.353	19.959	11.507	0.505
778.000	444.532	80.005	20.009	100.325	19.960	11.017	0.533
780.000	445.516	80.005	20.008	100.361	19.961	10.937	0.455
782.000	446.541	80.005	20.009	100.351	19.960	11.043	0.532
784.000	447.517	80.004	20.009	100.354	19.960	11.099	0.538
786.000	448.521	80.005	20.009	100.325	19.960	10.988	0.548
788.000	449.470	80.006	20.009	100.344	19.959	11.336	0.469
790.000	450.465	80.006	20.009	100.334	19.958	11.808	0.480
792.000	451.504	80.006	20.009	100.339	19.958	11.754	0.593
794.000	452.481	80.005	20.009	100.319	19.955	12.671	0.486
796.000	453.492	80.006	20.008	100.336	19.955	12.608	0.457
798.000	454.475	80.007	20.009	100.321	19.953	13.220	0.470
800.000	455.459	80.006	20.009	100.327	19.956	12.527	0.495
802.000	456.459	80.005	20.009	100.325	19.955	12.781	0.475
804.000	457.508	80.007	20.009	100.334	19.955	12.858	0.513
806.000	458.450	80.006	20.009	100.303	19.956	12.381	0.474
808.001	459.511	80.005	20.009	100.326	19.955	12.784	0.512
810.000	460.475	80.006	20.009	100.318	19.955	12.830	0.480
812.000	461.489	80.007	20.009	100.328	19.956	12.386	0.490
814.000	462.536	80.005	20.009	100.320	19.953	13.472	0.499
816.000	463.483	80.007	20.009	100.329	19.956	12.507	0.510
818.000	464.564	80.006	20.009	100.320	19.953	13.249	0.498
820.000	465.586	80.006	20.008	100.324	19.952	13.806	0.507
822.000	466.568	80.006	20.009	100.325	19.955	12.815	0.533
824.000	467.620	80.007	20.009	100.338	19.951	13.894	0.515
826.000	468.591	80.005	20.009	100.329	19.953	13.505	0.524
828.000	469.635	80.006	20.009	100.331	19.950	14.319	0.529
830.000	470.568	80.006	20.009	100.329	19.953	13.473	0.472
832.000	471.587	80.006	20.008	100.321	19.950	14.322	0.478
834.000	472.583	80.006	20.009	100.324	19.953	13.317	0.543
836.000	473.530	80.005	20.008	100.321	19.952	13.595	0.538
838.000	474.531	80.006	20.009	100.325	19.954	13.171	0.477
840.000	475.485	80.007	20.008	100.324	19.952	13.795	0.489
842.000	476.494	80.005	20.009	100.323	19.953	13.249	0.462
844.000	477.483	80.007	20.009	100.344	19.951	13.961	0.482
846.000	478.516	80.006	20.009	100.330	19.953	13.533	0.510
848.000	479.529	80.006	20.009	100.332	19.946	15.676	0.494
850.001	480.541	80.007	20.009	100.303	19.947	15.426	0.511
852.000	481.533	80.006	20.009	100.301	19.946	15.557	0.489
854.000	482.514	80.006	20.010	100.305	19.949	14.591	0.497
856.000	483.523	80.006	20.009	100.338	19.950	14.199	0.534
858.000	484.573	80.006	20.010	100.318	19.949	14.723	0.532
860.000	485.543	80.006	20.010	100.328	19.948	15.049	0.505
862.000	486.539	80.005	20.010	100.287	19.947	15.231	0.530
864.000	487.552	80.004	20.010	100.329	19.947	15.315	0.510
866.000	488.521	80.006	20.010	100.314	19.949	14.750	0.482
868.000	489.528	80.006	20.009	100.359	19.944	16.102	0.513
870.000	490.560	80.005	20.010	100.310	19.947	15.237	0.520
872.000	491.518	80.005	20.009	100.330	19.950	14.387	0.482
874.000	492.506	80.005	20.010	100.309	19.947	15.196	0.484
876.000	493.436	80.004	20.010	100.331	19.948	14.849	0.462
878.000	494.452	80.005	20.010	100.316	19.945	15.812	0.521
880.000	495.368	80.004	20.009	100.342	19.948	15.099	0.505
882.000	496.349	80.005	20.009	100.326	19.945	15.854	0.487
884.000	497.335	80.005	20.009	100.325	19.948	14.957	0.477
886.000	498.277	80.006	20.010	100.319	19.947	15.137	0.475
888.000	499.288	80.005	20.010	100.325	19.951	14.156	0.495
890.000	500.270	80.004	20.010	100.329	19.950	14.259	0.493
892.000	501.252	80.004	20.009	100.320	19.946	15.556	0.488
894.000	502.164	80.004	20.009	100.340	19.946	15.667	0.507
896.000	503.111	80.006	20.010	100.321	19.945	15.961	0.487
898.000	504.078	80.004	20.009	100.343	19.946	15.673	0.491
900.000	505.085	80.005	20.009	100.309	19.945	15.899	0.501
902.000	506.050	80.005	20.009	100.340	19.944	16.289	0.484
904.000	507.023	80.005	20.010	100.316	19.945	15.987	0.487
906.000	508.008	80.005	20.009	100.334	19.946	15.599	0.482
908.000	508.998	80.005	20.010	100.322	19.945	15.826	0.484
910.000	510.004	80.003	20.010	100.324	19.947	15.443	0.499
912.000	510.981	80.004	20.010	100.321	19.943	16.524	0.481
914.000	511.968	80.005	20.010	100.318	19.943	16.641	0.516
916.000	512.851	80.005	20.010	100.321	19.942	17.012	0.423
918.000	513.836	80.004	20.009	100.314	19.941	17.114	0.474
920.000	514.838	80.003	20.010	100.329	19.942	17.014	0.496
922.000	515.852	80.005	20.010	100.314	19.941	17.214	0.496
924.000	516.813	80.003	20.010	100.335	19.941	17.219	0.489
926.000	517.763	80.003	20.010	100.319	19.940	17.633	0.466
928.000	518.662	80.005	20.010	100.345	19.941	17.096	0.433
930.000	519.722	80.005	20.010	100.311	19.942	16.983	0.509
932.000	520.711	80.005	20.009	100.347	19.941	17.210	0.527
934.000	521.728	80.005	20.010	100.314	19.938	18.319	0.520
936.000	522.679	80.004	20.009	100.352	19.938	18.253	0.491
938.000	523.729	80.004	20.010	100.325	19.940	17.626	0.464
940.000	524.711	80.004	20.010	100.340	19.933	19.790	0.469
942.000	525.671	80.004	20.010	100.325	19.934	19.432	0.461
944.000	526.749	80.004	20.010	100.328	19.932	20.123	0.529
946.000	527.747	80.003	20.011	100.310	19.930	20.698	0.484
948.000	528.759	80.005	20.010	100.313	19.934	19.313	0.564
950.000	529.738	80.005	20.010	100.331	19.930	20.797	0.466
952.000	530.776	80.005	20.010	100.326	19.936	18.881	0.505
954.000	531.781	80.005	20.010	100.333	19.933	19.721	0.537
956.000	532.764	80.005	20.010	100.322	19.935	18.999	0.521
958.000	533.758	80.005	20.010	100.359	19.937	18.617	0.504
960.000	534.740	80.005	20.010	100.339	19.934	19.563	0.506
962.000	535.725	80.006	20.010	100.379	19.933	19.881	0.487
964.000	536.807	80.006	20.010	100.337	19.931	20.485	0.530
966.000	537.774	80.006	20.009	100.358	19.936	18.840	0.447
968.000	538.812	80.004	20.010	100.356	19.930	20.860	0.520
970.000	539.759	80.006	20.009	100.365	19.931	20.533	0.431
972.000	540.820	80.004	20.010	100.347	19.930	20.694	0.490
974.000	541.841	80.005	20.010	100.331	19.934	19.534	0.500
976.000	542.821	80.006	20.010	100.364	19.932	20.045	0.483
978.000	543.806	80.004	20.010	100.318	19.932	20.060	0.484
980.000	544.857	80.005	20.010	100.349	19.933	19.633	0.521
982.000	545.884	80.004	20.010	100.334	19.930	20.826	0.483
984.000	546.851	80.005	20.009	100.340	19.928	21.421	0.481
986.000	547.858	80.003	20.010	100.315	19.931	20.338	0.515
988.000	548.876	80.005	20.010	100.347	19.930	20.830	0.478
990.000	549.922	80.004	20.010	100.357	19.931	20.557	0.535
992.000	550.931	80.004	20.010	100.354	19.927	21.545	0.495
994.000	551.918	80.004	20.010	100.366	19.927	21.746	0.465
996.000	552.926	80.003	20.010	100.347	19.928	21.210	0.506
998.000	553.925	80.004	20.010	100.397	19.929	21.118	0.511
1000.000	554.908	80.005	20.010	100.338	19.926	22.021	0.505
1002.000	555.948	80.005	20.010	100.352	19.930	20.681	0.537
1004.000	556.950	80.004	20.010	100.330	19.927	21.692	0.515
1006.000	557.887	80.005	20.010	100.334	19.923	22.887	0.491
1008.001	558.855	80.004	20.010	100.334	19.927	21.770	0.476
1010.000	559.816	80.003	20.010	100.304	19.921	23.441	0.484
1012.000	560.793	80.005	20.010	100.338	19.926	22.120	0.465
1014.000	561.763	80.004	20.010	100.328	19.920	24.026	0.437
1016.001	562.757	80.006	20.010	100.346	19.920	23.810	0.473
1018.000	563.779	80.005	20.010	100.330	19.920	24.082	0.507
1020.000	564.762	80.004	20.009	100.352	19.918	24.529	0.500
1022.000	565.684	80.004	20.010	100.343	19.920	23.910	0.441
1024.000	566.702	80.006	20.009	100.333	19.919	24.307	0.489
1026.000	567.685	80.004	20.010	100.352	19.922	23.324	0.520
1028.000	568.615	80.006	20.010	100.350	19.923	22.924	0.466
1030.000	569.579	80.004	20.010	100.381	19.929	21.046	0.469
1032.000	570.585	80.004	20.010	100.373	19.929	21.001	0.530
1034.000	571.576	80.005	20.010	100.380	19.930	20.585	0.507
1036.000	572.547	80.006	20.010	100.348	19.928	21.402	0.510
1038.000	573.491	80.005	20.010	100.371	19.928	21.384	0.510
1040.000	574.548	80.004	20.010	100.360	19.929	21.051	0.505
1042.000	575.528	80.006	20.009	100.348	19.922	23.255	0.524
1044.000	576.496	80.004	20.010	100.363	19.923	23.043	0.519
1046.000	577.620	80.004	20.010	100.338	19.923	22.921	0.528
1048.000	578.532	80.005	20.009	100.373	19.922	23.368	0.493
1050.000	579.598	80.004	20.011	100.379	19.924	22.485	0.556
1052.000	580.598	80.004	20.010	100.397	19.921	23.557	0.496
1054.000	581.638	80.005	20.010	100.356	19.918	24.557	0.515
1056.000	582.696	80.004	20.010	100.352	19.919	24.289	0.530
1058.000	583.670	80.005	20.010	100.352	19.917	24.865	0.476
1060.000	584.727	80.005	20.010	100.343	19.918	24.526	0.505
1062.000	585.778	80.004	20.010	100.367	19.922	23.262	0.519
1064.000	586.821	80.005	20.010	100.339	19.920	24.003	0.548
1066.000	587.854	80.005	20.010	100.377	19.925	22.179	0.552
1068.000	588.896	80.004	20.010	100.377	19.925	22.371	0.526
1070.000	589.887	80.006	20.010	100.403	19.928	21.341	0.494
1072.000	590.984	80.005	20.010	100.368	19.922	23.152	0.548
1074.000	591.991	80.005	20.010	100.371	19.925	22.386	0.479
1076.000	593.048	80.003	20.010	100.360	19.923	23.038	0.506
1078.000	594.115	80.004	20.010	100.383	19.921	23.656	0.532
1080.000	595.087	80.005	20.010	100.386	19.919	24.367	0.488
1082.000	596.114	80.004	20.011	100.342	19.916	25.280	0.519
1084.000	597.119	80.004	20.010	100.347	19.916	25.356	0.536
1086.000	598.160	80.004	20.010	100.344	19.913	26.073	0.541
1088.000	599.120	80.004	20.011	100.364	19.913	26.135	0.471
1090.000	600.201	80.004	20.011	100.333	19.913	26.175	0.526
1092.000	601.144	80.005	20.010	100.350	19.912	26.641	0.453
1094.000	602.144	80.003	20.011	100.321	19.909	27.580	0.468
1096.000	603.230	80.005	20.010	100.365	19.910	27.089	0.501
1098.000	604.270	80.003	20.010	100.342	19.909	27.426	0.564
1100.000	605.258	80.004	20.011	100.361	19.910	26.976	0.501
1102.000	606.231	80.004	20.010	100.343	19.913	26.309	0.466
1104.000	607.289	80.005	20.010	100.373	19.912	26.564	0.500
1106.000	608.267	80.005	20.009	100.357	19.907	28.122	0.491
1108.000	609.253	80.004	20.010	100.357	19.907	27.975	0.481
1110.000	610.233	80.005	20.010	100.344	19.910	27.038	0.463
1112.000	611.273	80.005	20.010	100.365	19.908	27.788	0.504
1114.000	612.149	80.005	20.011	100.332	19.907	28.047	0.441
1116.000	613.182	80.004	20.010	100.335	19.905	28.708	0.473
1118.000	614.182	80.005	20.010	100.327	19.902	29.556	0.519
1120.000	615.154	80.005	20.010	100.333	19.901	30.110	0.508
1122.000	616.068	80.006	20.011	100.354	19.906	28.299	0.435
1124.000	617.088	80.005	20.010	100.352	19.901	29.922	0.494
1126.000	618.066	80.005	20.010	100.357	19.898	30.922	0.482
1128.000	619.050	80.005	20.011	100.344	19.899	30.573	0.454
1130.000	620.060	80.004	20.010	100.356	19.899	30.646	0.481
1132.000	621.048	80.005	20.011	100.343	19.900	30.323	0.479
1134.000	622.014	80.005	20.011	100.366	19.900	30.376	0.536
1136.000	623.032	80.004	20.011	100.332	19.898	30.974	0.528
1138.001	624.052	80.004	20.010	100.364	19.901	30.054	0.540
1140.000	625.047	80.005	20.010	100.344	19.901	29.934	0.526
1142.000	626.006	80.006	20.010	100.365	19.900	30.173	0.477
1144.000	627.067	80.003	20.012	100.350	19.899	30.702	0.501
1146.000	628.042	80.005	20.011	100.366	19.898	30.922	0.531
1148.000	629.063	80.006	20.011	100.354	19.899	30.527	0.495
1150.000	630.083	80.005	20.010	100.379	19.898	31.049	0.495
1152.000	631.075	80.005	20.010	100.400	19.897	31.143	0.509
1154.000	632.041	80.006	20.009	100.366	19.897	31.424	0.478
1156.000	633.057	80.005	20.010	100.320	19.898	31.091	0.503
1158.000	633.991	80.005	20.010	100.308	19.899	30.580	0.496
1160.000	634.899	80.004	20.011	100.318	19.897	31.156	0.478
1162.000	635.830	80.005	20.010	100.327	19.897	31.177	0.487
1164.000	636.845	80.005	20.010	100.364	19.893	32.598	0.475
1166.000	637.771	80.004	20.011	100.341	19.895	31.852	0.480
1168.000	638.728	80.004	20.010	100.333	19.894	32.163	0.471
1170.000	639.652	80.004	20.010	100.322	19.894	32.223	0.471
1172.000	640.624	80.005	20.010	100.375	19.900	30.446	0.486
1174.000	641.613	80.004	20.011	100.365	19.895	31.762	0.503
1176.000	642.592	80.005	20.009	100.400	19.898	31.028	0.515
1178.000	643.513	80.004	20.010	100.364	19.898	30.905	0.476
1180.000	644.483	80.004	20.009	100.370	19.898	31.072	0.456
1182.000	645.471	80.005	20.009	100.386	19.898	30.970	0.478
1184.000	646.471	80.005	20.009	100.373	19.898	31.009	0.508
1186.000	647.460	80.005	20.010	100.405	19.898	31.035	0.466
1188.000	648.540	80.004	20.010	100.372	19.895	31.780	0.501
1190.000	649.542	80.004	20.010	100.378	19.894	32.178	0.483
1192.000	650.580	80.005	20.010	100.369	19.893	32.498	0.511
1194.000	651.546	80.004	20.010	100.399	19.893	32.485	0.518
1196.000	652.620	80.005	20.010	100.368	19.893	32.527	0.540
1198.001	653.676	80.003	20.010	100.405	19.892	32.837	0.551
1200.000	654.702	80.005	20.010	100.382	19.889	33.931	0.498
1202.000	655.750	80.005	20.010	100.395	19.890	33.415	0.540
1204.000	656.757	80.005	20.011	100.372	19.889	33.719	0.482
1206.000	657.847	80.004	20.009	100.366	19.891	33.339	0.568
1208.000	658.891	80.004	20.009	100.379	19.888	34.219	0.576
1210.000	659.958	80.005	20.010	100.357	19.893	32.430	0.535
1212.000	660.956	80.004	20.010	100.395	19.893	32.505	0.534
1214.000	661.974	80.003	20.009	100.383	19.891	33.315	0.509
1216.000	662.929	80.003	20.010	100.376	19.890	33.561	0.452
1218.000	663.931	80.004	20.009	100.324	19.891	33.238	0.495
1220.000	664.926	80.005	20.009	100.372	19.887	34.554	0.487
1222.000	666.023	80.005	20.009	100.365	19.887	34.558	0.514
1224.000	666.987	80.005	20.010	100.363	19.886	34.757	0.498
1226.000	667.956	80.004	20.011	100.368	19.883	35.771	0.467
1228.000	668.989	80.004	20.010	100.347	19.880	36.592	0.529
1230.000	669.985	80.005	20.011	100.358	19.883	35.645	0.489
1232.000	670.964	80.005	20.011	100.335	19.881	36.437	0.496
1234.000	671.959	80.005	20.010	100.367	19.879	37.051	0.526
1236.000	672.956	80.004	20.010	100.341	19.883	35.666	0.496
1238.000	674.032	80.005	20.009	100.351	19.876	37.965	0.557
1240.000	675.072	80.005	20.009	100.356	19.878	37.344	0.546
1242.000	676.063	80.004	20.010	100.336	19.878	37.490	0.491
1244.000	677.188	80.005	20.009	100.370	19.877	37.662	0.550
1246.000	678.201	80.005	20.010	100.343	19.876	38.099	0.541
1248.000	679.144	80.005	20.010	100.370	19.873	39.085	0.486
1250.000	680.255	80.006	20.010	100.361	19.874	38.739	0.512
1252.000	681.332	80.003	20.010	100.373	19.878	37.361	0.533
1254.000	682.357	80.004	20.009	100.386	19.877	37.797	0.555
1256.000	683.357	80.004	20.010	100.370	19.877	37.549	0.473
1258.000	684.376	80.004	20.010	100.404	19.878	37.386	0.451
1260.000	685.371	80.004	20.011	100.365	19.879	36.949	0.492
1262.000	686.332	80.006	20.010	100.392	19.879	36.929	0.499
1264.000	687.288	80.005	20.011	100.377	19.879	37.035	0.467
1266.000	688.304	80.004	20.010	100.399	19.875	38.384	0.525
1268.000	689.310	80.005	20.010	100.386	19.875	38.308	0.500
1270.001	690.283	80.005	20.010	100.368	19.875	38.351	0.487
1272.000	691.299	80.004	20.010	100.396	19.878	37.463	0.473
1274.000	692.275	80.004	20.010	100.358	19.874	38.629	0.494
1276.000	693.244	80.005	20.010	100.365	19.871	39.466	0.493
1278.000	694.215	80.003	20.010	100.328	19.870	39.843	0.462
1280.000	695.203	80.004	20.010	100.346	19.871	39.595	0.469
1282.000	696.183	80.004	20.010	100.331	19.869	40.251	0.480
1284.000	697.138	80.005	20.010	100.358	19.871	39.649	0.522
1286.000	697.980	80.004	20.010	100.354	19.870	39.860	0.454
1288.000	698.981	80.006	20.010	100.346	19.870	39.818	0.503
1290.000	699.913	80.004	20.010	100.360	19.867	40.880	0.491
1292.000	700.779	80.004	20.010	100.351	19.865	41.435	0.477
1294.000	701.726	80.003	20.010	100.399	19.865	41.354	0.475
1296.000	702.684	80.004	20.010	100.362	19.868	40.541	0.500
1298.000	703.689	80.004	20.010	100.377	19.864	41.675	0.469
1300.000	704.601	80.003	20.010	100.350	19.866	41.168	0.490
1302.000	705.641	80.004	20.010	100.366	19.861	42.668	0.473
1304.000	706.642	80.006	20.010	100.364	19.862	42.475	0.529
1306.000	707.595	80.005	20.010	100.346	19.863	41.980	0.458
1308.000	708.621	80.005	20.010	100.375	19.859	43.377	0.490
1310.000	709.697	80.006	20.010	100.347	19.859	43.406	0.566
1312.000	710.694	80.005	20.010	100.367	19.861	42.854	0.479
1314.000	711.768	80.004	20.010	100.353	19.863	42.174	0.561
1316.000	712.807	80.005	20.010	100.362	19.861	42.933	0.540
1318.000	713.863	80.005	20.010	100.357	19.860	43.170	0.521
1320.000	714.974	80.005	20.010	100.340	19.863	42.042	0.561
1322.000	716.038	80.004	20.010	100.376	19.859	43.263	0.576
1324.000	717.107	80.004	20.010	100.343	19.861	42.703	0.541
1326.000	718.188	80.004	20.010	100.382	19.861	42.915	0.567
1328.000	719.253	80.004	20.010	100.364	19.865	41.540	0.525
1330.000	720.354	80.004	20.010	100.376	19.859	43.492	0.589
1332.000	721.393	80.004	20.010	100.351	19.859	43.299	0.514
1334.000	722.445	80.003	20.010	100.349	19.860	43.037	0.492
1336.000	723.596	80.005	20.010	100.359	19.860	43.203	0.619
1338.000	724.624	80.004	20.010	100.360	19.859	43.548	0.498
1340.000	725.743	80.004	20.010	100.371	19.858	43.898	0.540
1342.000	726.824	80.004	20.010	100.344	19.859	43.324	0.524
1344.000	727.918	80.005	20.010	100.373	19.857	44.032	0.536
1346.000	728.932	80.005	20.010	100.350	19.859	43.374	0.471
1348.000	729.991	80.005	20.010	100.373	19.858	43.624	0.508
1350.000	730.976	80.005	20.010	100.369	19.859	43.537	0.524
1352.000	731.966	80.004	20.010	100.366	19.860	43.226	0.479
1354.000	732.984	80.004	20.010	100.360	19.859	43.457	0.495
1356.000	733.927	80.005	20.010	100.385	19.858	43.629	0.475
1358.000	734.933	80.005	20.010	100.384	19.857	43.925	0.498
1360.000	735.906	80.004	20.009	100.352	19.856	44.488	0.478
1362.000	736.963	80.005	20.010	100.366	19.858	43.905	0.543
1364.000	737.759	80.007	20.010	100.355	19.858	43.880	0.387
1366.000	738.897	80.004	20.010	100.373	19.858	43.773	0.526
1368.000	739.856	80.005	20.010	100.356	19.861	42.900	0.475
1370.000	740.806	80.005	20.010	100.380	19.857	43.941	0.457
1372.000	741.785	80.004	20.010	100.351	19.859	43.581	0.503
1373.500	742.531	80.004	20.010	100.394	19.856	44.254	0.495