File: Experiments/TUBS/mcc/mcc_powder_1mg_dyn30_r2.txt
Sample Weight (mg):	1.02
Heating Rate (C/s):	0.5
Combustor Temp (C):	900
N2 Flow Rate (cc/min):	80
O2 Flow Rate (cc/min):	20
Time (s)	Temperature (C)	N2 flow rate (cc/min)	O2 flow rate (cc/min)	Flow Rate (cc/min)	Oxygen (%)	HRR (W/g)	Heating rate (C/s)
0.000	89.397	80.004	20.009	100.253	20.032	0.026	0.027
2.000	89.625	80.004	20.009	100.288	20.036	-1.177	0.095
4.000	89.797	80.003	20.009	100.292	20.037	-1.637	0.092
6.000	89.939	80.004	20.009	100.266	20.033	-0.279	0.079
8.000	90.068	80.005	20.009	100.261	20.034	-0.546	0.084
10.001	90.260	80.006	20.010	100.267	20.035	-1.041	0.123
12.001	90.474	80.004	20.010	100.261	20.033	-0.364	0.112
14.000	90.624	80.003	20.008	100.291	20.035	-0.871	0.080
16.000	90.771	80.006	20.005	100.337	20.028	1.301	0.099
18.000	90.895	80.004	20.010	100.207	20.030	0.624	0.073
20.000	91.104	80.004	20.008	100.262	20.034	-0.579	0.100
22.000	91.267	80.004	20.009	100.456	20.035	-0.885	0.090
24.000	91.451	80.003	20.009	100.339	20.032	-0.124	0.058
26.000	91.660	80.004	20.008	100.362	20.026	1.672	0.104
28.000	91.818	80.003	20.009	100.342	20.018	4.275	0.107
30.000	92.034	80.005	20.009	100.360	20.013	5.747	0.077
32.000	92.322	80.004	20.009	100.391	20.010	6.736	0.115
34.000	92.613	80.003	20.009	100.412	20.008	7.353	0.165
36.000	92.889	80.004	20.009	100.397	20.008	7.292	0.150
38.001	93.230	80.003	20.009	100.393	20.004	8.617	0.130
40.000	93.532	80.003	20.009	100.406	20.004	8.689	0.193
42.001	93.867	80.003	20.008	100.404	19.999	10.101	0.203
44.000	94.209	80.004	20.009	100.444	19.999	10.167	0.188
46.001	94.538	80.004	20.009	100.415	19.993	11.895	0.176
48.000	94.963	80.003	20.009	100.428	19.988	13.400	0.211
50.001	95.378	80.004	20.009	100.495	19.985	14.375	0.207
52.000	95.847	80.003	20.009	100.515	19.980	15.830	0.236
54.000	96.252	80.005	20.009	100.496	19.981	15.779	0.190
56.000	96.782	80.005	20.009	100.496	19.983	14.920	0.270
58.000	97.309	80.002	20.009	100.515	19.982	15.311	0.253
60.001	97.967	80.004	20.009	100.522	19.984	14.765	0.283
62.001	98.491	80.003	20.009	100.524	19.980	15.958	0.295
64.000	99.198	80.003	20.009	100.512	19.980	15.952	0.318
66.000	99.738	80.004	20.009	100.508	19.978	16.513	0.276
68.000	100.438	80.004	20.009	100.492	19.978	16.574	0.367
70.000	101.149	80.003	20.009	100.496	19.978	16.579	0.368
72.001	101.869	80.003	20.009	100.497	19.978	16.554	0.340
74.000	102.676	80.002	20.009	100.512	19.979	16.334	0.369
76.001	103.397	80.003	20.009	100.506	19.975	17.599	0.370
78.000	104.183	80.003	20.009	100.524	19.974	17.695	0.389
80.001	104.991	80.004	20.010	100.522	19.976	17.197	0.378
82.000	105.751	80.003	20.009	100.524	19.973	18.101	0.379
84.001	106.628	80.003	20.009	100.535	19.978	16.651	0.411
86.000	107.470	80.003	20.009	100.535	19.977	16.806	0.463
88.000	108.356	80.003	20.010	100.541	19.975	17.378	0.445
90.000	109.277	80.004	20.009	100.559	19.976	17.290	0.476
92.000	110.181	80.005	20.010	100.562	19.977	16.916	0.487
94.000	111.078	80.003	20.010	100.552	19.979	16.429	0.452
96.001	112.017	80.004	20.010	100.555	19.975	17.418	0.473
98.001	112.962	80.004	20.009	100.555	19.974	17.696	0.441
100.001	114.054	80.004	20.009	100.555	19.975	17.427	0.520
102.000	115.026	80.003	20.009	100.548	19.978	16.691	0.489
104.000	116.039	80.003	20.009	100.565	19.976	17.151	0.508
106.000	117.093	80.005	20.009	100.559	19.973	18.103	0.513
108.000	118.087	80.004	20.009	100.553	19.976	17.204	0.477
110.000	119.157	80.004	20.008	100.552	19.973	18.018	0.496
112.001	120.156	80.003	20.008	100.534	19.974	17.796	0.505
114.000	121.293	80.003	20.009	100.530	19.980	16.058	0.548
116.000	122.354	80.004	20.009	100.534	19.978	16.690	0.519
118.000	123.442	80.005	20.009	100.514	19.978	16.531	0.552
120.000	124.525	80.005	20.009	100.526	19.980	16.044	0.577
122.001	125.565	80.003	20.008	100.524	19.976	17.344	0.521
124.001	126.728	80.003	20.009	100.508	19.980	15.813	0.556
126.001	127.813	80.004	20.009	100.525	19.985	14.342	0.510
128.000	128.946	80.003	20.008	100.531	19.983	14.950	0.536
130.000	130.129	80.003	20.009	100.512	19.979	16.383	0.572
132.000	131.284	80.004	20.008	100.523	19.980	15.908	0.606
134.000	132.394	80.004	20.008	100.507	19.983	14.981	0.569
136.000	133.523	80.004	20.009	100.505	19.984	14.671	0.562
138.000	134.722	80.003	20.008	100.506	19.986	14.190	0.548
140.000	135.848	80.003	20.009	100.488	19.985	14.351	0.561
142.000	137.070	80.003	20.009	100.484	19.981	15.665	0.626
144.000	138.176	80.004	20.009	100.476	19.983	15.143	0.574
146.000	139.249	80.004	20.009	100.478	19.982	15.287	0.543
148.000	140.447	80.003	20.009	100.472	19.984	14.836	0.587
150.000	141.647	80.004	20.009	100.485	19.984	14.652	0.604
152.000	142.745	80.004	20.009	100.487	19.985	14.344	0.589
154.000	143.914	80.003	20.008	100.465	19.985	14.363	0.548
156.000	145.038	80.004	20.009	100.467	19.985	14.355	0.571
158.000	146.153	80.004	20.009	100.465	19.985	14.491	0.539
160.000	147.341	80.003	20.009	100.458	19.987	13.679	0.608
162.000	148.431	80.003	20.009	100.452	19.986	14.103	0.540
164.000	149.605	80.004	20.008	100.461	19.984	14.811	0.578
166.000	150.744	80.005	20.009	100.468	19.980	15.943	0.554
168.000	151.878	80.003	20.009	100.470	19.980	16.022	0.578
170.000	153.009	80.004	20.009	100.454	19.979	16.130	0.570
172.000	154.138	80.003	20.009	100.455	19.980	15.939	0.549
174.000	155.272	80.004	20.009	100.476	19.977	17.029	0.623
176.000	156.437	80.004	20.009	100.461	19.977	16.870	0.574
178.000	157.509	80.004	20.009	100.461	19.976	17.091	0.545
180.000	158.596	80.003	20.008	100.465	19.973	18.221	0.547
182.000	159.715	80.003	20.009	100.449	19.970	19.021	0.586
184.000	160.822	80.005	20.009	100.446	19.973	18.190	0.536
186.000	161.943	80.003	20.009	100.435	19.972	18.447	0.544
188.000	163.049	80.005	20.009	100.438	19.971	18.752	0.527
190.000	164.167	80.004	20.009	100.435	19.970	19.039	0.539
192.000	165.282	80.004	20.009	100.414	19.969	19.401	0.577
194.000	166.365	80.004	20.009	100.425	19.968	19.651	0.533
196.000	167.396	80.002	20.009	100.419	19.964	20.874	0.506
198.000	168.566	80.003	20.009	100.415	19.959	22.444	0.592
200.000	169.660	80.003	20.009	100.416	19.963	21.024	0.560
202.000	170.796	80.004	20.009	100.402	19.960	22.050	0.582
204.000	171.795	80.002	20.009	100.411	19.958	22.612	0.531
206.000	172.923	80.004	20.009	100.398	19.959	22.303	0.543
208.000	173.986	80.004	20.009	100.405	19.960	22.055	0.530
210.000	175.148	80.004	20.009	100.419	19.958	22.634	0.564
212.000	176.097	80.003	20.009	100.410	19.959	22.357	0.501
214.000	177.111	80.004	20.009	100.416	19.960	22.152	0.502
216.000	178.265	80.003	20.009	100.398	19.962	21.348	0.548
218.001	179.255	80.004	20.009	100.420	19.965	20.607	0.483
220.000	180.296	80.004	20.009	100.444	19.966	20.398	0.517
222.001	181.382	80.004	20.009	100.438	19.965	20.468	0.554
224.000	182.462	80.003	20.009	100.415	19.965	20.567	0.561
226.000	183.511	80.004	20.009	100.407	19.966	20.123	0.534
228.000	184.504	80.004	20.009	100.406	19.970	19.170	0.518
230.000	185.602	80.005	20.008	100.409	19.974	17.802	0.478
232.000	186.649	80.004	20.009	100.399	19.975	17.385	0.526
234.000	187.663	80.004	20.009	100.409	19.976	17.263	0.515
236.000	188.713	80.004	20.009	100.392	19.981	15.732	0.528
238.000	189.703	80.003	20.009	100.398	19.982	15.467	0.477
240.000	190.691	80.003	20.009	100.405	19.985	14.352	0.461
242.000	191.759	80.004	20.009	100.400	19.983	15.088	0.514
244.000	192.791	80.005	20.009	100.407	19.987	13.807	0.514
246.000	193.843	80.004	20.009	100.400	19.990	12.933	0.532
248.000	194.861	80.005	20.010	100.400	19.989	13.033	0.532
250.000	195.854	80.003	20.009	100.405	19.991	12.485	0.522
252.000	196.844	80.004	20.009	100.394	19.992	12.174	0.506
254.000	197.874	80.004	20.010	100.405	19.994	11.758	0.505
256.000	198.886	80.002	20.009	100.393	19.999	9.973	0.541
258.000	199.899	80.004	20.009	100.395	19.999	10.195	0.479
260.000	200.847	80.004	20.009	100.399	20.000	9.875	0.529
262.000	201.887	80.004	20.009	100.393	20.003	8.789	0.496
264.000	202.844	80.004	20.009	100.405	20.001	9.425	0.484
266.000	203.880	80.005	20.009	100.397	20.005	8.406	0.514
268.000	204.885	80.004	20.010	100.405	20.004	8.464	0.505
270.000	205.851	80.004	20.009	100.392	20.005	8.340	0.454
272.000	206.935	80.003	20.010	100.394	20.005	8.191	0.509
274.000	207.950	80.004	20.009	100.395	20.005	8.315	0.513
276.000	208.945	80.005	20.010	100.367	20.008	7.312	0.519
278.000	209.929	80.005	20.010	100.392	20.009	6.935	0.469
280.000	211.026	80.006	20.009	100.384	20.010	6.647	0.515
282.000	211.977	80.003	20.010	100.385	20.010	6.726	0.510
284.000	213.007	80.004	20.009	100.396	20.010	6.714	0.501
286.000	214.036	80.004	20.009	100.388	20.011	6.441	0.535
288.000	214.980	80.004	20.009	100.396	20.010	6.812	0.475
290.000	216.017	80.003	20.009	100.379	20.006	8.000	0.478
292.000	217.033	80.003	20.010	100.372	20.005	8.314	0.487
294.000	218.075	80.004	20.010	100.375	20.009	7.130	0.453
296.000	219.117	80.003	20.009	100.384	20.009	7.188	0.507
298.000	220.077	80.005	20.010	100.405	20.011	6.310	0.483
300.001	221.087	80.003	20.010	100.390	20.010	6.817	0.513
302.000	222.085	80.004	20.010	100.379	20.008	7.326	0.528
304.000	223.050	80.004	20.009	100.382	20.007	7.552	0.511
306.001	224.078	80.005	20.009	100.377	20.010	6.595	0.505
308.000	224.990	80.003	20.009	100.387	20.007	7.669	0.506
310.000	225.941	80.004	20.009	100.379	20.009	7.050	0.484
312.000	227.096	80.004	20.010	100.377	20.009	6.902	0.506
314.000	228.117	80.005	20.009	100.394	20.007	7.800	0.549
316.000	228.991	80.003	20.010	100.378	20.011	6.432	0.482
318.000	229.938	80.003	20.009	100.374	20.009	7.181	0.445
320.000	230.983	80.004	20.009	100.356	20.012	6.206	0.496
322.000	232.063	80.004	20.010	100.363	20.012	6.064	0.489
324.000	233.017	80.005	20.010	100.380	20.015	5.211	0.460
326.000	234.064	80.003	20.010	100.384	20.011	6.505	0.499
328.000	235.030	80.006	20.009	100.385	20.010	6.785	0.494
330.000	236.023	80.004	20.010	100.354	20.008	7.369	0.516
332.000	237.094	80.004	20.010	100.374	20.010	6.661	0.473
334.000	237.971	80.002	20.009	100.396	20.012	6.088	0.442
336.000	239.053	80.005	20.009	100.396	20.008	7.455	0.489
338.000	239.969	80.003	20.009	100.392	20.008	7.252	0.438
340.000	241.077	80.003	20.009	100.376	20.004	8.657	0.521
342.000	242.032	80.004	20.010	100.374	20.006	8.052	0.577
344.000	243.102	80.005	20.009	100.361	20.009	7.194	0.550
346.000	244.074	80.005	20.009	100.377	20.009	6.966	0.523
348.000	245.086	80.003	20.009	100.375	20.006	7.986	0.488
350.000	246.071	80.004	20.009	100.363	20.008	7.277	0.557
352.000	247.121	80.004	20.009	100.378	20.012	6.120	0.498
354.000	248.121	80.004	20.009	100.357	20.013	5.754	0.509
356.000	249.120	80.002	20.009	100.368	20.011	6.432	0.551
358.000	250.017	80.004	20.009	100.369	20.011	6.418	0.472
360.000	251.074	80.003	20.009	100.355	20.010	6.731	0.486
362.000	252.193	80.006	20.009	100.360	20.014	5.371	0.503
364.000	253.078	80.003	20.009	100.342	20.012	6.060	0.468
366.000	254.061	80.004	20.010	100.352	20.014	5.587	0.500
368.000	255.054	80.003	20.009	100.337	20.015	5.190	0.418
370.000	256.170	80.002	20.010	100.349	20.012	6.211	0.572
372.000	257.192	80.004	20.010	100.355	20.014	5.658	0.580
374.000	258.201	80.004	20.010	100.340	20.011	6.276	0.463
376.000	259.113	80.003	20.010	100.346	20.010	6.699	0.580
378.000	260.248	80.004	20.010	100.357	20.015	5.325	0.592
380.000	261.219	80.006	20.010	100.359	20.010	6.802	0.515
382.000	262.153	80.004	20.010	100.377	20.014	5.639	0.467
384.000	263.148	80.003	20.009	100.355	20.011	6.418	0.391
386.000	264.214	80.003	20.010	100.366	20.010	6.855	0.578
388.000	265.201	80.005	20.009	100.358	20.013	5.964	0.479
390.000	266.191	80.004	20.010	100.345	20.009	6.992	0.489
392.000	267.107	80.005	20.010	100.334	20.010	6.718	0.409
394.000	268.140	80.004	20.009	100.350	20.004	8.674	0.537
396.000	269.118	80.004	20.010	100.359	20.006	8.056	0.419
398.000	270.215	80.004	20.010	100.344	20.002	9.063	0.628
400.000	271.113	80.004	20.010	100.359	19.999	9.987	0.622
402.000	272.042	80.003	20.009	100.366	19.995	11.326	0.347
404.000	273.265	80.004	20.010	100.351	19.999	10.253	0.475
406.000	274.172	80.004	20.010	100.358	19.994	11.654	0.515
408.000	275.169	80.004	20.010	100.328	19.993	11.947	0.495
410.000	276.105	80.004	20.010	100.332	19.989	13.320	0.579
412.000	277.234	80.005	20.010	100.325	19.990	12.773	0.546
414.000	278.128	80.002	20.010	100.329	19.988	13.398	0.490
416.000	279.175	80.003	20.010	100.335	19.989	13.123	0.502
418.000	280.110	80.004	20.010	100.331	19.985	14.332	0.547
420.000	281.092	80.005	20.009	100.368	19.986	14.123	0.478
422.001	282.097	80.005	20.009	100.362	19.979	16.150	0.481
424.000	283.109	80.004	20.009	100.355	19.976	17.046	0.416
426.000	284.068	80.005	20.009	100.366	19.971	18.652	0.508
428.000	285.156	80.003	20.009	100.345	19.975	17.504	0.424
430.000	286.096	80.004	20.009	100.352	19.972	18.302	0.462
432.000	287.224	80.003	20.009	100.337	19.971	18.623	0.599
434.000	288.172	80.004	20.009	100.324	19.972	18.289	0.394
436.000	289.187	80.003	20.009	100.346	19.974	17.844	0.544
438.001	290.297	80.005	20.010	100.354	19.964	20.793	0.644
440.000	291.152	80.004	20.009	100.358	19.964	20.791	0.477
442.000	292.123	80.004	20.009	100.318	19.966	20.170	0.593
444.000	293.182	80.003	20.009	100.343	19.964	20.726	0.672
446.000	294.239	80.004	20.009	100.348	19.963	21.166	0.509
448.000	295.240	80.005	20.010	100.359	19.968	19.634	0.560
450.001	296.269	80.004	20.009	100.361	19.963	21.139	0.536
452.000	297.292	80.005	20.009	100.351	19.958	22.845	0.515
454.000	298.177	80.005	20.010	100.355	19.958	22.680	0.568
456.000	299.212	80.004	20.010	100.337	19.956	23.247	0.509
458.000	300.285	80.004	20.010	100.355	19.959	22.447	0.609
460.000	301.219	80.004	20.009	100.353	19.958	22.619	0.523
462.000	302.281	80.004	20.010	100.344	19.958	22.580	0.609
464.001	303.273	80.004	20.009	100.348	19.955	23.621	0.503
466.000	304.305	80.005	20.009	100.355	19.958	22.733	0.627
468.000	305.284	80.005	20.009	100.357	19.958	22.847	0.439
470.000	306.412	80.004	20.009	100.345	19.954	23.951	0.581
472.001	307.237	80.004	20.009	100.343	19.954	23.900	0.429
474.000	308.416	80.005	20.009	100.367	19.951	24.901	0.466
476.000	309.476	80.006	20.010	100.349	19.948	25.877	0.556
478.001	310.443	80.004	20.009	100.357	19.948	25.866	0.476
480.000	311.383	80.003	20.009	100.350	19.947	26.032	0.442
482.000	312.547	80.005	20.009	100.354	19.944	26.977	0.464
484.000	313.549	80.004	20.009	100.358	19.934	30.153	0.529
486.000	314.638	80.003	20.010	100.340	19.929	31.540	0.563
488.000	315.582	80.004	20.009	100.364	19.933	30.486	0.473
490.000	316.701	80.004	20.009	100.350	19.921	34.064	0.561
492.000	317.710	80.004	20.010	100.362	19.910	37.474	0.555
494.000	318.754	80.004	20.009	100.360	19.912	36.913	0.507
496.000	319.776	80.003	20.009	100.332	19.904	39.207	0.505
498.000	320.886	80.004	20.009	100.331	19.890	43.693	0.707
500.000	321.729	80.004	20.009	100.320	19.882	45.922	0.474
502.000	322.798	80.005	20.009	100.325	19.875	48.119	0.459
504.001	323.907	80.004	20.009	100.315	19.865	51.206	0.539
506.000	324.760	80.004	20.009	100.322	19.860	52.707	0.498
508.000	325.870	80.006	20.009	100.330	19.854	54.615	0.588
510.000	326.903	80.005	20.008	100.319	19.835	60.285	0.555
512.000	327.967	80.005	20.009	100.302	19.829	62.194	0.520
514.000	328.739	80.004	20.008	100.304	19.813	67.110	0.418
516.001	329.853	80.006	20.009	100.287	19.809	68.357	0.469
518.000	330.806	80.003	20.009	100.298	19.794	72.959	0.438
520.000	331.890	80.005	20.009	100.294	19.778	77.975	0.577
522.000	332.867	80.003	20.009	100.290	19.769	80.757	0.508
524.000	333.986	80.005	20.009	100.290	19.753	85.462	0.556
526.000	334.822	80.003	20.009	100.287	19.745	88.150	0.482
528.000	336.003	80.005	20.009	100.302	19.727	93.683	0.618
530.000	336.864	80.005	20.008	100.283	19.715	97.347	0.430
532.000	337.963	80.004	20.009	100.287	19.704	100.572	0.496
534.000	338.892	80.004	20.008	100.283	19.693	104.130	0.475
536.000	339.874	80.004	20.009	100.289	19.675	109.470	0.477
538.000	340.904	80.004	20.009	100.290	19.659	114.304	0.451
540.000	341.965	80.003	20.008	100.290	19.645	118.577	0.481
542.000	342.983	80.005	20.009	100.279	19.637	121.232	0.476
544.000	343.879	80.004	20.008	100.293	19.619	126.799	0.510
546.000	344.961	80.004	20.009	100.289	19.605	131.037	0.481
548.000	345.884	80.004	20.009	100.294	19.592	135.052	0.412
550.000	346.950	80.004	20.008	100.285	19.583	137.763	0.588
552.000	347.991	80.003	20.009	100.291	19.570	141.701	0.497
554.000	349.000	80.003	20.009	100.299	19.559	145.071	0.548
556.000	349.978	80.005	20.009	100.286	19.548	148.478	0.516
558.000	350.947	80.004	20.009	100.296	19.544	149.599	0.505
560.000	351.908	80.005	20.009	100.300	19.534	152.754	0.445
562.000	352.903	80.005	20.009	100.316	19.519	157.322	0.410
564.000	353.861	80.003	20.009	100.311	19.509	160.541	0.442
566.000	354.794	80.003	20.008	100.305	19.493	165.242	0.509
568.000	355.916	80.003	20.009	100.329	19.481	169.020	0.562
570.000	356.955	80.005	20.009	100.306	19.474	171.231	0.585
572.000	357.931	80.004	20.009	100.312	19.458	176.240	0.439
574.000	359.016	80.005	20.009	100.305	19.445	180.061	0.511
576.000	359.937	80.004	20.009	100.308	19.439	181.887	0.496
578.000	360.898	80.004	20.009	100.319	19.431	184.308	0.385
580.000	361.845	80.002	20.008	100.319	19.424	186.547	0.399
582.001	362.678	80.004	20.009	100.334	19.418	188.348	0.369
584.000	363.748	80.003	20.008	100.332	19.419	187.948	0.514
586.000	364.762	80.004	20.009	100.311	19.412	190.218	0.585
588.000	365.828	80.006	20.009	100.312	19.408	191.589	0.491
590.000	366.736	80.004	20.009	100.313	19.411	190.637	0.519
592.000	367.763	80.005	20.009	100.322	19.416	189.106	0.453
594.000	368.759	80.004	20.008	100.310	19.425	186.331	0.463
596.000	369.776	80.005	20.009	100.324	19.432	184.201	0.453
598.000	370.698	80.004	20.008	100.322	19.429	184.977	0.515
600.000	371.840	80.007	20.009	100.340	19.436	182.942	0.545
602.000	372.679	80.005	20.009	100.371	19.444	180.580	0.485
604.000	373.608	80.005	20.008	100.380	19.452	178.106	0.400
606.000	374.688	80.005	20.009	100.397	19.458	176.158	0.464
608.000	375.560	80.003	20.009	100.401	19.457	176.543	0.368
610.000	376.561	80.004	20.009	100.377	19.469	172.996	0.416
612.000	377.603	80.004	20.008	100.385	19.481	169.328	0.432
614.000	378.405	80.003	20.008	100.381	19.491	166.028	0.286
616.000	379.469	80.004	20.009	100.382	19.503	162.522	0.356
618.000	380.579	80.004	20.009	100.384	19.521	157.004	0.449
620.000	381.540	80.004	20.009	100.393	19.537	152.011	0.509
622.000	382.530	80.004	20.009	100.404	19.551	147.729	0.477
624.000	383.370	80.004	20.009	100.391	19.561	144.605	0.505
626.000	384.395	80.005	20.009	100.414	19.578	139.586	0.566
628.000	385.289	80.003	20.009	100.425	19.593	134.967	0.387
630.000	386.301	80.003	20.009	100.424	19.609	130.082	0.547
632.000	387.427	80.004	20.009	100.434	19.622	125.993	0.523
634.000	388.472	80.004	20.009	100.415	19.637	121.430	0.521
636.000	389.420	80.004	20.009	100.414	19.664	112.934	0.554
638.000	390.549	80.005	20.009	100.428	19.687	105.924	0.544
640.000	391.310	80.005	20.010	100.426	19.697	102.801	0.437
642.000	392.382	80.003	20.009	100.447	19.713	97.882	0.682
644.000	393.252	80.003	20.008	100.437	19.726	94.104	0.387
646.000	394.271	80.004	20.009	100.455	19.742	89.137	0.343
648.000	395.213	80.004	20.008	100.481	19.755	85.181	0.379
650.000	396.224	80.005	20.009	100.457	19.775	78.874	0.488
652.000	397.306	80.003	20.009	100.457	19.792	73.730	0.456
654.000	398.538	80.005	20.009	100.433	19.811	67.873	0.631
656.000	399.254	80.003	20.009	100.426	19.823	64.037	0.553
658.000	400.305	80.004	20.009	100.448	19.835	60.592	0.491
660.000	401.234	80.004	20.009	100.433	19.853	54.878	0.492
662.000	402.137	80.003	20.009	100.436	19.864	51.710	0.417
664.000	403.200	80.004	20.009	100.435	19.870	49.883	0.472
666.000	404.173	80.003	20.009	100.410	19.883	45.755	0.531
668.000	405.116	80.004	20.008	100.423	19.891	43.430	0.410
670.000	406.244	80.005	20.009	100.421	19.901	40.137	0.570
672.000	407.084	80.004	20.008	100.413	19.914	36.162	0.511
674.000	408.110	80.004	20.009	100.422	19.925	32.860	0.479
676.000	409.234	80.004	20.008	100.405	19.934	30.130	0.569
678.000	410.104	80.003	20.009	100.404	19.943	27.176	0.511
680.000	411.098	80.006	20.009	100.414	19.951	24.777	0.480
682.000	412.100	80.005	20.009	100.419	19.958	22.769	0.495
684.000	413.012	80.004	20.009	100.423	19.966	20.283	0.488
686.000	414.028	80.004	20.009	100.392	19.969	19.300	0.481
688.000	415.129	80.004	20.009	100.386	19.977	17.003	0.583
690.000	416.148	80.003	20.010	100.399	19.982	15.369	0.562
692.000	417.063	80.005	20.009	100.401	19.987	13.774	0.487
694.000	418.111	80.004	20.009	100.394	19.991	12.472	0.468
696.000	419.088	80.004	20.009	100.386	20.001	9.520	0.495
698.000	420.040	80.003	20.009	100.383	19.994	11.512	0.539
700.000	421.017	80.003	20.009	100.375	19.999	10.054	0.412
702.000	422.017	80.004	20.009	100.382	20.005	8.382	0.390
704.000	423.121	80.004	20.009	100.357	20.005	8.135	0.531
706.000	424.093	80.004	20.009	100.354	20.008	7.329	0.519
708.000	424.934	80.003	20.009	100.341	20.010	6.718	0.475
710.000	425.923	80.003	20.009	100.348	20.009	7.133	0.580
712.000	426.922	80.002	20.008	100.359	20.014	5.436	0.484
714.000	427.887	80.003	20.009	100.350	20.014	5.442	0.515
716.000	428.831	80.003	20.009	100.337	20.016	4.896	0.398
718.000	429.911	80.005	20.009	100.348	20.016	4.857	0.452
720.000	430.821	80.004	20.008	100.352	20.023	2.893	0.471
722.000	431.675	80.002	20.008	100.338	20.020	3.595	0.448
724.000	432.863	80.005	20.009	100.348	20.018	4.273	0.581
726.000	433.635	80.002	20.009	100.336	20.025	2.159	0.327
728.000	434.725	80.004	20.009	100.335	20.027	1.398	0.355
730.000	435.625	80.003	20.009	100.342	20.026	1.879	0.449
732.000	436.537	80.002	20.009	100.330	20.029	0.995	0.375
734.000	437.679	80.005	20.010	100.326	20.024	2.353	0.520
736.000	438.608	80.003	20.009	100.350	20.028	1.203	0.466
738.000	439.592	80.005	20.009	100.348	20.025	2.269	0.559
740.000	440.525	80.005	20.009	100.380	20.026	1.729	0.466
742.000	441.693	80.003	20.008	100.330	20.029	0.969	0.628
744.000	442.598	80.004	20.009	100.327	20.033	-0.273	0.565
746.000	443.677	80.004	20.009	100.320	20.032	-0.085	0.610
748.000	444.628	80.005	20.009	100.315	20.024	2.366	0.598
750.000	445.527	80.004	20.009	100.335	20.023	2.757	0.485
752.000	446.540	80.003	20.009	100.326	20.024	2.503	0.494
754.000	447.337	80.004	20.009	100.317	20.028	1.073	0.359
756.000	448.619	80.004	20.010	100.327	20.030	0.579	0.556
758.000	449.525	80.004	20.009	100.319	20.030	0.741	0.409
760.000	450.625	80.005	20.009	100.299	20.021	3.484	0.562
762.000	451.437	80.003	20.008	100.329	20.025	2.061	0.314
764.000	452.487	80.004	20.009	100.328	20.030	0.741	0.594
766.000	453.491	80.003	20.009	100.316	20.023	2.757	0.353
768.000	454.277	80.004	20.009	100.316	20.027	1.528	0.328
770.000	455.375	80.004	20.008	100.314	20.023	2.659	0.518
772.000	456.466	80.006	20.010	100.321	20.023	2.698	0.593
774.000	457.332	80.004	20.009	100.301	20.029	1.008	0.481
776.000	458.217	80.005	20.010	100.330	20.026	1.795	0.521
778.000	459.223	80.004	20.009	100.335	20.026	1.963	0.413
780.000	460.112	80.003	20.009	100.323	20.022	2.913	0.308
782.000	461.143	80.003	20.009	100.304	20.031	0.325	0.455
784.000	462.228	80.004	20.009	100.330	20.028	1.066	0.506
786.000	463.190	80.005	20.010	100.343	20.033	-0.410	0.629
788.000	464.055	80.005	20.009	100.339	20.025	2.263	0.357
790.000	465.147	80.006	20.009	100.328	20.033	-0.280	0.581
792.000	466.082	80.004	20.009	100.327	20.030	0.702	0.539
794.000	466.864	80.005	20.009	100.321	20.026	1.801	0.445
796.000	467.771	80.003	20.009	100.340	20.029	0.858	0.501
798.000	469.016	80.005	20.009	100.344	20.029	0.826	0.518
800.000	469.837	80.004	20.008	100.331	20.028	1.073	0.508
802.000	471.039	80.003	20.009	100.315	20.027	1.664	0.592
804.000	471.773	80.004	20.009	100.310	20.025	2.126	0.308
806.000	472.984	80.004	20.009	100.313	20.023	2.614	0.736
808.000	473.675	80.005	20.009	100.308	20.028	1.157	0.311
810.000	474.661	80.004	20.009	100.337	20.026	1.684	0.498
812.000	475.860	80.007	20.009	100.310	20.034	-0.715	0.673
814.000	476.583	80.004	20.008	100.303	20.025	2.217	0.627
816.000	477.717	80.004	20.009	100.314	20.031	0.208	0.509
818.000	478.609	80.006	20.010	100.321	20.030	0.520	0.632
820.000	479.453	80.006	20.009	100.314	20.030	0.644	0.426
822.000	480.402	80.003	20.009	100.314	20.035	-0.865	0.389
824.000	481.468	80.005	20.009	100.324	20.030	0.689	0.564
826.000	482.556	80.006	20.010	100.337	20.033	-0.176	0.622
828.000	483.707	80.006	20.010	100.337	20.026	1.710	0.660
830.000	484.549	80.006	20.009	100.327	20.024	2.379	0.543
832.000	485.642	80.006	20.009	100.335	20.035	-0.800	0.566
834.000	486.648	80.006	20.009	100.348	20.038	-1.820	0.609
836.000	487.596	80.004	20.009	100.337	20.026	1.840	0.512
838.000	488.692	80.005	20.009	100.308	20.027	1.599	0.497
840.000	489.521	80.004	20.008	100.322	20.033	-0.468	0.540
842.000	490.655	80.004	20.009	100.312	20.023	2.802	0.494
844.000	491.445	80.004	20.008	100.311	20.032	0.065	0.338
846.000	492.528	80.005	20.009	100.320	20.029	0.897	0.569
848.000	493.722	80.004	20.009	100.311	20.034	-0.748	0.559
850.000	494.614	80.003	20.008	100.319	20.034	-0.553	0.494
852.000	495.553	80.005	20.010	100.326	20.035	-0.832	0.496
854.000	496.729	80.004	20.009	100.315	20.035	-0.962	0.503
856.000	497.620	80.004	20.008	100.317	20.034	-0.494	0.572
858.000	498.475	80.003	20.009	100.328	20.030	0.514	0.451
860.000	499.609	80.004	20.008	100.320	20.032	0.039	0.476
862.000	500.709	80.006	20.009	100.316	20.031	0.351	0.467
864.000	501.703	80.005	20.008	100.311	20.026	1.710	0.533
866.000	502.753	80.006	20.009	100.286	20.030	0.618	0.521
868.000	503.732	80.005	20.009	100.297	20.029	1.040	0.522
870.000	504.561	80.004	20.008	100.327	20.038	-1.821	0.453
872.000	505.712	80.004	20.008	100.329	20.030	0.728	0.576
874.000	506.581	80.005	20.009	100.332	20.032	-0.169	0.436
876.000	507.578	80.004	20.009	100.336	20.039	-2.120	0.416
878.000	508.728	80.006	20.009	100.326	20.026	1.710	0.478
880.000	509.441	80.003	20.009	100.331	20.040	-2.561	0.261
882.000	510.516	80.004	20.008	100.335	20.029	0.897	0.486
884.000	511.607	80.005	20.009	100.332	20.035	-0.994	0.483
886.000	512.700	80.006	20.009	100.335	20.037	-1.612	0.496
888.000	513.481	80.005	20.009	100.326	20.036	-1.105	0.485
890.000	514.563	80.006	20.009	100.320	20.029	0.761	0.463
892.000	515.586	80.004	20.009	100.319	20.028	1.170	0.536
894.000	516.414	80.006	20.009	100.300	20.035	-1.079	0.436
896.000	517.793	80.006	20.010	100.296	20.025	2.035	0.493
898.000	518.518	80.006	20.010	100.318	20.033	-0.299	0.377
900.000	519.560	80.004	20.009	100.315	20.036	-1.294	0.519
902.000	520.660	80.005	20.009	100.329	20.035	-0.891	0.383
904.000	521.699	80.005	20.009	100.328	20.031	0.273	0.514
906.000	522.390	80.004	20.009	100.316	20.030	0.598	0.330
908.000	523.506	80.006	20.010	100.319	20.037	-1.574	0.518
910.000	524.502	80.004	20.009	100.304	20.024	2.575	0.534
912.000	525.482	80.006	20.010	100.313	20.032	-0.137	0.547
914.000	526.346	80.004	20.009	100.321	20.029	1.047	0.516
916.000	527.422	80.005	20.010	100.326	20.031	0.436	0.548
918.000	528.396	80.006	20.009	100.337	20.030	0.618	0.287
920.000	529.262	80.004	20.009	100.322	20.027	1.372	0.516
922.000	530.212	80.004	20.009	100.333	20.029	0.936	0.439
924.000	531.217	80.003	20.009	100.319	20.035	-0.975	0.463
926.000	532.121	80.005	20.010	100.305	20.032	-0.104	0.570
928.001	533.091	80.002	20.009	100.331	20.034	-0.572	0.460
930.000	534.157	80.005	20.009	100.319	20.031	0.260	0.453
932.001	535.122	80.006	20.009	100.319	20.031	0.247	0.439
934.000	536.080	80.004	20.009	100.306	20.027	1.619	0.489
936.000	537.130	80.006	20.010	100.302	20.038	-1.723	0.601
938.000	537.998	80.004	20.009	100.331	20.025	2.126	0.421
940.000	538.990	80.002	20.008	100.333	20.028	1.079	0.544
942.000	540.066	80.005	20.009	100.318	20.035	-0.956	0.502
944.000	540.933	80.003	20.009	100.335	20.031	0.429	0.501
946.000	541.977	80.004	20.009	100.320	20.033	-0.253	0.489
948.000	542.967	80.005	20.010	100.328	20.032	0.085	0.526
950.000	543.816	80.006	20.010	100.323	20.028	1.229	0.457
952.000	544.957	80.004	20.009	100.321	20.031	0.306	0.435
954.000	545.789	80.004	20.010	100.323	20.032	-0.091	0.432
956.000	546.936	80.006	20.009	100.316	20.029	1.001	0.572
958.000	547.872	80.004	20.009	100.310	20.028	1.125	0.485
960.000	548.766	80.005	20.009	100.321	20.033	-0.306	0.416
962.000	549.762	80.004	20.009	100.316	20.033	-0.247	0.508
964.000	550.785	80.003	20.009	100.326	20.034	-0.507	0.611
966.000	551.755	80.005	20.009	100.315	20.028	1.105	0.478
968.000	552.763	80.004	20.009	100.312	20.030	0.540	0.517
970.000	553.841	80.006	20.010	100.320	20.033	-0.410	0.651
972.000	554.680	80.004	20.009	100.320	20.033	-0.247	0.411
974.000	555.654	80.005	20.009	100.330	20.033	-0.325	0.668
976.000	556.794	80.004	20.009	100.317	20.034	-0.533	0.566
978.000	557.735	80.005	20.009	100.324	20.032	0.098	0.541
980.000	558.704	80.006	20.009	100.324	20.024	2.587	0.511
982.000	559.656	80.005	20.010	100.315	20.032	-0.169	0.553
984.000	560.517	80.003	20.009	100.330	20.033	-0.429	0.446
986.000	561.710	80.006	20.009	100.322	20.034	-0.728	0.513
988.000	562.432	80.004	20.009	100.329	20.031	0.195	0.429
990.000	563.502	80.005	20.009	100.319	20.031	0.273	0.507
992.000	564.447	80.004	20.009	100.322	20.037	-1.573	0.626
994.000	565.347	80.003	20.009	100.320	20.038	-1.950	0.351
996.000	566.338	80.005	20.010	100.318	20.034	-0.481	0.552
998.000	567.313	80.003	20.009	100.330	20.021	3.413	0.496
1000.000	568.305	80.003	20.009	100.325	20.029	1.027	0.478
1002.000	569.434	80.006	20.009	100.335	20.023	2.789	0.722
1004.001	570.080	80.002	20.008	100.328	20.021	3.251	0.407
1006.000	571.357	80.005	20.009	100.316	20.026	1.710	0.570
1008.000	572.268	80.004	20.009	100.320	20.027	1.450	0.630
1010.000	573.254	80.003	20.008	100.302	20.028	1.092	0.432
1012.000	574.076	80.002	20.008	100.324	20.029	0.793	0.412
1014.000	574.819	80.002	20.008	100.314	20.027	1.612	0.352
1016.000	576.066	80.004	20.009	100.332	20.029	0.845	0.449
1018.000	576.931	80.003	20.009	100.330	20.030	0.728	0.499
1020.000	577.782	80.005	20.010	100.317	20.027	1.554	0.393
1022.000	578.999	80.004	20.010	100.332	20.029	0.826	0.549
1024.000	579.988	80.005	20.010	100.317	20.030	0.689	0.603
1026.000	581.004	80.006	20.010	100.332	20.029	1.053	0.525
1028.000	581.914	80.005	20.009	100.331	20.030	0.657	0.461
1030.000	582.878	80.005	20.010	100.324	20.029	0.923	0.446
1032.000	583.900	80.004	20.009	100.331	20.027	1.567	0.491
1034.000	584.957	80.004	20.009	100.318	20.027	1.372	0.570
1036.001	585.881	80.006	20.009	100.340	20.029	0.832	0.571
1038.000	586.883	80.003	20.009	100.337	20.027	1.457	0.534
1040.000	587.907	80.004	20.010	100.327	20.028	1.326	0.537
1042.000	588.893	80.006	20.009	100.319	20.026	1.795	0.476
1044.001	589.936	80.005	20.010	100.330	20.030	0.670	0.506
1046.000	590.922	80.005	20.009	100.337	20.030	0.455	0.549
1048.000	591.860	80.003	20.009	100.334	20.030	0.501	0.499
1050.000	592.852	80.003	20.009	100.350	20.026	1.710	0.550
1052.000	593.842	80.004	20.009	100.336	20.029	0.761	0.464
1054.000	594.811	80.002	20.009	100.346	20.024	2.322	0.494
1056.000	595.883	80.004	20.010	100.323	20.030	0.650	0.501
1058.000	596.892	80.005	20.009	100.337	20.026	1.684	0.535
1060.000	597.936	80.004	20.009	100.318	20.026	1.684	0.435
1062.001	599.005	80.004	20.009	100.328	20.028	1.287	0.585
1064.000	600.038	80.005	20.009	100.354	20.029	0.800	0.583
1066.000	600.958	80.004	20.009	100.358	20.030	0.520	0.513
1068.001	602.008	80.004	20.009	100.370	20.030	0.598	0.510
1070.001	603.039	80.004	20.009	100.323	20.026	1.775	0.463
1072.000	604.142	80.003	20.010	100.337	20.028	1.209	0.596
1074.000	605.166	80.003	20.010	100.335	20.025	2.009	0.574
1076.000	606.228	80.004	20.010	100.332	20.032	0.078	0.520
1078.000	607.240	80.003	20.009	100.337	20.033	-0.410	0.532
1080.000	608.267	80.004	20.010	100.324	20.034	-0.709	0.494
1082.000	609.293	80.005	20.009	100.345	20.031	0.377	0.498
1084.000	610.252	80.005	20.009	100.317	20.031	0.273	0.502
1086.000	611.304	80.003	20.009	100.334	20.032	0.065	0.529
1088.001	612.276	80.004	20.009	100.320	20.028	1.066	0.487
1090.000	613.322	80.005	20.009	100.354	20.033	-0.397	0.492
1092.000	614.304	80.005	20.009	100.318	20.033	-0.390	0.560
1094.000	615.326	80.004	20.009	100.337	20.030	0.611	0.513
1096.000	616.363	80.004	20.010	100.318	20.032	-0.072	0.572
1098.000	617.328	80.004	20.010	100.340	20.035	-0.943	0.463
1100.000	618.262	80.005	20.009	100.340	20.031	0.228	0.478
1102.000	619.229	80.005	20.009	100.345	20.032	0.098	0.442
1104.000	620.182	80.004	20.009	100.324	20.034	-0.494	0.505
1106.000	621.184	80.004	20.009	100.329	20.033	-0.280	0.515
1108.001	622.215	80.003	20.010	100.326	20.036	-1.365	0.465
1110.000	623.122	80.005	20.010	100.341	20.036	-1.112	0.469
1112.000	624.163	80.005	20.009	100.361	20.036	-1.255	0.525
1114.000	625.171	80.004	20.010	100.336	20.036	-1.300	0.483
1116.000	626.153	80.006	20.010	100.335	20.030	0.494	0.480
1118.001	627.157	80.004	20.009	100.331	20.031	0.202	0.546
1120.000	628.155	80.003	20.010	100.347	20.036	-1.216	0.479
1122.000	629.204	80.005	20.009	100.329	20.032	-0.052	0.549
1124.001	630.254	80.004	20.009	100.342	20.032	0.000	0.511
1126.001	631.187	80.004	20.009	100.344	20.034	-0.657	0.451
1128.001	632.068	80.005	20.009	100.326	20.034	-0.514	0.406
1130.000	633.212	80.004	20.010	100.332	20.032	-0.020	0.586
1132.000	634.156	80.003	20.010	100.328	20.034	-0.767	0.460
1134.000	635.147	80.005	20.010	100.325	20.028	1.105	0.529
1136.000	636.220	80.004	20.010	100.340	20.031	0.429	0.566
1138.000	637.187	80.003	20.010	100.336	20.030	0.598	0.539
1140.000	638.146	80.004	20.010	100.324	20.031	0.176	0.480
1142.000	639.233	80.004	20.010	100.326	20.030	0.657	0.562
1144.000	640.213	80.003	20.010	100.334	20.030	0.650	0.500
1146.000	641.216	80.004	20.010	100.331	20.031	0.423	0.518
1148.000	642.220	80.004	20.010	100.325	20.029	0.923	0.496
1150.001	643.188	80.005	20.010	100.343	20.031	0.429	0.448
1152.000	644.161	80.004	20.010	100.349	20.031	0.208	0.493
1154.000	645.149	80.006	20.010	100.356	20.030	0.592	0.479
1156.001	646.137	80.005	20.010	100.348	20.030	0.592	0.501
1158.000	647.082	80.004	20.010	100.341	20.028	1.105	0.459
1160.000	648.097	80.004	20.010	100.345	20.031	0.377	0.453
1162.001	649.067	80.005	20.010	100.345	20.032	-0.078	0.480
1164.000	650.019	80.005	20.010	100.358	20.028	1.294	0.464
1166.000	651.008	80.005	20.010	100.363	20.026	1.911	0.501
1168.001	651.986	80.004	20.010	100.349	20.025	2.230	0.525
1170.000	652.976	80.004	20.010	100.359	20.027	1.366	0.508
1172.000	654.013	80.005	20.009	100.345	20.023	2.665	0.539
1174.000	655.040	80.004	20.010	100.359	20.026	1.704	0.445
1176.001	655.992	80.004	20.010	100.359	20.030	0.462	0.449
1178.000	657.018	80.004	20.010	100.336	20.026	1.723	0.497
1180.000	658.055	80.005	20.010	100.336	20.026	1.964	0.555
1182.000	659.021	80.004	20.010	100.341	20.024	2.451	0.515
1184.000	660.029	80.004	20.010	100.330	20.024	2.289	0.513
1186.000	661.095	80.005	20.010	100.326	20.024	2.439	0.549
1188.000	662.053	80.004	20.010	100.333	20.027	1.405	0.475
1190.000	663.135	80.005	20.010	100.350	20.029	0.826	0.525
1192.000	664.235	80.004	20.010	100.347	20.031	0.247	0.509
1194.000	665.263	80.004	20.010	100.346	20.031	0.345	0.538
1196.001	666.245	80.004	20.010	100.339	20.031	0.169	0.514
1198.000	667.273	80.004	20.010	100.362	20.029	0.930	0.520
1200.000	668.293	80.005	20.010	100.353	20.028	1.138	0.490
1202.000	669.347	80.005	20.010	100.357	20.027	1.365	0.535
1204.000	670.368	80.004	20.010	100.345	20.029	0.884	0.510
1206.001	671.306	80.003	20.010	100.339	20.025	2.218	0.523
1208.001	672.374	80.004	20.009	100.359	20.028	1.340	0.479
1210.001	673.416	80.004	20.010	100.347	20.024	2.335	0.502
1212.000	674.445	80.004	20.010	100.351	20.025	2.172	0.530
1214.000	675.358	80.005	20.009	100.321	20.023	2.849	0.463
1216.000	676.407	80.004	20.010	100.335	20.028	1.268	0.479
1218.000	677.400	80.005	20.010	100.341	20.026	1.684	0.505
1220.001	678.338	80.006	20.010	100.364	20.024	2.381	0.437
1222.000	679.146	80.005	20.009	100.361	20.024	2.426	0.460
1224.001	680.230	80.006	20.010	100.351	20.031	0.403	0.509
1226.000	681.139	80.004	20.009	100.371	20.024	2.439	0.437
1228.000	682.199	80.005	20.009	100.349	20.025	2.009	0.499
1230.001	683.089	80.006	20.010	100.367	20.026	1.938	0.472
1232.000	684.160	80.005	20.009	100.364	20.030	0.598	0.473
1234.000	685.070	80.003	20.010	100.356	20.030	0.559	0.478
1236.000	686.014	80.003	20.009	100.373	20.033	-0.397	0.513
1238.001	687.004	80.006	20.010	100.359	20.034	-0.650	0.385
1240.000	688.178	80.006	20.010	100.363	20.034	-0.540	0.353
1242.001	689.158	80.005	20.010	100.338	20.030	0.559	0.725
1244.000	690.033	80.004	20.010	100.355	20.027	1.619	0.490
1246.000	691.022	80.006	20.009	100.353	20.029	1.034	0.427
1248.000	692.021	80.005	20.010	100.353	20.032	-0.137	0.558
1250.001	693.006	80.004	20.009	100.349	20.030	0.520	0.471
1252.000	694.062	80.006	20.010	100.349	20.026	1.782	0.543
1254.000	695.002	80.005	20.009	100.361	20.027	1.646	0.463
1256.000	696.150	80.005	20.010	100.348	20.028	1.210	0.560
1258.000	697.081	80.005	20.010	100.367	20.034	-0.546	0.452
1260.001	698.014	80.006	20.010	100.360	20.030	0.449	0.392
1262.000	699.051	80.005	20.010	100.383	20.028	1.197	0.533
1264.000	700.078	80.003	20.009	100.374	20.025	2.075	0.472
1266.001	701.145	80.004	20.009	100.366	20.026	1.743	0.559
1268.000	702.142	80.005	20.010	100.383	20.028	1.093	0.545
1270.000	703.081	80.004	20.010	100.374	20.031	0.176	0.420
1272.000	704.118	80.005	20.010	100.401	20.026	1.873	0.510
1274.000	705.352	80.005	20.009	100.392	20.028	1.223	0.651
1276.000	706.171	80.003	20.009	100.382	20.027	1.619	0.556
1278.000	707.133	80.004	20.009	100.361	20.026	1.802	0.504
1280.001	708.308	80.007	20.010	100.366	20.029	0.904	0.483
1282.000	709.305	80.004	20.009	100.361	20.024	2.465	0.561
1284.000	710.385	80.005	20.009	100.353	20.027	1.424	0.432
1286.001	711.493	80.004	20.010	100.366	20.029	1.002	0.620
1288.001	712.406	80.005	20.010	100.351	20.029	0.891	0.531
1290.001	713.555	80.005	20.010	100.370	20.025	2.081	0.562
1292.001	714.522	80.005	20.010	100.346	20.022	3.154	0.478
1294.000	715.431	80.004	20.009	100.369	20.023	2.797	0.491
1296.000	716.598	80.003	20.010	100.343	20.023	2.810	0.677
1298.001	717.506	80.004	20.010	100.367	20.025	2.173	0.388
1300.001	718.637	80.005	20.009	100.360	20.019	3.883	0.448
1302.000	719.422	80.004	20.009	100.373	20.020	3.772	0.508
1304.000	720.497	80.003	20.009	100.354	20.025	2.185	0.301
1306.001	721.501	80.006	20.010	100.359	20.019	3.994	0.527
1308.000	722.340	80.003	20.009	100.380	20.021	3.290	0.368
1310.000	723.612	80.004	20.010	100.358	20.020	3.669	0.614
1312.001	724.561	80.004	20.010	100.388	20.023	2.732	0.506
1314.000	725.680	80.006	20.010	100.347	20.021	3.331	0.525
1316.000	726.618	80.005	20.010	100.355	20.025	1.990	0.486
1318.000	727.504	80.004	20.009	100.356	20.023	2.868	0.512
1320.000	728.672	80.005	20.010	100.357	20.030	0.722	0.472
1322.000	729.599	80.004	20.010	100.357	20.024	2.283	0.531
1324.000	730.748	80.004	20.010	100.363	20.025	2.094	0.437
1326.000	731.721	80.004	20.010	100.378	20.023	2.621	0.485
1328.000	732.894	80.006	20.010	100.373	20.019	4.000	0.637
1330.000	733.806	80.004	20.011	100.375	20.020	3.513	0.414
1332.000	734.818	80.004	20.010	100.349	20.018	4.418	0.523
1334.001	735.854	80.003	20.010	100.351	20.017	4.723	0.419
1336.000	737.018	80.004	20.010	100.344	20.016	4.853	0.559
1338.001	737.941	80.004	20.010	100.375	20.022	3.174	0.359
1340.000	738.977	80.003	20.009	100.362	20.027	1.528	0.502
1342.000	740.105	80.005	20.010	100.375	20.019	4.079	0.571
1344.000	740.978	80.005	20.010	100.388	20.020	3.532	0.480
1346.000	741.928	80.005	20.010	100.382	20.019	4.065	0.470
1347.501	742.757	80.004	20.010	100.379	20.018	4.196	0.608