File: Experiments/TGA/TUBS/mcc/mcc_piece_1mg_dyn30_r1.txt
Sample Weight (mg):	0.99
Heating Rate (C/s):	0.5
Combustor Temp (C):	900
N2 Flow Rate (cc/min):	80
O2 Flow Rate (cc/min):	20
Time (s)	Temperature (C)	N2 flow rate (cc/min)	O2 flow rate (cc/min)	Flow Rate (cc/min)	Oxygen (%)	HRR (W/g)	Heating rate (C/s)
0.000	84.597	80.000	20.008	100.151	20.096	-0.400	0.007
2.000	84.556	80.001	20.008	100.123	20.097	-0.794	-0.022
4.000	84.574	80.000	20.008	100.168	20.096	-0.420	0.006
6.000	84.504	80.000	20.008	100.173	20.095	-0.200	0.003
8.000	84.533	80.000	20.008	100.221	20.099	-1.310	-0.039
10.000	84.478	80.000	20.008	100.220	20.096	-0.487	-0.024
12.001	84.542	80.000	20.008	100.198	20.101	-1.982	0.016
14.000	84.529	79.997	20.008	100.175	20.097	-0.801	-0.007
16.000	84.611	79.999	20.008	100.117	20.096	-0.500	0.062
18.000	84.602	79.999	20.014	100.064	20.098	-1.008	0.025
20.000	84.646	80.000	20.008	100.266	20.099	-1.388	0.043
22.000	84.748	80.001	20.008	100.241	20.097	-0.714	0.026
24.000	84.807	80.000	20.008	100.210	20.099	-1.528	0.026
26.000	84.900	80.001	20.007	100.219	20.099	-1.389	0.063
28.000	85.050	80.000	20.008	100.204	20.101	-2.016	0.077
30.000	85.166	80.000	20.009	100.190	20.099	-1.236	0.032
32.000	85.288	80.001	20.010	100.200	20.095	-0.160	0.067
34.000	85.419	80.001	20.008	100.143	20.093	0.521	0.062
36.000	85.500	80.001	20.008	100.153	20.092	0.975	0.059
38.000	85.640	80.001	20.008	100.220	20.087	2.318	0.059
40.000	85.858	80.000	20.009	100.247	20.082	4.048	0.083
42.001	86.033	80.000	20.008	100.281	20.077	5.699	0.105
44.000	86.204	80.000	20.009	100.284	20.074	6.555	0.117
46.000	86.482	80.002	20.008	100.300	20.075	6.128	0.133
48.001	86.704	80.000	20.008	100.309	20.074	6.513	0.143
50.001	86.981	80.001	20.008	100.275	20.071	7.548	0.155
52.000	87.319	80.000	20.008	100.302	20.068	8.369	0.152
54.000	87.590	80.002	20.008	100.296	20.066	8.978	0.156
56.000	87.959	80.001	20.008	100.335	20.063	9.886	0.167
58.000	88.283	80.001	20.008	100.330	20.061	10.685	0.171
60.001	88.693	80.003	20.008	100.376	20.057	11.922	0.199
62.000	89.101	80.002	20.008	100.392	20.053	13.172	0.205
64.000	89.550	80.002	20.008	100.422	20.047	15.103	0.204
66.000	90.047	80.001	20.008	100.458	20.045	15.757	0.222
68.000	90.516	80.001	20.009	100.436	20.042	16.589	0.233
70.000	91.070	80.001	20.008	100.452	20.042	16.787	0.249
72.000	91.692	80.002	20.008	100.451	20.041	17.017	0.298
74.000	92.387	80.001	20.008	100.483	20.039	17.645	0.329
76.001	92.946	80.003	20.008	100.496	20.039	17.532	0.330
78.000	93.675	80.001	20.008	100.485	20.037	18.149	0.350
80.001	94.370	80.000	20.008	100.509	20.036	18.434	0.339
82.000	95.135	80.002	20.009	100.474	20.033	19.435	0.391
84.000	95.887	80.001	20.008	100.527	20.038	17.797	0.407
86.000	96.716	80.001	20.008	100.501	20.036	18.650	0.435
88.000	97.565	80.001	20.008	100.521	20.036	18.422	0.427
90.001	98.437	80.002	20.009	100.487	20.034	19.197	0.416
92.001	99.316	80.001	20.008	100.501	20.034	19.353	0.401
94.000	100.217	80.001	20.008	100.490	20.035	18.964	0.419
96.000	101.123	80.001	20.008	100.503	20.032	19.672	0.460
98.001	102.050	80.001	20.008	100.484	20.034	19.260	0.426
100.000	103.103	80.001	20.008	100.500	20.034	19.096	0.540
102.000	104.095	80.001	20.008	100.502	20.034	19.116	0.538
104.000	105.107	80.001	20.008	100.480	20.035	18.834	0.534
106.000	106.154	80.001	20.008	100.527	20.035	18.979	0.574
108.000	107.184	80.002	20.008	100.500	20.039	17.498	0.477
110.000	108.294	80.002	20.009	100.505	20.039	17.557	0.557
112.000	109.419	80.002	20.008	100.481	20.040	17.181	0.557
114.000	110.538	80.001	20.008	100.511	20.043	16.233	0.552
116.000	111.687	80.001	20.008	100.491	20.044	15.938	0.526
118.001	112.894	80.000	20.008	100.502	20.043	16.249	0.617
120.000	114.032	80.002	20.008	100.466	20.043	16.294	0.585
122.000	115.231	80.002	20.008	100.487	20.043	16.447	0.625
124.000	116.465	80.001	20.008	100.452	20.045	15.584	0.677
126.001	117.647	80.002	20.008	100.477	20.044	16.027	0.629
128.000	118.802	80.001	20.008	100.443	20.041	16.834	0.562
130.000	120.076	80.001	20.009	100.438	20.049	14.316	0.632
132.000	121.277	80.002	20.008	100.438	20.051	13.876	0.572
134.000	122.529	80.001	20.008	100.459	20.050	14.101	0.620
136.000	123.790	80.001	20.009	100.458	20.050	14.224	0.643
138.000	124.961	80.000	20.008	100.426	20.053	13.278	0.647
140.000	126.220	80.001	20.008	100.449	20.052	13.374	0.604
142.000	127.451	80.001	20.008	100.403	20.055	12.673	0.599
144.000	128.663	80.002	20.008	100.421	20.056	12.347	0.602
146.000	129.935	80.001	20.008	100.394	20.057	11.737	0.650
148.000	131.221	80.004	20.008	100.409	20.057	11.878	0.614
150.000	132.465	80.002	20.008	100.401	20.058	11.438	0.650
152.000	133.705	80.001	20.008	100.399	20.058	11.624	0.647
154.000	135.016	80.001	20.008	100.390	20.061	10.530	0.633
156.000	136.242	79.999	20.008	100.360	20.063	10.051	0.615
158.000	137.512	80.000	20.008	100.381	20.065	9.305	0.639
160.000	138.701	80.002	20.008	100.356	20.067	8.708	0.593
162.000	139.991	80.002	20.008	100.385	20.064	9.686	0.622
164.000	141.218	80.001	20.008	100.359	20.067	8.673	0.642
166.000	142.410	80.002	20.008	100.391	20.069	8.112	0.628
168.000	143.610	80.001	20.008	100.358	20.070	7.738	0.601
170.000	144.832	80.001	20.009	100.362	20.069	8.174	0.619
172.000	146.063	80.001	20.009	100.361	20.069	8.047	0.620
174.000	147.257	80.001	20.009	100.347	20.070	7.764	0.585
176.000	148.359	80.001	20.009	100.365	20.072	7.191	0.546
178.000	149.545	80.002	20.009	100.320	20.073	6.929	0.595
180.000	150.709	80.001	20.008	100.344	20.072	7.003	0.548
182.000	151.910	80.001	20.008	100.332	20.071	7.315	0.614
184.000	153.072	80.001	20.009	100.371	20.076	5.781	0.589
186.000	154.165	80.001	20.009	100.334	20.077	5.692	0.545
188.000	155.383	80.002	20.008	100.356	20.078	5.272	0.605
190.000	156.491	80.001	20.009	100.333	20.076	5.966	0.599
192.000	157.692	80.001	20.009	100.338	20.077	5.432	0.553
194.000	158.771	80.003	20.008	100.317	20.075	6.240	0.581
196.000	159.920	80.001	20.008	100.334	20.077	5.600	0.572
198.000	161.007	80.002	20.008	100.339	20.079	5.058	0.510
200.000	162.200	80.001	20.009	100.324	20.080	4.490	0.601
202.000	163.345	80.001	20.008	100.331	20.078	5.353	0.591
204.000	164.416	80.002	20.009	100.311	20.078	5.184	0.555
206.001	165.519	80.002	20.009	100.335	20.078	5.291	0.555
208.000	166.501	80.003	20.008	100.321	20.078	5.290	0.445
210.000	167.788	80.000	20.010	100.344	20.078	5.264	0.611
212.000	168.783	80.001	20.009	100.319	20.078	5.397	0.616
214.000	169.760	80.001	20.009	100.343	20.079	5.037	0.550
216.000	170.850	80.001	20.008	100.324	20.075	6.078	0.564
218.000	171.877	80.000	20.009	100.312	20.078	5.378	0.483
220.000	172.990	80.002	20.008	100.307	20.078	5.256	0.545
222.001	174.053	80.002	20.009	100.309	20.076	5.918	0.546
224.000	175.069	80.001	20.009	100.297	20.078	5.156	0.500
226.000	176.119	80.002	20.009	100.303	20.078	5.370	0.517
228.000	177.188	80.002	20.008	100.300	20.075	6.038	0.528
230.000	178.237	80.001	20.008	100.297	20.074	6.505	0.532
232.000	179.292	80.001	20.009	100.308	20.076	5.912	0.570
234.001	180.288	80.002	20.008	100.275	20.076	5.872	0.513
236.000	181.340	80.003	20.009	100.307	20.075	6.059	0.554
238.000	182.383	80.002	20.009	100.279	20.076	5.825	0.519
240.000	183.370	80.001	20.009	100.299	20.078	5.291	0.489
242.000	184.430	80.000	20.009	100.285	20.076	6.006	0.514
244.000	185.444	80.000	20.009	100.304	20.079	5.058	0.510
246.000	186.460	80.001	20.009	100.294	20.075	6.311	0.498
248.000	187.475	80.001	20.009	100.310	20.076	5.818	0.485
250.000	188.443	80.001	20.009	100.298	20.076	5.958	0.486
252.000	189.440	80.002	20.008	100.311	20.074	6.419	0.474
254.000	190.514	80.001	20.008	100.309	20.077	5.591	0.502
256.000	191.496	80.002	20.008	100.322	20.077	5.511	0.457
258.000	192.522	80.001	20.009	100.309	20.079	5.090	0.498
260.000	193.538	80.001	20.009	100.273	20.078	5.162	0.493
262.000	194.524	80.002	20.008	100.304	20.079	4.950	0.498
264.000	195.537	80.000	20.009	100.285	20.078	5.177	0.528
266.000	196.519	80.002	20.009	100.314	20.077	5.518	0.497
268.000	197.505	80.002	20.008	100.288	20.079	5.009	0.524
270.000	198.518	80.001	20.008	100.305	20.078	5.190	0.517
272.000	199.531	80.001	20.009	100.277	20.078	5.150	0.501
274.000	200.560	80.000	20.008	100.297	20.080	4.509	0.557
276.001	201.515	80.002	20.008	100.297	20.080	4.468	0.500
278.000	202.520	80.002	20.008	100.298	20.083	3.627	0.499
280.000	203.547	80.002	20.009	100.285	20.079	4.896	0.495
282.000	204.542	80.001	20.009	100.291	20.078	5.298	0.519
284.000	205.540	80.001	20.009	100.298	20.081	4.315	0.496
286.000	206.559	80.001	20.008	100.304	20.081	4.181	0.505
288.000	207.577	80.002	20.009	100.302	20.081	4.281	0.501
290.000	208.594	80.002	20.008	100.283	20.081	4.375	0.514
292.000	209.598	80.001	20.008	100.301	20.080	4.522	0.509
294.001	210.583	80.003	20.008	100.307	20.081	4.261	0.494
296.000	211.539	80.000	20.008	100.321	20.077	5.503	0.471
298.000	212.549	80.001	20.008	100.294	20.078	5.149	0.474
300.000	213.593	80.002	20.008	100.288	20.080	4.615	0.506
302.000	214.653	80.002	20.008	100.273	20.081	4.274	0.519
304.000	215.637	80.003	20.008	100.298	20.081	4.234	0.529
306.000	216.669	80.001	20.008	100.275	20.081	4.381	0.502
308.000	217.660	80.002	20.008	100.293	20.078	5.149	0.508
310.000	218.706	80.001	20.009	100.268	20.082	4.006	0.545
312.000	219.673	80.002	20.008	100.291	20.080	4.548	0.488
314.000	220.703	80.001	20.009	100.269	20.081	4.340	0.546
316.000	221.739	80.002	20.008	100.287	20.082	4.100	0.553
318.000	222.732	80.001	20.008	100.271	20.079	4.841	0.488
320.000	223.760	80.001	20.008	100.277	20.080	4.728	0.508
322.000	224.805	80.002	20.009	100.254	20.082	4.107	0.511
324.000	225.828	80.002	20.008	100.273	20.079	5.017	0.514
326.000	226.871	80.001	20.008	100.266	20.083	3.814	0.520
328.000	227.871	80.003	20.008	100.275	20.081	4.388	0.512
330.000	228.909	80.002	20.008	100.265	20.081	4.328	0.505
332.000	229.912	80.001	20.007	100.279	20.080	4.642	0.522
334.000	230.899	80.001	20.008	100.273	20.083	3.693	0.520
336.000	231.991	80.002	20.008	100.302	20.082	3.847	0.520
338.000	232.940	80.003	20.008	100.297	20.085	3.173	0.502
340.000	233.943	80.003	20.008	100.306	20.084	3.206	0.511
342.000	234.991	80.001	20.008	100.291	20.085	3.093	0.504
344.000	235.991	80.002	20.008	100.299	20.086	2.765	0.481
346.000	236.976	80.003	20.008	100.280	20.086	2.725	0.531
348.000	238.019	80.002	20.008	100.294	20.083	3.813	0.509
350.000	239.040	80.001	20.008	100.280	20.086	2.852	0.518
352.000	240.088	80.002	20.008	100.306	20.087	2.437	0.536
354.000	241.104	80.002	20.008	100.298	20.086	2.812	0.531
356.000	242.128	80.002	20.008	100.288	20.087	2.324	0.544
358.000	243.163	80.001	20.008	100.271	20.086	2.651	0.494
360.000	244.216	80.002	20.008	100.289	20.086	2.611	0.502
362.000	245.215	80.000	20.008	100.273	20.080	4.575	0.523
364.000	246.229	80.002	20.008	100.289	20.087	2.364	0.484
366.000	247.215	80.002	20.008	100.272	20.082	3.961	0.469
368.000	248.280	80.002	20.008	100.293	20.082	3.826	0.521
370.000	249.252	80.001	20.008	100.264	20.083	3.673	0.491
372.000	250.337	80.002	20.008	100.281	20.082	4.061	0.504
374.000	251.295	80.002	20.008	100.251	20.081	4.247	0.493
376.000	252.324	80.002	20.008	100.294	20.082	3.847	0.495
378.000	253.256	80.002	20.009	100.275	20.081	4.427	0.475
380.000	254.366	80.003	20.009	100.288	20.082	4.134	0.546
382.000	255.311	80.001	20.008	100.262	20.083	3.512	0.489
384.000	256.300	80.001	20.009	100.287	20.083	3.707	0.504
386.000	257.337	80.001	20.009	100.265	20.081	4.321	0.534
388.000	258.313	80.002	20.008	100.287	20.082	3.927	0.534
390.000	259.320	80.002	20.009	100.254	20.082	4.093	0.493
392.000	260.337	80.001	20.008	100.281	20.083	3.653	0.547
394.000	261.315	80.003	20.008	100.250	20.082	4.079	0.482
396.000	262.332	80.000	20.008	100.279	20.080	4.527	0.484
398.001	263.329	80.002	20.008	100.274	20.080	4.494	0.518
400.000	264.311	80.001	20.008	100.288	20.079	5.001	0.507
402.000	265.282	80.001	20.008	100.271	20.078	5.315	0.492
404.000	266.301	80.001	20.008	100.273	20.077	5.689	0.522
406.000	267.301	80.002	20.008	100.254	20.078	5.155	0.511
408.000	268.334	80.001	20.008	100.264	20.078	5.175	0.516
410.000	269.287	80.003	20.008	100.250	20.075	6.122	0.509
412.001	270.276	80.001	20.008	100.267	20.076	5.902	0.498
414.000	271.310	80.001	20.008	100.240	20.078	5.108	0.504
416.000	272.298	80.001	20.008	100.269	20.077	5.576	0.497
418.000	273.278	80.001	20.008	100.242	20.076	5.816	0.485
420.000	274.232	80.001	20.008	100.278	20.073	6.838	0.484
422.000	275.258	80.001	20.008	100.240	20.074	6.384	0.534
424.000	276.296	80.002	20.010	100.258	20.076	5.984	0.496
426.000	277.278	80.002	20.009	100.244	20.076	5.950	0.503
428.000	278.312	80.002	20.009	100.278	20.073	6.839	0.504
430.000	279.325	80.001	20.009	100.256	20.072	7.004	0.520
432.000	280.261	80.001	20.009	100.271	20.071	7.379	0.509
434.000	281.297	80.002	20.009	100.260	20.070	7.838	0.498
436.000	282.288	80.001	20.009	100.285	20.070	7.732	0.493
438.000	283.292	80.001	20.009	100.266	20.068	8.271	0.508
440.000	284.295	80.000	20.010	100.284	20.070	7.912	0.524
442.000	285.317	80.001	20.009	100.259	20.064	9.633	0.515
444.000	286.318	80.001	20.009	100.269	20.061	10.683	0.522
446.000	287.282	80.000	20.009	100.244	20.063	10.129	0.508
448.000	288.282	80.000	20.010	100.263	20.063	9.937	0.477
450.000	289.298	80.001	20.009	100.242	20.063	9.982	0.510
452.000	290.344	80.001	20.009	100.251	20.065	9.233	0.507
454.000	291.346	80.000	20.010	100.241	20.059	11.222	0.538
456.000	292.356	80.001	20.009	100.253	20.059	11.338	0.531
458.000	293.329	80.002	20.009	100.255	20.059	11.096	0.490
460.000	294.361	80.002	20.009	100.282	20.060	11.083	0.518
462.000	295.345	80.001	20.009	100.257	20.057	11.859	0.531
464.000	296.366	80.001	20.010	100.259	20.058	11.485	0.495
466.000	297.386	80.002	20.010	100.236	20.055	12.406	0.499
468.000	298.472	80.001	20.009	100.259	20.057	11.991	0.535
470.000	299.438	80.002	20.009	100.250	20.057	11.786	0.487
472.000	300.446	80.001	20.010	100.259	20.056	12.164	0.517
474.000	301.443	79.999	20.010	100.242	20.054	12.806	0.531
476.000	302.448	80.002	20.009	100.272	20.058	11.575	0.488
478.000	303.392	80.001	20.009	100.259	20.055	12.592	0.466
480.000	304.407	80.000	20.010	100.254	20.050	14.152	0.521
482.000	305.382	80.001	20.009	100.251	20.053	13.213	0.486
484.000	306.448	80.000	20.008	100.260	20.050	13.974	0.528
486.000	307.463	80.001	20.009	100.245	20.050	13.954	0.502
488.000	308.471	80.002	20.008	100.240	20.049	14.328	0.519
490.000	309.390	80.002	20.008	100.242	20.046	15.252	0.534
492.000	310.464	80.001	20.009	100.242	20.047	15.176	0.550
494.000	311.452	80.002	20.008	100.243	20.048	14.876	0.509
496.000	312.427	80.001	20.009	100.244	20.044	15.881	0.493
498.000	313.408	80.002	20.009	100.264	20.042	16.514	0.473
500.000	314.357	80.002	20.009	100.240	20.037	18.282	0.479
502.000	315.392	80.001	20.008	100.279	20.032	19.629	0.488
504.000	316.364	80.000	20.008	100.253	20.031	20.182	0.487
506.000	317.344	80.002	20.008	100.260	20.029	20.713	0.487
508.000	318.373	80.002	20.009	100.257	20.024	22.293	0.492
510.000	319.362	80.002	20.009	100.286	20.017	24.619	0.493
512.000	320.327	80.000	20.008	100.259	20.018	24.193	0.475
514.000	321.360	80.000	20.008	100.252	20.008	27.484	0.475
516.001	322.355	80.002	20.008	100.271	20.001	29.707	0.497
518.000	323.375	80.002	20.009	100.272	19.991	32.588	0.523
520.000	324.375	80.001	20.008	100.276	19.981	35.779	0.504
522.000	325.345	80.001	20.009	100.270	19.976	37.475	0.506
524.000	326.329	80.001	20.009	100.257	19.973	38.342	0.492
526.000	327.316	80.001	20.009	100.226	19.963	41.433	0.476
528.000	328.424	80.001	20.009	100.249	19.955	44.140	0.552
530.000	329.321	80.001	20.009	100.236	19.946	46.857	0.501
532.000	330.397	80.000	20.008	100.264	19.939	49.060	0.541
534.000	331.423	80.002	20.009	100.249	19.930	52.012	0.535
536.000	332.344	80.001	20.008	100.278	19.920	55.161	0.479
538.000	333.324	80.000	20.009	100.251	19.906	59.435	0.468
540.000	334.395	80.002	20.009	100.272	19.893	63.774	0.514
542.000	335.340	80.002	20.009	100.266	19.878	68.488	0.497
544.000	336.319	80.001	20.009	100.291	19.860	74.050	0.451
546.000	337.359	80.002	20.009	100.238	19.844	79.134	0.506
548.000	338.320	80.001	20.009	100.266	19.828	84.186	0.469
550.000	339.353	80.001	20.009	100.246	19.812	89.308	0.511
552.000	340.339	80.001	20.009	100.267	19.792	95.621	0.497
554.000	341.340	80.002	20.009	100.255	19.773	101.677	0.491
556.000	342.313	80.002	20.009	100.293	19.752	108.317	0.515
558.000	343.284	80.002	20.009	100.259	19.736	113.403	0.447
560.000	344.258	80.001	20.010	100.259	19.714	120.161	0.484
562.000	345.275	80.002	20.010	100.258	19.689	128.111	0.480
564.001	346.278	80.002	20.009	100.274	19.665	135.704	0.486
566.000	347.254	80.002	20.009	100.287	19.642	143.101	0.499
568.000	348.263	80.001	20.010	100.299	19.628	147.539	0.531
570.000	349.265	80.001	20.008	100.264	19.614	151.899	0.480
572.001	350.251	80.001	20.008	100.241	19.598	156.879	0.494
574.000	351.317	80.002	20.009	100.254	19.585	160.989	0.507
576.000	352.305	80.002	20.009	100.243	19.574	164.708	0.495
578.000	353.303	80.000	20.008	100.273	19.559	169.331	0.514
580.000	354.260	80.002	20.009	100.262	19.543	174.140	0.491
582.000	355.289	80.001	20.009	100.282	19.535	176.706	0.516
584.001	356.274	80.001	20.008	100.280	19.516	182.867	0.479
586.000	357.319	80.002	20.009	100.293	19.494	189.841	0.497
588.000	358.314	80.001	20.009	100.310	19.481	193.899	0.507
590.000	359.343	80.002	20.010	100.282	19.477	195.374	0.528
592.000	360.391	80.001	20.009	100.263	19.468	198.146	0.503
594.000	361.395	80.000	20.009	100.258	19.459	200.943	0.509
596.000	362.400	80.002	20.009	100.269	19.445	205.160	0.491
598.000	363.455	80.001	20.010	100.271	19.436	208.300	0.549
600.000	364.427	80.001	20.009	100.307	19.426	211.267	0.516
602.000	365.430	80.001	20.009	100.301	19.425	211.792	0.497
604.000	366.446	80.001	20.010	100.295	19.428	210.685	0.504
606.000	367.478	80.002	20.009	100.252	19.428	210.815	0.480
608.000	368.491	80.002	20.009	100.280	19.431	209.854	0.489
610.000	369.504	80.002	20.010	100.272	19.433	209.023	0.493
612.000	370.492	80.001	20.010	100.296	19.434	208.989	0.513
614.000	371.519	80.001	20.009	100.301	19.438	207.502	0.518
616.000	372.506	80.002	20.009	100.326	19.444	205.508	0.484
618.000	373.546	80.001	20.008	100.292	19.446	204.720	0.505
620.000	374.572	80.002	20.010	100.287	19.450	203.680	0.527
622.000	375.560	80.001	20.009	100.273	19.440	206.818	0.481
624.000	376.511	80.002	20.009	100.324	19.438	207.470	0.478
626.000	377.481	80.001	20.009	100.329	19.449	204.224	0.496
628.000	378.417	80.001	20.009	100.298	19.469	197.634	0.486
630.000	379.444	80.001	20.009	100.237	19.493	190.300	0.502
632.000	380.428	80.001	20.010	100.212	19.523	180.731	0.508
634.000	381.383	80.001	20.008	100.212	19.555	170.428	0.489
636.000	382.398	80.003	20.010	100.250	19.583	161.597	0.495
638.000	383.370	80.001	20.009	100.293	19.607	154.092	0.488
640.000	384.395	80.002	20.008	100.312	19.632	146.357	0.495
642.001	385.441	80.002	20.008	100.288	19.660	137.485	0.525
644.000	386.439	80.002	20.009	100.272	19.679	131.419	0.505
646.001	387.442	80.002	20.009	100.296	19.698	125.274	0.519
648.000	388.464	80.001	20.009	100.278	19.714	120.365	0.494
650.000	389.504	80.001	20.009	100.310	19.730	115.361	0.492
652.000	390.524	80.001	20.008	100.304	19.748	109.442	0.519
654.000	391.549	80.002	20.009	100.292	19.759	105.948	0.535
656.001	392.521	80.001	20.008	100.265	19.777	100.448	0.481
658.000	393.563	80.001	20.008	100.259	19.794	95.118	0.522
660.000	394.580	80.001	20.009	100.259	19.810	89.799	0.507
662.000	395.579	80.001	20.008	100.271	19.827	84.445	0.504
664.000	396.558	80.001	20.008	100.286	19.841	80.233	0.502
666.000	397.553	80.002	20.009	100.276	19.862	73.591	0.487
668.000	398.608	80.001	20.009	100.288	19.878	68.532	0.527
670.000	399.549	80.001	20.009	100.259	19.891	64.212	0.488
672.001	400.540	80.002	20.008	100.265	19.906	59.487	0.471
674.000	401.633	80.003	20.009	100.246	19.920	55.186	0.529
676.001	402.615	80.001	20.009	100.266	19.936	50.221	0.510
678.000	403.574	80.002	20.009	100.240	19.948	46.277	0.478
680.000	404.489	80.003	20.009	100.248	19.957	43.596	0.474
682.001	405.491	80.001	20.008	100.234	19.969	39.737	0.486
684.000	406.475	80.001	20.008	100.261	19.976	37.472	0.497
686.000	407.489	80.000	20.008	100.235	19.992	32.451	0.486
688.000	408.440	80.001	20.009	100.263	19.998	30.574	0.493
690.000	409.456	80.001	20.008	100.235	20.009	27.024	0.509
692.000	410.454	80.001	20.008	100.254	20.017	24.633	0.477
694.000	411.409	80.001	20.009	100.229	20.024	22.215	0.503
696.000	412.368	80.001	20.009	100.234	20.034	19.290	0.480
698.000	413.322	80.001	20.009	100.210	20.035	18.960	0.500
700.000	414.248	80.002	20.008	100.239	20.042	16.478	0.468
702.001	415.196	80.002	20.008	100.229	20.049	14.530	0.508
704.000	416.130	80.002	20.009	100.252	20.054	12.733	0.458
706.000	417.124	80.000	20.009	100.225	20.058	11.428	0.487
708.000	418.101	80.001	20.009	100.230	20.064	9.806	0.494
710.000	419.099	80.000	20.009	100.231	20.067	8.592	0.503
712.000	420.055	80.000	20.009	100.240	20.068	8.464	0.448
714.000	421.008	80.001	20.010	100.207	20.069	8.131	0.463
716.000	422.021	80.002	20.008	100.214	20.071	7.435	0.501
718.000	422.982	80.001	20.009	100.213	20.075	6.269	0.471
720.000	424.003	80.003	20.008	100.230	20.083	3.717	0.464
722.001	424.945	80.001	20.009	100.241	20.083	3.618	0.461
724.000	425.955	80.000	20.009	100.233	20.081	4.218	0.494
726.000	426.915	80.001	20.008	100.244	20.085	3.137	0.474
728.000	427.936	80.001	20.008	100.216	20.086	2.576	0.486
730.000	428.939	80.002	20.007	100.231	20.086	2.610	0.487
732.000	429.901	80.001	20.008	100.226	20.089	1.669	0.492
734.000	430.923	80.001	20.007	100.209	20.088	2.103	0.489
736.000	431.966	80.002	20.008	100.211	20.091	1.281	0.521
738.001	432.908	80.001	20.008	100.224	20.092	0.908	0.511
740.000	433.876	80.002	20.009	100.214	20.095	-0.087	0.461
742.000	434.892	80.001	20.008	100.210	20.097	-0.874	0.507
744.000	435.873	80.002	20.009	100.226	20.100	-1.548	0.480
746.000	436.883	80.001	20.008	100.225	20.101	-1.996	0.508
748.000	437.852	80.000	20.008	100.222	20.102	-2.449	0.493
750.000	438.850	80.002	20.008	100.209	20.101	-1.956	0.486
752.000	439.824	80.001	20.008	100.224	20.099	-1.355	0.452
754.000	440.836	80.003	20.008	100.224	20.102	-2.243	0.488
756.000	441.815	80.001	20.008	100.222	20.100	-1.822	0.470
758.000	442.805	80.000	20.008	100.217	20.101	-2.062	0.512
760.000	443.831	80.002	20.009	100.206	20.104	-2.909	0.519
762.000	444.809	80.002	20.008	100.212	20.101	-1.889	0.502
764.000	445.822	80.001	20.008	100.200	20.104	-2.930	0.511
766.000	446.764	80.001	20.008	100.213	20.104	-2.970	0.452
768.000	447.764	80.001	20.008	100.211	20.105	-3.190	0.479
770.000	448.806	80.001	20.008	100.207	20.103	-2.550	0.511
772.000	449.740	80.001	20.008	100.204	20.101	-2.136	0.487
774.000	450.743	80.001	20.008	100.209	20.102	-2.376	0.494
776.000	451.735	80.002	20.009	100.211	20.102	-2.416	0.519
778.000	452.669	80.001	20.008	100.210	20.103	-2.549	0.446
780.000	453.718	80.002	20.009	100.201	20.100	-1.795	0.507
782.000	454.735	80.001	20.007	100.213	20.102	-2.456	0.503
784.000	455.729	80.001	20.009	100.207	20.100	-1.702	0.508
786.000	456.665	80.001	20.008	100.221	20.103	-2.643	0.493
788.000	457.663	80.000	20.009	100.207	20.104	-2.923	0.505
790.000	458.664	80.000	20.008	100.221	20.104	-2.863	0.483
792.000	459.668	80.001	20.008	100.194	20.104	-3.003	0.511
794.000	460.621	80.001	20.008	100.214	20.102	-2.263	0.470
796.001	461.558	80.003	20.009	100.192	20.104	-2.864	0.478
798.000	462.547	80.002	20.008	100.209	20.103	-2.717	0.514
800.000	463.488	80.001	20.008	100.201	20.104	-2.950	0.435
802.000	464.473	80.002	20.008	100.218	20.099	-1.395	0.490
804.000	465.495	80.002	20.009	100.199	20.103	-2.629	0.491
806.000	466.438	80.002	20.008	100.226	20.102	-2.269	0.485
808.000	467.433	80.002	20.008	100.227	20.100	-1.835	0.484
810.000	468.413	80.000	20.007	100.244	20.101	-2.122	0.445
812.000	469.424	80.001	20.008	100.221	20.101	-2.042	0.447
814.000	470.425	80.001	20.008	100.222	20.103	-2.590	0.501
816.000	471.404	80.000	20.008	100.201	20.104	-2.903	0.508
818.000	472.379	80.001	20.008	100.216	20.103	-2.683	0.451
820.000	473.441	80.001	20.008	100.203	20.102	-2.210	0.535
822.000	474.376	80.000	20.008	100.218	20.103	-2.697	0.497
824.000	475.324	80.001	20.008	100.208	20.104	-2.937	0.469
826.001	476.341	80.000	20.008	100.231	20.102	-2.350	0.487
828.000	477.319	80.000	20.009	100.222	20.104	-3.083	0.483
830.000	478.367	80.000	20.008	100.231	20.107	-3.878	0.509
832.000	479.349	80.000	20.008	100.222	20.111	-5.052	0.510
834.000	480.398	80.000	20.008	100.250	20.108	-4.200	0.501
836.000	481.369	80.001	20.009	100.231	20.108	-4.185	0.494
838.000	482.348	80.000	20.009	100.240	20.106	-3.698	0.505
840.000	483.326	80.000	20.008	100.203	20.103	-2.770	0.487
842.000	484.388	80.000	20.008	100.213	20.105	-3.251	0.489
844.000	485.349	80.001	20.008	100.208	20.103	-2.736	0.509
846.000	486.377	80.000	20.008	100.235	20.105	-3.317	0.503
848.000	487.432	80.002	20.009	100.243	20.105	-3.330	0.527
850.000	488.396	80.001	20.008	100.240	20.105	-3.277	0.495
852.000	489.383	80.001	20.008	100.227	20.106	-3.690	0.512
854.000	490.414	80.001	20.009	100.215	20.104	-2.883	0.522
856.000	491.374	80.001	20.009	100.213	20.106	-3.490	0.476
858.000	492.372	80.002	20.009	100.206	20.105	-3.224	0.508
860.000	493.327	79.999	20.008	100.211	20.103	-2.763	0.535
862.000	494.282	80.000	20.009	100.205	20.104	-3.037	0.501
864.000	495.312	80.000	20.009	100.206	20.103	-2.709	0.539
866.000	496.259	80.001	20.008	100.202	20.103	-2.596	0.511
868.000	497.275	80.002	20.009	100.208	20.103	-2.669	0.475
870.000	498.236	79.999	20.009	100.212	20.105	-3.237	0.518
872.000	499.183	80.000	20.009	100.209	20.102	-2.442	0.445
874.000	500.212	80.002	20.008	100.207	20.104	-2.916	0.519
876.000	501.200	80.001	20.009	100.200	20.101	-2.169	0.486
878.000	502.214	80.001	20.009	100.204	20.104	-2.936	0.499
880.000	503.200	80.000	20.009	100.188	20.106	-3.637	0.503
882.000	504.138	80.000	20.009	100.206	20.105	-3.210	0.496
884.000	505.125	80.001	20.008	100.191	20.105	-3.177	0.502
886.000	506.093	80.001	20.008	100.203	20.104	-3.076	0.473
888.000	507.073	80.002	20.008	100.190	20.103	-2.683	0.505
890.000	508.065	79.999	20.008	100.206	20.103	-2.776	0.523
892.000	508.983	80.002	20.008	100.182	20.101	-2.176	0.456
894.000	510.003	80.002	20.008	100.216	20.101	-1.949	0.536
896.000	510.997	80.000	20.008	100.211	20.103	-2.703	0.517
898.000	511.966	80.001	20.008	100.210	20.099	-1.341	0.472
900.001	512.954	80.001	20.008	100.194	20.100	-1.815	0.487
902.000	513.896	80.000	20.008	100.205	20.098	-1.074	0.487
904.000	514.923	80.003	20.008	100.190	20.098	-1.001	0.497
906.000	515.932	80.002	20.008	100.213	20.097	-0.707	0.508
908.000	516.881	80.000	20.008	100.207	20.097	-0.714	0.473
910.001	517.905	80.001	20.008	100.211	20.099	-1.461	0.482
912.000	518.914	80.001	20.008	100.212	20.100	-1.815	0.514
914.000	519.912	80.002	20.009	100.204	20.101	-2.155	0.526
916.000	520.940	80.002	20.008	100.207	20.100	-1.582	0.515
918.001	521.914	80.000	20.008	100.208	20.099	-1.341	0.509
920.000	522.891	80.001	20.008	100.209	20.101	-1.875	0.503
922.000	523.851	80.001	20.008	100.208	20.101	-1.982	0.455
924.000	524.870	80.001	20.008	100.206	20.103	-2.529	0.463
926.000	525.895	80.001	20.008	100.208	20.104	-2.902	0.527
928.000	526.878	80.000	20.008	100.218	20.102	-2.383	0.498
930.001	527.821	80.001	20.008	100.206	20.102	-2.389	0.466
932.000	528.775	80.000	20.008	100.202	20.100	-1.602	0.492
934.001	529.725	80.001	20.008	100.193	20.103	-2.589	0.461
936.000	530.760	80.003	20.008	100.211	20.102	-2.482	0.534
938.000	531.759	80.001	20.008	100.188	20.101	-2.082	0.484
940.000	532.705	80.002	20.008	100.202	20.099	-1.368	0.495
942.000	533.747	80.001	20.008	100.206	20.098	-1.175	0.513
944.000	534.762	80.000	20.008	100.219	20.103	-2.722	0.491
946.000	535.759	80.001	20.008	100.204	20.100	-1.622	0.509
948.000	536.762	80.002	20.008	100.217	20.100	-1.568	0.514
950.000	537.795	80.001	20.008	100.200	20.100	-1.809	0.505
952.000	538.795	80.000	20.008	100.211	20.099	-1.281	0.469
954.001	539.845	80.001	20.008	100.194	20.098	-1.041	0.543
956.000	540.798	80.002	20.008	100.207	20.100	-1.835	0.460
958.000	541.851	80.001	20.008	100.196	20.098	-1.135	0.535
960.000	542.908	80.001	20.009	100.203	20.097	-0.867	0.530
962.000	543.852	80.000	20.008	100.201	20.100	-1.802	0.460
964.000	544.865	80.001	20.009	100.196	20.102	-2.215	0.493
966.001	545.892	80.001	20.009	100.194	20.103	-2.536	0.514
968.000	546.900	80.000	20.010	100.192	20.104	-2.823	0.533
970.000	547.874	80.001	20.008	100.199	20.103	-2.770	0.498
972.000	548.864	80.002	20.008	100.203	20.107	-3.944	0.472
974.000	549.828	80.002	20.008	100.210	20.104	-3.023	0.476
976.000	550.810	80.002	20.008	100.202	20.103	-2.683	0.453
978.000	551.876	80.001	20.008	100.199	20.105	-3.285	0.499
980.000	552.823	80.000	20.008	100.189	20.107	-3.984	0.457
982.000	553.811	80.001	20.008	100.214	20.105	-3.324	0.493
984.000	554.801	80.001	20.009	100.199	20.107	-3.917	0.469
986.000	555.829	80.000	20.008	100.215	20.104	-3.110	0.522
988.000	556.811	80.000	20.008	100.201	20.106	-3.570	0.485
990.000	557.825	80.001	20.008	100.230	20.106	-3.490	0.512
992.000	558.775	80.000	20.008	100.226	20.106	-3.563	0.473
994.000	559.774	80.001	20.009	100.224	20.106	-3.524	0.481
996.000	560.760	80.000	20.008	100.205	20.108	-4.324	0.501
998.000	561.786	80.000	20.008	100.216	20.108	-4.211	0.513
1000.000	562.806	80.000	20.008	100.198	20.106	-3.584	0.494
1002.000	563.792	80.000	20.008	100.206	20.103	-2.750	0.457
1004.000	564.828	80.001	20.008	100.196	20.104	-2.963	0.491
1006.000	565.840	80.001	20.008	100.213	20.104	-3.070	0.516
1008.000	566.847	80.001	20.008	100.204	20.103	-2.776	0.501
1010.000	567.897	80.001	20.008	100.213	20.106	-3.711	0.547
1012.000	568.846	80.002	20.008	100.201	20.108	-4.365	0.464
1014.000	569.849	80.001	20.007	100.231	20.104	-2.976	0.495
1016.000	570.859	80.001	20.008	100.207	20.106	-3.450	0.482
1018.000	571.856	80.001	20.008	100.219	20.105	-3.203	0.480
1020.000	572.848	80.001	20.008	100.192	20.105	-3.190	0.498
1022.000	573.852	80.001	20.009	100.216	20.102	-2.249	0.522
1024.001	574.814	80.001	20.008	100.212	20.105	-3.424	0.516
1026.000	575.838	80.001	20.008	100.220	20.102	-2.376	0.503
1028.000	576.851	80.000	20.008	100.193	20.107	-3.871	0.537
1030.000	577.805	80.001	20.008	100.221	20.101	-1.902	0.484
1032.000	578.789	80.001	20.008	100.204	20.106	-3.530	0.495
1034.000	579.755	80.001	20.008	100.224	20.104	-3.110	0.484
1036.000	580.731	80.003	20.008	100.200	20.103	-2.550	0.499
1038.000	581.662	80.001	20.008	100.219	20.101	-2.102	0.456
1040.000	582.679	80.000	20.008	100.193	20.101	-2.056	0.492
1042.000	583.623	80.001	20.008	100.219	20.104	-2.963	0.469
1044.000	584.615	80.002	20.008	100.194	20.101	-1.962	0.491
1046.000	585.579	80.001	20.008	100.222	20.102	-2.209	0.475
1048.000	586.595	80.001	20.008	100.213	20.103	-2.603	0.507
1050.000	587.538	80.001	20.008	100.222	20.103	-2.790	0.488
1052.000	588.526	80.000	20.008	100.204	20.105	-3.404	0.488
1054.000	589.485	80.002	20.009	100.215	20.103	-2.810	0.489
1056.000	590.471	80.002	20.009	100.200	20.105	-3.371	0.479
1058.000	591.499	80.001	20.008	100.224	20.107	-4.057	0.506
1060.000	592.485	80.000	20.008	100.200	20.107	-3.878	0.540
1062.000	593.501	80.001	20.008	100.215	20.104	-2.930	0.506
1064.001	594.555	80.001	20.009	100.212	20.104	-3.010	0.537
1066.000	595.578	80.000	20.009	100.212	20.104	-2.856	0.508
1068.000	596.632	80.002	20.008	100.208	20.104	-2.917	0.539
1070.001	597.593	80.001	20.008	100.205	20.103	-2.649	0.546
1072.000	598.640	80.001	20.008	100.208	20.105	-3.424	0.538
1074.000	599.631	80.001	20.008	100.204	20.108	-4.205	0.505
1076.000	600.658	80.001	20.007	100.213	20.106	-3.598	0.534
1078.000	601.622	80.001	20.008	100.209	20.104	-3.116	0.503
1080.000	602.612	80.001	20.008	100.209	20.104	-2.950	0.476
1082.000	603.635	80.002	20.008	100.199	20.104	-2.817	0.507
1084.000	604.681	80.001	20.008	100.209	20.107	-3.904	0.520
1086.000	605.677	80.001	20.008	100.220	20.105	-3.437	0.504
1088.000	606.728	80.001	20.008	100.224	20.105	-3.364	0.531
1090.000	607.754	80.002	20.008	100.206	20.106	-3.457	0.566
1092.000	608.729	80.001	20.008	100.200	20.103	-2.563	0.468
1094.000	609.768	80.000	20.008	100.206	20.103	-2.776	0.524
1096.000	610.743	80.001	20.009	100.220	20.105	-3.257	0.500
1098.000	611.785	80.000	20.009	100.201	20.105	-3.330	0.527
1100.000	612.798	80.000	20.008	100.217	20.104	-3.010	0.518
1102.000	613.779	80.000	20.009	100.202	20.107	-3.864	0.500
1104.000	614.809	80.001	20.008	100.221	20.104	-2.856	0.507
1106.000	615.821	80.000	20.008	100.201	20.106	-3.670	0.526
1108.000	616.763	80.000	20.008	100.215	20.106	-3.484	0.478
1110.000	617.755	80.003	20.009	100.202	20.109	-4.679	0.473
1112.000	618.768	80.000	20.008	100.219	20.111	-5.299	0.501
1114.000	619.723	80.002	20.008	100.194	20.108	-4.338	0.449
1116.000	620.674	80.000	20.008	100.217	20.108	-4.118	0.468
1118.000	621.665	80.000	20.008	100.199	20.111	-5.106	0.495
1120.000	622.644	80.000	20.009	100.216	20.109	-4.451	0.482
1122.000	623.616	80.002	20.009	100.208	20.106	-3.751	0.482
1124.000	624.623	80.001	20.009	100.219	20.105	-3.176	0.506
1126.000	625.628	79.999	20.008	100.193	20.107	-3.905	0.485
1128.001	626.615	80.001	20.009	100.215	20.106	-3.751	0.516
1130.000	627.576	80.000	20.009	100.205	20.111	-5.306	0.506
1132.000	628.597	80.001	20.008	100.222	20.109	-4.645	0.497
1134.000	629.584	80.001	20.008	100.206	20.109	-4.419	0.511
1136.000	630.548	80.000	20.009	100.204	20.103	-2.683	0.477
1138.000	631.546	80.000	20.008	100.205	20.103	-2.750	0.492
1140.000	632.505	80.001	20.009	100.216	20.107	-3.918	0.501
1142.000	633.564	80.002	20.009	100.217	20.109	-4.453	0.518
1144.000	634.576	80.001	20.009	100.211	20.112	-5.433	0.515
1146.001	635.632	80.001	20.009	100.221	20.110	-4.919	0.516
1148.000	636.601	80.001	20.008	100.215	20.108	-4.205	0.471
1150.000	637.608	80.001	20.008	100.221	20.106	-3.724	0.481
1152.000	638.626	80.002	20.009	100.212	20.108	-4.098	0.531
1154.000	639.603	80.001	20.008	100.248	20.105	-3.223	0.481
1156.000	640.677	80.000	20.009	100.218	20.103	-2.650	0.511
1158.000	641.701	80.000	20.009	100.231	20.102	-2.383	0.504
1160.000	642.736	80.001	20.009	100.207	20.105	-3.230	0.523
1162.000	643.756	80.002	20.009	100.225	20.106	-3.677	0.535
1164.000	644.785	80.001	20.009	100.218	20.107	-3.885	0.493
1166.000	645.807	80.001	20.009	100.220	20.105	-3.410	0.482
1168.000	646.758	80.002	20.009	100.207	20.105	-3.157	0.494
1170.000	647.717	80.000	20.009	100.221	20.108	-4.145	0.463
1172.000	648.681	80.001	20.009	100.214	20.105	-3.397	0.441
1174.000	649.703	80.001	20.009	100.214	20.105	-3.403	0.485
1176.000	650.678	80.000	20.009	100.220	20.109	-4.485	0.462
1178.000	651.650	80.001	20.009	100.205	20.109	-4.485	0.473
1180.000	652.618	80.000	20.009	100.209	20.106	-3.750	0.511
1182.000	653.563	80.001	20.009	100.212	20.111	-5.233	0.495
1184.000	654.526	80.001	20.009	100.224	20.110	-4.739	0.460
1186.000	655.558	80.001	20.009	100.199	20.107	-4.032	0.515
1188.000	656.495	80.002	20.009	100.219	20.106	-3.698	0.462
1190.000	657.509	80.000	20.009	100.208	20.107	-3.892	0.461
1192.000	658.514	80.001	20.009	100.214	20.106	-3.744	0.476
1194.000	659.518	80.001	20.009	100.196	20.107	-3.891	0.502
1196.000	660.499	80.002	20.010	100.230	20.108	-4.184	0.523
1198.000	661.540	80.001	20.009	100.223	20.109	-4.605	0.538
1200.001	662.487	80.001	20.009	100.234	20.110	-4.879	0.517
1202.000	663.545	80.001	20.009	100.226	20.109	-4.472	0.526
1204.000	664.582	80.001	20.008	100.222	20.108	-4.198	0.546
1206.001	665.565	80.001	20.009	100.222	20.109	-4.678	0.556
1208.000	666.606	80.002	20.008	100.200	20.102	-2.483	0.532
1210.000	667.616	80.001	20.007	100.216	20.102	-2.436	0.526
1212.000	668.680	80.001	20.008	100.215	20.099	-1.422	0.526
1214.000	669.729	80.002	20.008	100.225	20.103	-2.803	0.524
1216.000	670.753	80.001	20.008	100.206	20.101	-2.089	0.469
1218.001	671.792	80.001	20.008	100.223	20.098	-0.961	0.518
1220.001	672.786	80.000	20.008	100.212	20.101	-1.996	0.536
1222.000	673.838	80.001	20.008	100.216	20.103	-2.763	0.529
1224.000	674.786	80.001	20.008	100.226	20.100	-1.635	0.499
1226.000	675.793	80.002	20.008	100.212	20.101	-2.109	0.487
1228.000	676.789	80.001	20.008	100.225	20.105	-3.377	0.511
1230.001	677.826	80.001	20.008	100.222	20.106	-3.711	0.497
1232.000	678.883	80.001	20.008	100.219	20.105	-3.363	0.503
1234.000	679.891	80.001	20.008	100.203	20.110	-4.779	0.484
1236.000	680.866	80.002	20.008	100.222	20.109	-4.498	0.489
1238.000	681.915	80.001	20.008	100.205	20.106	-3.731	0.492
1240.000	682.862	80.001	20.008	100.223	20.109	-4.391	0.474
1242.000	683.857	80.001	20.008	100.218	20.107	-3.898	0.473
1244.000	684.896	80.001	20.008	100.214	20.104	-2.964	0.558
1246.000	685.827	80.001	20.008	100.215	20.105	-3.371	0.486
1248.000	686.844	80.001	20.008	100.220	20.107	-3.831	0.474
1250.000	687.907	80.001	20.008	100.221	20.107	-3.971	0.530
1252.000	688.907	80.001	20.009	100.210	20.105	-3.171	0.514
1254.000	689.874	80.001	20.008	100.217	20.105	-3.343	0.501
1256.000	690.889	80.003	20.008	100.223	20.101	-2.022	0.514
1258.000	691.863	80.002	20.008	100.233	20.103	-2.529	0.499
1260.000	692.859	80.002	20.008	100.217	20.106	-3.477	0.476
1262.000	693.914	80.001	20.008	100.227	20.103	-2.696	0.514
1264.001	694.948	80.002	20.008	100.217	20.105	-3.251	0.504
1266.000	695.937	80.002	20.009	100.217	20.103	-2.623	0.499
1268.000	696.903	80.001	20.008	100.206	20.104	-2.917	0.507
1270.000	697.931	80.002	20.009	100.211	20.103	-2.563	0.513
1272.000	698.929	80.000	20.008	100.204	20.105	-3.264	0.495
1274.000	699.956	80.001	20.008	100.208	20.107	-3.845	0.523
1276.000	701.025	80.001	20.008	100.213	20.106	-3.664	0.485
1278.000	702.020	80.001	20.008	100.209	20.103	-2.750	0.511
1280.000	703.047	80.001	20.007	100.226	20.102	-2.182	0.539
1282.000	704.117	80.001	20.008	100.207	20.102	-2.249	0.539
1284.000	705.133	80.001	20.008	100.224	20.105	-3.391	0.522
1286.000	706.149	80.001	20.008	100.221	20.102	-2.183	0.454
1288.000	707.227	80.000	20.008	100.233	20.102	-2.463	0.521
1290.000	708.279	80.000	20.008	100.219	20.101	-1.990	0.551
1292.000	709.270	80.000	20.008	100.220	20.096	-0.581	0.505
1294.000	710.278	80.000	20.008	100.209	20.097	-0.808	0.498
1296.000	711.318	80.001	20.008	100.229	20.098	-1.228	0.505
1298.000	712.324	80.002	20.008	100.219	20.095	-0.113	0.504
1300.001	713.405	80.001	20.008	100.223	20.098	-0.981	0.506
1302.000	714.404	80.001	20.008	100.239	20.098	-1.155	0.508
1304.000	715.454	80.000	20.008	100.234	20.098	-1.222	0.517
1306.000	716.491	80.001	20.008	100.225	20.099	-1.382	0.513
1308.000	717.448	79.999	20.008	100.231	20.098	-1.175	0.508
1310.000	718.473	80.001	20.008	100.255	20.102	-2.423	0.511
1312.000	719.517	80.000	20.008	100.237	20.103	-2.570	0.492
1314.001	720.473	80.000	20.008	100.249	20.101	-2.130	0.472
1316.000	721.417	80.000	20.008	100.239	20.103	-2.564	0.459
1318.000	722.454	80.002	20.008	100.240	20.100	-1.716	0.526
1320.000	723.474	80.000	20.008	100.244	20.101	-2.023	0.512
1322.000	724.471	80.002	20.008	100.234	20.100	-1.656	0.531
1324.000	725.468	80.000	20.008	100.253	20.102	-2.350	0.475
1326.000	726.543	80.000	20.008	100.234	20.103	-2.664	0.514
1328.000	727.613	80.000	20.008	100.247	20.102	-2.456	0.553
1330.000	728.600	80.001	20.008	100.227	20.102	-2.263	0.490
1332.000	729.583	80.001	20.008	100.246	20.102	-2.336	0.492
1334.000	730.573	80.001	20.008	100.228	20.101	-1.989	0.499
1336.000	731.554	80.000	20.008	100.252	20.101	-1.876	0.487
1338.000	732.578	80.000	20.008	100.231	20.101	-1.869	0.513
1340.000	733.589	80.001	20.008	100.245	20.101	-1.916	0.522
1342.000	734.604	80.001	20.008	100.241	20.100	-1.629	0.501
1344.000	735.632	80.000	20.009	100.236	20.101	-2.123	0.509
1346.000	736.635	80.001	20.008	100.225	20.100	-1.856	0.492
1348.000	737.671	80.000	20.008	100.221	20.101	-1.956	0.507
1350.000	738.626	80.001	20.008	100.227	20.104	-2.944	0.462
1352.001	739.712	80.002	20.008	100.223	20.102	-2.430	0.476
1354.000	740.701	80.000	20.008	100.244	20.100	-1.642	0.521
1356.000	741.721	80.001	20.008	100.240	20.100	-1.756	0.512
1358.000	742.736	80.001	20.008	100.233	20.098	-1.048	0.534