File: Experiments/TGA/TUBS/mcc/mcc_powder_1mg_dyn30_r1.txt
Sample Weight (mg):	1.02
Heating Rate (C/s):	0.5
Combustor Temp (C):	900
N2 Flow Rate (cc/min):	80
O2 Flow Rate (cc/min):	20
Time (s)	Temperature (C)	N2 flow rate (cc/min)	O2 flow rate (cc/min)	Flow Rate (cc/min)	Oxygen (%)	HRR (W/g)	Heating rate (C/s)
0.000	88.496	80.003	20.009	100.335	20.017	14.870	0.015
2.000	88.357	80.005	20.010	100.343	20.019	14.115	-0.050
4.000	88.224	80.004	20.009	100.308	20.013	16.012	-0.090
6.000	88.241	80.004	20.009	100.335	20.015	15.460	-0.019
8.000	88.180	80.005	20.009	100.314	20.012	16.509	0.003
10.001	88.127	80.003	20.010	100.324	20.012	16.296	-0.055
12.001	88.118	80.003	20.010	100.286	20.011	16.666	-0.009
14.000	88.084	80.003	20.010	100.322	20.012	16.337	0.013
16.000	88.124	80.003	20.010	100.310	20.008	17.584	0.017
18.000	88.082	80.003	20.010	100.327	20.006	18.274	0.014
20.000	88.148	80.005	20.009	100.317	20.005	18.604	0.030
22.000	88.159	80.005	20.010	100.350	20.011	16.738	0.020
24.000	88.183	80.005	20.009	100.338	20.008	17.521	-0.016
26.000	88.199	80.004	20.010	100.331	20.005	18.500	0.016
28.000	88.292	80.004	20.010	100.322	20.005	18.573	0.015
30.000	88.370	80.003	20.010	100.352	20.006	18.366	0.035
32.000	88.421	80.007	20.010	100.368	19.999	20.448	0.041
34.000	88.536	80.004	20.010	100.374	19.995	21.605	0.061
36.000	88.644	80.004	20.010	100.414	19.993	22.269	0.070
38.000	88.839	80.004	20.009	100.420	19.997	21.084	0.116
40.000	88.982	80.004	20.010	100.442	19.994	22.022	0.085
42.000	89.181	80.004	20.011	100.437	19.990	23.276	0.070
44.001	89.377	80.004	20.009	100.441	19.984	24.990	0.133
46.000	89.687	80.004	20.010	100.461	19.983	25.386	0.151
48.001	89.911	80.004	20.010	100.504	19.983	25.458	0.127
50.000	90.178	80.004	20.010	100.484	19.982	25.696	0.133
52.000	90.465	80.004	20.010	100.502	19.978	26.864	0.160
54.001	90.820	80.004	20.010	100.515	19.978	26.736	0.169
56.000	91.204	80.005	20.009	100.538	19.975	27.636	0.166
58.000	91.599	80.003	20.010	100.516	19.973	28.246	0.198
60.000	91.980	80.005	20.010	100.552	19.973	28.510	0.181
62.000	92.438	80.005	20.010	100.531	19.970	29.306	0.258
64.001	92.989	80.004	20.009	100.557	19.974	28.012	0.272
66.000	93.517	80.004	20.009	100.527	19.971	29.025	0.234
68.000	94.017	80.004	20.009	100.538	19.970	29.429	0.251
70.001	94.618	80.004	20.009	100.532	19.971	28.967	0.310
72.001	95.216	80.005	20.009	100.547	19.969	29.508	0.315
74.001	95.847	80.004	20.009	100.541	19.969	29.641	0.265
76.000	96.429	80.005	20.009	100.568	19.964	31.063	0.311
78.000	97.004	80.004	20.009	100.581	19.962	31.773	0.301
80.000	97.734	80.005	20.009	100.558	19.962	31.892	0.344
82.000	98.370	80.004	20.009	100.570	19.958	33.112	0.336
84.000	99.108	80.004	20.009	100.548	19.959	32.758	0.345
86.000	99.835	80.005	20.009	100.586	19.963	31.478	0.379
88.000	100.635	80.004	20.009	100.585	19.963	31.618	0.403
90.000	101.381	80.004	20.009	100.603	19.962	31.661	0.361
92.001	102.182	80.004	20.009	100.587	19.957	33.192	0.415
94.000	103.035	80.005	20.009	100.607	19.960	32.274	0.433
96.000	103.916	80.004	20.009	100.602	19.961	32.007	0.465
98.001	104.745	80.005	20.009	100.605	19.961	32.221	0.411
100.000	105.663	80.004	20.009	100.590	19.957	33.308	0.457
102.000	106.586	80.004	20.009	100.584	19.958	32.984	0.471
104.000	107.518	80.004	20.009	100.586	19.960	32.509	0.450
106.000	108.434	80.004	20.009	100.596	19.957	33.382	0.468
108.000	109.428	80.003	20.009	100.600	19.960	32.319	0.492
110.001	110.417	80.005	20.009	100.604	19.962	31.697	0.502
112.000	111.477	80.005	20.009	100.623	19.960	32.409	0.537
114.001	112.472	80.005	20.010	100.613	19.961	31.943	0.523
116.000	113.450	80.004	20.009	100.610	19.961	32.079	0.474
118.001	114.463	80.006	20.009	100.577	19.962	31.892	0.509
120.000	115.616	80.003	20.009	100.599	19.961	32.006	0.512
122.000	116.716	80.004	20.009	100.584	19.966	30.647	0.550
124.000	117.850	80.003	20.009	100.602	19.965	30.748	0.561
126.000	118.932	80.004	20.009	100.582	19.967	30.169	0.551
128.000	120.034	80.004	20.009	100.590	19.966	30.666	0.567
130.000	121.178	80.004	20.009	100.573	19.966	30.527	0.555
132.000	122.314	80.005	20.009	100.564	19.963	31.539	0.581
134.000	123.454	80.005	20.008	100.555	19.966	30.477	0.586
136.000	124.599	80.004	20.009	100.542	19.966	30.469	0.570
138.000	125.755	80.004	20.009	100.555	19.968	29.908	0.601
140.000	126.876	80.005	20.009	100.541	19.968	29.807	0.521
142.000	128.019	80.005	20.009	100.562	19.965	30.858	0.548
144.000	129.191	80.006	20.009	100.529	19.968	30.054	0.605
146.000	130.360	80.004	20.009	100.550	19.968	29.787	0.569
148.000	131.467	80.004	20.009	100.560	19.968	29.962	0.571
150.000	132.628	80.005	20.009	100.563	19.968	29.770	0.571
152.001	133.870	80.005	20.010	100.546	19.970	29.229	0.594
154.000	135.007	80.004	20.009	100.553	19.974	28.202	0.552
156.000	136.174	80.006	20.009	100.554	19.976	27.379	0.591
158.000	137.348	80.005	20.009	100.541	19.973	28.229	0.590
160.000	138.518	80.005	20.009	100.530	19.974	28.162	0.607
162.000	139.669	80.003	20.009	100.485	19.973	28.323	0.581
164.000	140.812	80.005	20.009	100.484	19.972	28.535	0.586
166.000	141.974	80.005	20.008	100.471	19.973	28.341	0.581
168.000	143.099	80.004	20.009	100.487	19.975	27.721	0.592
170.000	144.243	80.004	20.009	100.471	19.976	27.435	0.555
172.000	145.412	80.005	20.009	100.486	19.975	27.634	0.551
174.000	146.558	80.004	20.009	100.489	19.975	27.677	0.595
176.000	147.700	80.005	20.009	100.485	19.974	28.155	0.544
178.000	148.796	80.004	20.009	100.508	19.978	26.787	0.536
180.000	149.945	80.004	20.009	100.501	19.975	27.717	0.563
182.000	151.107	80.004	20.009	100.520	19.976	27.362	0.583
184.000	152.258	80.005	20.009	100.483	19.973	28.371	0.591
186.000	153.381	80.003	20.009	100.485	19.973	28.506	0.588
188.000	154.486	80.006	20.009	100.490	19.975	27.889	0.553
190.000	155.580	80.005	20.009	100.504	19.977	27.113	0.558
192.000	156.698	80.004	20.009	100.507	19.970	29.315	0.588
194.000	157.847	80.006	20.009	100.514	19.972	28.621	0.555
196.000	158.924	80.005	20.009	100.469	19.973	28.421	0.542
198.000	160.084	80.004	20.009	100.482	19.968	29.915	0.567
200.000	161.151	80.004	20.008	100.481	19.969	29.678	0.553
202.000	162.214	80.006	20.009	100.471	19.969	29.648	0.517
204.000	163.340	80.005	20.009	100.489	19.965	30.733	0.556
206.000	164.513	80.005	20.010	100.470	19.967	30.330	0.592
208.000	165.484	80.005	20.010	100.497	19.961	32.167	0.511
210.000	166.637	80.004	20.010	100.441	19.957	33.363	0.562
212.000	167.756	80.004	20.009	100.443	19.957	33.132	0.554
214.000	168.806	80.005	20.009	100.434	19.953	34.402	0.532
216.000	169.926	80.005	20.009	100.427	19.953	34.402	0.555
218.000	170.970	80.005	20.009	100.410	19.954	34.349	0.507
220.000	172.044	80.004	20.010	100.400	19.953	34.561	0.530
222.000	173.162	80.004	20.009	100.409	19.951	35.128	0.528
224.000	174.126	80.005	20.009	100.408	19.953	34.621	0.465
226.000	175.217	80.004	20.009	100.411	19.950	35.371	0.586
228.000	176.380	80.006	20.009	100.401	19.954	34.323	0.631
230.000	177.342	80.005	20.009	100.439	19.955	33.802	0.520
232.000	178.370	80.005	20.009	100.427	19.952	34.709	0.527
234.001	179.432	80.006	20.009	100.413	19.957	33.249	0.557
236.000	180.432	80.006	20.009	100.400	19.957	33.237	0.491
238.000	181.522	80.005	20.009	100.427	19.961	31.988	0.525
240.000	182.612	80.004	20.009	100.398	19.956	33.539	0.599
242.000	183.621	80.005	20.009	100.416	19.960	32.231	0.511
244.000	184.713	80.005	20.009	100.415	19.962	31.615	0.515
246.000	185.780	80.005	20.009	100.434	19.964	31.041	0.547
248.000	186.750	80.006	20.009	100.439	19.971	28.994	0.480
250.000	187.780	80.005	20.010	100.433	19.971	28.973	0.522
252.000	188.854	80.005	20.009	100.440	19.975	27.890	0.524
254.000	189.854	80.005	20.009	100.416	19.976	27.484	0.527
256.000	190.806	80.004	20.009	100.426	19.980	26.112	0.434
258.000	191.852	80.005	20.009	100.424	19.981	26.025	0.451
260.000	192.875	80.004	20.009	100.442	19.984	24.921	0.525
262.000	193.864	80.004	20.009	100.429	19.986	24.348	0.508
264.000	194.952	80.004	20.010	100.446	19.991	22.694	0.514
266.000	195.924	80.004	20.009	100.440	19.991	22.849	0.490
268.000	196.982	80.005	20.009	100.455	19.991	22.958	0.477
270.000	197.946	80.003	20.009	100.465	19.996	21.438	0.497
272.000	199.028	80.005	20.009	100.426	19.995	21.738	0.515
274.000	200.013	80.004	20.009	100.439	19.995	21.661	0.493
276.000	201.035	80.005	20.010	100.422	19.994	21.748	0.481
278.000	202.045	80.006	20.009	100.429	19.992	22.410	0.527
280.000	203.067	80.004	20.009	100.435	19.991	22.883	0.503
282.000	204.085	80.004	20.009	100.433	19.997	20.977	0.522
284.000	205.123	80.004	20.009	100.437	19.995	21.526	0.508
286.000	206.136	80.004	20.009	100.407	19.997	21.055	0.532
288.001	207.115	80.003	20.009	100.415	19.996	21.307	0.486
290.000	208.106	80.004	20.009	100.410	19.999	20.363	0.521
292.000	209.132	80.004	20.009	100.409	19.995	21.659	0.496
294.000	210.087	80.005	20.009	100.400	19.995	21.616	0.469
296.000	211.097	80.004	20.009	100.391	19.995	21.677	0.483
298.000	212.131	80.005	20.009	100.400	19.997	21.033	0.513
300.000	213.099	80.005	20.009	100.390	19.993	22.089	0.448
302.000	214.156	80.004	20.009	100.402	19.998	20.592	0.508
304.000	215.140	80.003	20.009	100.378	19.997	20.968	0.509
306.000	216.180	80.003	20.009	100.409	19.996	21.277	0.516
308.000	217.184	80.004	20.009	100.414	19.998	20.658	0.510
310.001	218.120	80.005	20.009	100.407	19.999	20.265	0.490
312.000	219.123	80.004	20.009	100.398	19.998	20.723	0.486
314.001	220.139	80.003	20.010	100.391	19.997	20.872	0.508
316.000	221.153	80.004	20.009	100.398	19.997	20.997	0.519
318.000	222.159	80.005	20.009	100.388	19.998	20.737	0.501
320.000	223.142	80.004	20.009	100.412	19.997	20.975	0.471
322.000	224.153	80.004	20.009	100.403	20.000	19.981	0.519
324.000	225.159	80.004	20.010	100.411	20.001	19.682	0.487
326.000	226.189	80.004	20.009	100.415	20.001	19.742	0.523
328.000	227.155	80.003	20.009	100.411	20.000	19.918	0.484
330.000	228.186	80.003	20.009	100.414	20.001	19.880	0.511
332.000	229.172	80.004	20.009	100.387	20.006	18.318	0.494
334.000	230.179	80.005	20.009	100.407	20.004	18.833	0.495
336.001	231.184	80.004	20.010	100.393	20.005	18.367	0.502
338.000	232.123	80.004	20.009	100.419	20.004	18.728	0.458
340.000	233.218	80.005	20.009	100.399	20.005	18.453	0.507
342.000	234.144	80.004	20.009	100.421	20.002	19.496	0.475
344.000	235.149	80.003	20.009	100.414	20.001	19.720	0.508
346.000	236.146	80.005	20.009	100.402	20.000	19.947	0.505
348.000	237.258	80.003	20.009	100.385	20.000	19.955	0.511
350.000	238.204	80.005	20.009	100.395	20.000	20.083	0.523
352.000	239.222	80.005	20.009	100.391	19.998	20.551	0.513
354.000	240.184	80.003	20.009	100.398	20.002	19.435	0.515
356.000	241.221	80.004	20.009	100.394	20.004	18.769	0.514
358.000	242.159	80.004	20.010	100.389	20.006	18.135	0.462
360.000	243.284	80.005	20.009	100.408	20.003	19.017	0.586
362.000	244.175	80.004	20.009	100.385	20.006	18.326	0.483
364.000	245.174	80.004	20.010	100.392	20.006	18.193	0.419
366.000	246.209	80.004	20.009	100.390	20.005	18.451	0.534
368.000	247.145	80.004	20.009	100.406	20.006	18.093	0.504
370.000	248.232	80.004	20.009	100.396	20.004	18.790	0.502
372.000	249.279	80.004	20.009	100.407	20.004	18.671	0.516
374.000	250.289	80.005	20.009	100.394	20.004	18.814	0.537
376.000	251.223	80.004	20.009	100.366	20.005	18.503	0.475
378.000	252.266	80.004	20.009	100.392	20.004	18.805	0.527
380.000	253.282	80.004	20.009	100.384	20.002	19.483	0.523
382.000	254.240	80.005	20.010	100.390	20.002	19.344	0.492
384.000	255.239	80.004	20.009	100.342	20.005	18.538	0.507
386.000	256.226	80.005	20.009	100.363	20.005	18.601	0.470
388.000	257.262	80.006	20.011	100.366	20.004	18.849	0.519
390.000	258.211	80.004	20.009	100.398	20.003	19.258	0.477
392.000	259.236	80.004	20.009	100.372	20.003	19.204	0.483
394.000	260.230	80.004	20.009	100.374	20.001	19.820	0.521
396.000	261.221	80.005	20.009	100.372	19.999	20.490	0.484
398.001	262.189	80.005	20.009	100.359	20.000	19.965	0.479
400.000	263.215	80.005	20.009	100.372	20.004	18.974	0.520
402.000	264.197	80.005	20.009	100.359	20.001	19.757	0.520
404.000	265.241	80.005	20.009	100.364	19.997	20.965	0.529
406.000	266.196	80.005	20.009	100.358	20.000	20.125	0.485
408.000	267.246	80.006	20.009	100.385	19.998	20.798	0.520
410.000	268.245	80.004	20.009	100.383	19.996	21.365	0.478
412.000	269.198	80.004	20.009	100.374	19.995	21.701	0.538
414.000	270.278	80.004	20.009	100.390	19.996	21.412	0.566
416.000	271.332	80.004	20.009	100.374	19.992	22.420	0.537
418.000	272.283	80.004	20.009	100.382	19.991	22.758	0.490
420.000	273.270	80.004	20.009	100.378	19.986	24.461	0.505
422.000	274.314	80.006	20.010	100.374	19.988	23.739	0.552
424.000	275.295	80.004	20.009	100.369	19.987	23.955	0.478
426.000	276.299	80.005	20.009	100.367	19.987	24.042	0.451
428.000	277.348	80.006	20.009	100.373	19.986	24.300	0.507
430.000	278.383	80.005	20.009	100.362	19.987	24.090	0.517
432.000	279.347	80.006	20.009	100.374	19.984	24.983	0.482
434.001	280.342	80.005	20.009	100.368	19.980	26.245	0.499
436.000	281.336	80.005	20.009	100.387	19.981	25.897	0.456
438.000	282.420	80.006	20.009	100.371	19.976	27.555	0.540
440.000	283.375	80.004	20.009	100.366	19.973	28.364	0.500
442.000	284.423	80.005	20.009	100.372	19.972	28.687	0.506
444.000	285.465	80.004	20.009	100.354	19.973	28.297	0.528
446.000	286.502	80.005	20.009	100.370	19.969	29.620	0.540
448.000	287.500	80.004	20.009	100.375	19.969	29.654	0.542
450.000	288.490	80.005	20.010	100.363	19.968	29.834	0.490
452.000	289.533	80.004	20.010	100.364	19.966	30.579	0.516
454.000	290.557	80.005	20.009	100.350	19.965	30.742	0.535
456.001	291.561	80.005	20.010	100.365	19.963	31.300	0.520
458.001	292.573	80.004	20.011	100.351	19.964	31.143	0.519
460.000	293.618	80.004	20.010	100.364	19.964	31.145	0.529
462.000	294.543	80.004	20.010	100.358	19.962	31.724	0.472
464.000	295.526	80.004	20.010	100.386	19.959	32.513	0.512
466.000	296.600	80.006	20.010	100.373	19.965	30.855	0.518
468.000	297.522	80.004	20.010	100.366	19.959	32.558	0.472
470.000	298.532	80.004	20.010	100.389	19.961	32.135	0.473
472.000	299.560	80.005	20.010	100.379	19.964	31.173	0.513
474.000	300.580	80.005	20.010	100.371	19.958	32.981	0.493
476.000	301.534	80.003	20.010	100.353	19.956	33.539	0.520
478.000	302.563	80.005	20.011	100.355	19.956	33.619	0.479
480.000	303.532	80.004	20.010	100.357	19.952	34.696	0.499
482.000	304.570	80.004	20.010	100.334	19.951	35.053	0.500
484.000	305.509	80.004	20.010	100.330	19.949	35.769	0.510
486.000	306.520	80.004	20.010	100.345	19.948	36.097	0.484
488.000	307.641	80.005	20.010	100.371	19.946	36.674	0.573
490.000	308.554	80.004	20.010	100.352	19.941	38.046	0.505
492.000	309.530	80.005	20.010	100.362	19.941	38.298	0.486
494.000	310.523	80.004	20.010	100.364	19.942	37.808	0.494
496.000	311.483	80.005	20.010	100.359	19.940	38.424	0.491
498.000	312.505	80.005	20.010	100.369	19.936	39.793	0.517
500.000	313.483	80.005	20.010	100.350	19.927	42.450	0.493
502.000	314.420	80.006	20.010	100.358	19.926	42.696	0.480
504.000	315.419	80.004	20.010	100.332	19.924	43.376	0.473
506.001	316.396	80.005	20.010	100.333	19.917	45.452	0.489
508.000	317.445	80.005	20.010	100.333	19.910	47.653	0.535
510.000	318.506	80.005	20.009	100.343	19.907	48.556	0.544
512.000	319.491	80.003	20.009	100.364	19.901	50.402	0.511
514.000	320.474	80.005	20.010	100.349	19.893	52.933	0.507
516.000	321.428	80.005	20.010	100.363	19.885	55.238	0.489
518.000	322.526	80.005	20.009	100.341	19.879	57.283	0.536
520.000	323.469	80.004	20.010	100.346	19.869	60.161	0.490
522.000	324.545	80.005	20.010	100.308	19.859	63.224	0.518
524.000	325.463	80.005	20.010	100.317	19.851	65.643	0.489
526.000	326.511	80.004	20.010	100.313	19.843	68.347	0.517
528.000	327.511	80.005	20.010	100.312	19.833	71.198	0.520
530.000	328.503	80.004	20.010	100.320	19.822	74.730	0.490
532.000	329.497	80.005	20.010	100.312	19.816	76.561	0.533
534.000	330.467	80.004	20.011	100.331	19.803	80.459	0.480
536.000	331.481	80.005	20.010	100.312	19.795	83.087	0.497
538.000	332.436	80.004	20.010	100.335	19.781	87.091	0.478
540.000	333.471	80.005	20.010	100.315	19.770	90.692	0.494
542.000	334.468	80.005	20.010	100.335	19.755	95.346	0.528
544.000	335.427	80.005	20.010	100.304	19.745	98.348	0.474
546.000	336.455	80.005	20.010	100.321	19.728	103.335	0.541
548.000	337.439	80.005	20.010	100.310	19.719	106.412	0.496
550.000	338.415	80.005	20.010	100.319	19.703	111.076	0.507
552.000	339.434	80.005	20.010	100.306	19.691	114.912	0.572
554.000	340.430	80.004	20.011	100.323	19.676	119.371	0.490
556.000	341.393	80.005	20.010	100.290	19.667	122.279	0.491
558.001	342.397	80.004	20.011	100.311	19.656	125.531	0.532
560.000	343.382	80.004	20.010	100.302	19.645	128.966	0.481
562.000	344.337	80.004	20.010	100.327	19.633	132.480	0.455
564.000	345.339	80.005	20.010	100.303	19.622	136.123	0.535
566.000	346.314	80.004	20.010	100.311	19.614	138.579	0.499
568.000	347.355	80.005	20.010	100.302	19.599	143.108	0.515
570.000	348.290	80.004	20.011	100.309	19.591	145.610	0.517
572.000	349.297	80.004	20.010	100.286	19.579	149.163	0.496
574.000	350.293	80.003	20.010	100.299	19.571	151.707	0.456
576.000	351.299	80.004	20.010	100.307	19.561	154.830	0.519
578.000	352.326	80.005	20.010	100.301	19.549	158.372	0.473
580.000	353.263	80.003	20.010	100.326	19.538	161.691	0.466
582.000	354.222	80.004	20.011	100.331	19.530	164.274	0.487
584.000	355.173	80.004	20.010	100.342	19.518	168.071	0.423
586.000	356.177	80.003	20.010	100.332	19.507	171.274	0.496
588.000	357.164	80.003	20.010	100.347	19.495	174.918	0.479
590.000	358.165	80.003	20.010	100.331	19.484	178.257	0.517
592.000	359.131	80.003	20.011	100.341	19.475	181.146	0.504
594.000	360.115	80.004	20.010	100.327	19.462	185.064	0.493
596.000	361.050	80.005	20.010	100.348	19.454	187.377	0.478
598.000	362.156	80.006	20.010	100.335	19.446	190.003	0.533
600.000	363.100	80.005	20.010	100.327	19.439	192.081	0.473
602.000	364.116	80.004	20.010	100.330	19.437	192.816	0.494
604.000	365.097	80.004	20.011	100.316	19.439	192.174	0.468
606.000	366.126	80.004	20.010	100.308	19.450	189.081	0.480
608.000	367.145	80.004	20.010	100.287	19.455	187.448	0.526
610.001	368.138	80.003	20.010	100.297	19.457	186.762	0.489
612.000	369.183	80.004	20.010	100.299	19.464	184.800	0.565
614.000	370.139	80.005	20.010	100.360	19.467	183.747	0.473
616.000	371.158	80.005	20.010	100.359	19.470	182.686	0.520
618.000	372.196	80.004	20.010	100.391	19.476	180.987	0.514
620.000	373.162	80.004	20.010	100.396	19.484	178.452	0.481
622.000	374.191	80.005	20.009	100.412	19.490	176.638	0.484
624.000	375.170	80.004	20.009	100.412	19.496	174.682	0.500
626.001	376.177	80.005	20.010	100.398	19.501	173.262	0.494
628.000	377.197	80.005	20.009	100.408	19.512	169.868	0.527
630.001	378.215	80.006	20.010	100.376	19.516	168.755	0.506
632.000	379.235	80.004	20.009	100.412	19.524	166.282	0.519
634.000	380.278	80.003	20.009	100.395	19.537	162.205	0.539
636.000	381.263	80.004	20.010	100.405	19.548	158.841	0.527
638.000	382.340	80.005	20.009	100.403	19.563	154.255	0.519
640.000	383.316	80.005	20.009	100.424	19.576	150.335	0.492
642.000	384.252	80.005	20.009	100.435	19.593	145.058	0.508
644.000	385.340	80.006	20.009	100.425	19.603	142.157	0.547
646.000	386.231	80.005	20.009	100.436	19.621	136.448	0.451
648.000	387.235	80.005	20.009	100.427	19.633	132.770	0.534
650.000	388.225	80.005	20.009	100.460	19.657	125.596	0.496
652.000	389.197	80.005	20.009	100.457	19.671	121.156	0.493
654.000	390.262	80.004	20.009	100.449	19.685	116.746	0.558
656.000	391.246	80.004	20.009	100.457	19.701	111.915	0.489
658.000	392.263	80.004	20.009	100.467	19.722	105.603	0.522
660.000	393.238	80.005	20.009	100.487	19.736	101.276	0.491
662.000	394.278	80.005	20.009	100.493	19.752	96.439	0.502
664.000	395.224	80.005	20.009	100.484	19.768	91.397	0.489
666.000	396.278	80.004	20.009	100.482	19.781	87.444	0.528
668.000	397.214	80.005	20.009	100.487	19.799	81.870	0.489
670.000	398.221	80.004	20.009	100.490	19.813	77.559	0.471
672.000	399.193	80.005	20.009	100.510	19.825	73.703	0.492
674.000	400.223	80.004	20.009	100.468	19.840	69.254	0.493
676.000	401.194	80.006	20.009	100.483	19.853	65.338	0.462
678.000	402.177	80.005	20.009	100.489	19.861	62.740	0.504
680.000	403.193	80.005	20.009	100.460	19.873	59.088	0.488
682.000	404.093	80.004	20.009	100.458	19.885	55.524	0.449
684.000	405.058	80.005	20.009	100.432	19.893	53.016	0.510
686.000	406.046	80.005	20.009	100.451	19.904	49.512	0.510
688.000	407.069	80.005	20.009	100.438	19.917	45.652	0.482
690.000	408.043	80.006	20.009	100.457	19.925	42.993	0.474
692.000	409.035	80.006	20.009	100.455	19.937	39.252	0.465
694.000	410.050	80.005	20.009	100.449	19.946	36.707	0.510
696.000	411.036	80.004	20.009	100.453	19.952	34.737	0.492
698.000	411.980	80.005	20.009	100.451	19.958	32.852	0.475
700.000	412.976	80.005	20.009	100.446	19.965	30.846	0.479
702.000	413.972	80.004	20.009	100.407	19.971	28.807	0.533
704.000	414.972	80.004	20.009	100.412	19.976	27.367	0.492
706.000	415.919	80.005	20.009	100.399	19.984	25.097	0.435
708.000	416.916	80.004	20.009	100.404	19.987	24.140	0.490
710.000	417.939	80.003	20.009	100.403	19.986	24.419	0.504
712.001	418.908	80.005	20.009	100.381	19.990	23.248	0.514
714.000	419.846	80.004	20.009	100.397	19.996	21.417	0.474
716.000	420.819	80.004	20.009	100.373	19.997	20.952	0.474
718.000	421.850	80.004	20.009	100.395	19.998	20.527	0.520
720.000	422.883	80.006	20.009	100.369	19.999	20.219	0.523
722.000	423.813	80.003	20.009	100.385	20.000	19.916	0.502
724.000	424.792	80.003	20.009	100.373	20.003	19.255	0.462
726.000	425.727	80.004	20.009	100.368	20.007	17.916	0.508
728.000	426.742	80.006	20.009	100.366	20.013	16.125	0.476
730.000	427.813	80.004	20.009	100.365	20.010	17.098	0.566
732.000	428.783	80.004	20.009	100.386	20.012	16.473	0.494
734.000	429.741	80.003	20.009	100.375	20.013	15.913	0.486
736.000	430.699	80.004	20.009	100.377	20.018	14.413	0.440
738.000	431.706	80.004	20.010	100.382	20.018	14.640	0.503
740.000	432.645	80.004	20.009	100.386	20.017	14.977	0.472
742.000	433.677	80.005	20.009	100.386	20.016	15.173	0.491
744.000	434.733	80.004	20.009	100.378	20.015	15.379	0.538
746.000	435.657	80.005	20.008	100.369	20.015	15.396	0.484
748.000	436.687	80.004	20.009	100.381	20.017	14.700	0.496
750.000	437.661	80.003	20.009	100.372	20.018	14.616	0.450
752.000	438.731	80.003	20.009	100.348	20.017	14.904	0.517
754.000	439.720	80.003	20.009	100.365	20.016	15.111	0.522
756.000	440.711	80.004	20.009	100.346	20.016	15.059	0.523
758.000	441.715	80.004	20.009	100.343	20.015	15.375	0.523
760.000	442.741	80.003	20.009	100.320	20.014	15.784	0.493
762.000	443.710	80.004	20.009	100.332	20.013	16.099	0.501
764.000	444.759	80.004	20.009	100.336	20.019	14.180	0.521
766.000	445.768	80.004	20.009	100.342	20.018	14.606	0.520
768.000	446.767	80.004	20.009	100.343	20.018	14.663	0.501
770.000	447.780	80.004	20.009	100.322	20.015	15.296	0.450
772.000	448.725	80.003	20.009	100.331	20.019	14.223	0.468
774.000	449.750	80.004	20.009	100.318	20.017	14.952	0.521
776.000	450.732	80.004	20.010	100.331	20.017	14.885	0.506
778.000	451.753	80.004	20.009	100.335	20.017	14.701	0.460
780.000	452.804	80.004	20.009	100.341	20.019	14.314	0.540
782.000	453.799	80.003	20.009	100.351	20.021	13.630	0.518
784.000	454.749	80.004	20.009	100.344	20.020	13.891	0.487
786.000	455.764	80.004	20.009	100.364	20.022	13.238	0.479
788.000	456.767	80.004	20.009	100.343	20.020	14.006	0.502
790.000	457.710	80.003	20.009	100.348	20.018	14.382	0.476
792.000	458.701	80.005	20.009	100.337	20.016	15.145	0.491
794.001	459.746	80.004	20.009	100.354	20.020	13.797	0.511
796.000	460.716	80.004	20.009	100.350	20.017	14.848	0.485
798.000	461.698	80.002	20.009	100.343	20.017	14.682	0.514
800.000	462.661	80.004	20.008	100.339	20.020	13.968	0.504
802.000	463.669	80.004	20.009	100.328	20.017	14.812	0.520
804.000	464.620	80.003	20.009	100.346	20.013	15.957	0.443
806.000	465.621	80.002	20.007	100.347	20.014	15.768	0.500
808.000	466.591	80.004	20.010	100.298	20.017	14.965	0.471
810.000	467.650	80.004	20.010	100.320	20.019	14.144	0.566
812.000	468.614	80.004	20.009	100.405	20.019	14.260	0.505
814.000	469.637	80.004	20.009	100.352	20.020	13.825	0.490
816.000	470.644	80.004	20.009	100.330	20.020	13.808	0.531
818.000	471.592	80.005	20.008	100.349	20.021	13.513	0.478
820.000	472.521	80.004	20.008	100.338	20.021	13.740	0.462
822.000	473.564	80.005	20.009	100.362	20.022	13.316	0.514
824.000	474.566	80.005	20.009	100.334	20.021	13.453	0.521
826.000	475.556	80.002	20.009	100.337	20.023	12.849	0.484
828.000	476.552	80.003	20.009	100.360	20.023	12.920	0.515
830.000	477.557	80.004	20.010	100.352	20.024	12.679	0.461
832.000	478.566	80.002	20.008	100.351	20.021	13.491	0.513
834.000	479.571	80.004	20.009	100.327	20.021	13.735	0.498
836.000	480.564	80.004	20.008	100.341	20.019	14.067	0.531
838.000	481.580	80.005	20.009	100.328	20.018	14.471	0.526
840.000	482.551	80.004	20.009	100.358	20.020	13.906	0.515
842.000	483.566	80.004	20.008	100.325	20.021	13.638	0.509
844.000	484.557	80.004	20.009	100.340	20.020	13.765	0.487
846.000	485.530	80.004	20.008	100.334	20.022	13.358	0.451
848.000	486.521	80.006	20.009	100.358	20.023	12.880	0.513
850.000	487.499	80.004	20.009	100.361	20.021	13.534	0.482
852.000	488.482	80.003	20.008	100.331	20.023	13.095	0.484
854.000	489.507	80.004	20.008	100.337	20.025	12.435	0.478
856.000	490.496	80.003	20.009	100.348	20.022	13.253	0.497
858.000	491.509	80.004	20.009	100.356	20.022	13.182	0.538
860.000	492.490	80.003	20.009	100.334	20.022	13.414	0.504
862.000	493.494	80.005	20.008	100.351	20.020	13.848	0.519
864.000	494.509	80.003	20.009	100.335	20.021	13.497	0.505
866.000	495.464	80.004	20.008	100.355	20.021	13.470	0.471
868.000	496.483	80.004	20.009	100.339	20.021	13.565	0.490
870.000	497.463	80.004	20.009	100.361	20.019	14.326	0.490
872.000	498.453	80.003	20.008	100.337	20.022	13.281	0.497
874.000	499.462	80.005	20.009	100.338	20.022	13.298	0.504
876.000	500.427	80.005	20.009	100.320	20.017	14.699	0.470
878.000	501.379	80.006	20.009	100.329	20.020	14.002	0.517
880.000	502.400	80.005	20.009	100.319	20.016	15.248	0.515
882.000	503.374	80.006	20.009	100.358	20.019	14.138	0.498
884.000	504.329	80.004	20.009	100.344	20.024	12.820	0.476
886.000	505.293	80.003	20.009	100.361	20.025	12.277	0.444
888.001	506.326	80.004	20.008	100.350	20.025	12.389	0.482
890.000	507.283	80.004	20.009	100.361	20.025	12.231	0.504
892.000	508.281	80.004	20.009	100.374	20.025	12.401	0.438
894.000	509.263	80.003	20.009	100.361	20.022	13.404	0.482
896.000	510.258	80.003	20.008	100.361	20.022	13.437	0.461
898.000	511.350	80.005	20.009	100.350	20.020	13.768	0.535
900.000	512.322	80.004	20.009	100.353	20.023	13.065	0.472
902.000	513.356	80.005	20.009	100.345	20.019	14.068	0.505
904.000	514.318	80.004	20.008	100.349	20.021	13.642	0.445
906.000	515.344	80.005	20.009	100.339	20.021	13.708	0.507
908.000	516.330	80.004	20.008	100.368	20.020	13.935	0.506
910.000	517.318	80.005	20.009	100.347	20.020	13.852	0.492
912.000	518.341	80.006	20.009	100.363	20.023	13.071	0.453
914.000	519.336	80.004	20.009	100.348	20.019	14.132	0.500
916.000	520.354	80.005	20.009	100.355	20.019	14.209	0.469
918.000	521.314	80.004	20.008	100.341	20.019	14.183	0.465
920.000	522.301	80.005	20.009	100.339	20.018	14.431	0.470
922.001	523.315	80.004	20.008	100.355	20.023	13.050	0.467
924.000	524.259	80.004	20.009	100.344	20.018	14.520	0.475
926.000	525.315	80.004	20.008	100.361	20.018	14.461	0.518
928.000	526.331	80.005	20.009	100.343	20.016	15.018	0.519
930.000	527.311	80.006	20.008	100.356	20.019	14.143	0.499
932.000	528.340	80.005	20.008	100.342	20.016	15.180	0.530
934.000	529.316	80.004	20.009	100.351	20.017	14.806	0.496
936.000	530.266	80.005	20.008	100.330	20.019	14.233	0.460
938.000	531.301	80.005	20.009	100.336	20.022	13.364	0.493
940.000	532.238	80.006	20.008	100.358	20.017	14.703	0.481
942.000	533.266	80.004	20.009	100.351	20.017	14.739	0.483
944.000	534.254	80.004	20.008	100.356	20.017	14.899	0.472
946.000	535.256	80.004	20.009	100.346	20.015	15.507	0.520
948.000	536.246	80.004	20.009	100.340	20.016	15.256	0.487
950.000	537.198	80.004	20.009	100.331	20.017	14.964	0.493
952.000	538.202	80.005	20.009	100.356	20.020	13.977	0.495
954.000	539.248	80.004	20.008	100.353	20.020	13.996	0.511
956.000	540.197	80.006	20.009	100.368	20.022	13.193	0.459
958.000	541.171	80.004	20.009	100.358	20.016	14.986	0.471
960.000	542.118	80.004	20.008	100.359	20.018	14.440	0.449
962.000	543.106	80.005	20.009	100.354	20.020	13.939	0.486
964.000	544.063	80.004	20.009	100.349	20.015	15.366	0.490
966.000	545.040	80.005	20.009	100.372	20.020	13.826	0.471
968.000	546.050	80.004	20.009	100.364	20.022	13.249	0.504
970.000	547.016	80.004	20.009	100.376	20.021	13.723	0.477
972.000	547.996	80.005	20.008	100.375	20.020	13.967	0.494
974.000	548.867	80.004	20.009	100.363	20.018	14.590	0.476
976.000	549.878	80.004	20.009	100.385	20.020	13.808	0.508
978.000	550.881	80.003	20.009	100.389	20.020	13.833	0.472
980.000	551.811	80.006	20.008	100.394	20.020	13.798	0.482
982.000	552.751	80.005	20.009	100.357	20.018	14.407	0.470
984.000	553.790	80.005	20.009	100.349	20.021	13.476	0.537
986.000	554.752	80.005	20.008	100.357	20.019	14.079	0.476
988.000	555.762	80.005	20.009	100.366	20.018	14.419	0.480
990.000	556.773	80.004	20.009	100.360	20.021	13.651	0.507
992.000	557.713	80.004	20.009	100.359	20.019	14.323	0.479
994.000	558.717	80.004	20.009	100.396	20.019	14.195	0.526
996.000	559.718	80.005	20.009	100.359	20.019	14.248	0.518
998.000	560.710	80.005	20.009	100.356	20.016	15.065	0.524
1000.000	561.772	80.004	20.008	100.359	20.018	14.632	0.535
1002.000	562.748	80.003	20.009	100.357	20.017	14.953	0.496
1004.000	563.766	80.004	20.009	100.373	20.019	14.307	0.482
1006.000	564.698	80.005	20.009	100.371	20.022	13.247	0.486
1008.000	565.719	80.003	20.009	100.405	20.019	14.063	0.511
1010.000	566.725	80.003	20.008	100.380	20.021	13.660	0.488
1012.000	567.760	80.005	20.009	100.362	20.023	13.065	0.517
1014.001	568.797	80.005	20.008	100.363	20.020	13.897	0.500
1016.000	569.795	80.004	20.009	100.352	20.018	14.627	0.521
1018.000	570.816	80.003	20.009	100.367	20.016	15.172	0.519
1020.000	571.788	80.005	20.009	100.329	20.017	14.882	0.477
1022.000	572.763	80.005	20.009	100.337	20.019	14.270	0.477
1024.000	573.792	80.004	20.009	100.336	20.017	14.752	0.491
1026.000	574.753	80.005	20.009	100.352	20.016	15.072	0.489
1028.001	575.780	80.004	20.009	100.361	20.016	15.174	0.476
1030.000	576.703	80.004	20.009	100.347	20.017	14.940	0.469
1032.000	577.736	80.003	20.009	100.367	20.016	15.155	0.508
1034.001	578.739	80.003	20.009	100.360	20.018	14.406	0.548
1036.000	579.756	80.004	20.009	100.372	20.014	15.682	0.527
1038.001	580.719	80.004	20.009	100.378	20.013	15.993	0.476
1040.001	581.719	80.004	20.009	100.365	20.013	15.936	0.480
1042.000	582.725	80.004	20.009	100.372	20.019	14.349	0.526
1044.000	583.693	80.005	20.009	100.364	20.015	15.435	0.512
1046.000	584.745	80.004	20.009	100.377	20.019	14.257	0.523
1048.000	585.732	80.004	20.009	100.354	20.016	15.175	0.496
1050.000	586.743	80.005	20.009	100.373	20.019	14.179	0.532
1052.000	587.739	80.004	20.009	100.364	20.019	14.270	0.485
1054.001	588.707	80.004	20.009	100.373	20.018	14.623	0.495
1056.000	589.702	80.004	20.008	100.377	20.016	15.232	0.514
1058.001	590.719	80.005	20.009	100.367	20.016	15.006	0.524
1060.000	591.719	80.004	20.009	100.379	20.016	15.022	0.513
1062.000	592.746	80.004	20.008	100.368	20.018	14.628	0.490
1064.000	593.696	80.006	20.008	100.372	20.015	15.426	0.472
1066.000	594.716	80.003	20.009	100.373	20.016	15.206	0.485
1068.000	595.714	80.003	20.009	100.362	20.014	15.778	0.511
1070.000	596.696	80.004	20.009	100.367	20.015	15.342	0.485
1072.000	597.681	80.004	20.010	100.355	20.017	14.752	0.513
1074.000	598.758	80.005	20.008	100.367	20.015	15.324	0.534
1076.001	599.737	80.005	20.009	100.356	20.010	16.927	0.521
1078.000	600.742	80.003	20.009	100.368	20.014	15.753	0.495
1080.001	601.742	80.006	20.009	100.346	20.013	16.215	0.503
1082.000	602.774	80.005	20.008	100.369	20.014	15.710	0.526
1084.001	603.774	80.005	20.009	100.359	20.012	16.430	0.501
1086.000	604.788	80.005	20.009	100.377	20.015	15.490	0.491
1088.000	605.849	80.004	20.008	100.370	20.015	15.548	0.512
1090.001	606.883	80.005	20.010	100.378	20.017	14.841	0.510
1092.000	607.832	80.004	20.008	100.385	20.018	14.582	0.505
1094.001	608.881	80.005	20.009	100.397	20.017	14.697	0.525
1096.000	609.892	80.005	20.008	100.381	20.015	15.521	0.542
1098.000	610.915	80.004	20.009	100.353	20.013	15.950	0.506
1100.001	611.868	80.005	20.009	100.349	20.013	15.951	0.483
1102.000	612.871	80.005	20.009	100.338	20.015	15.576	0.508
1104.001	613.909	80.005	20.009	100.369	20.013	16.009	0.476
1106.001	614.954	80.003	20.009	100.368	20.016	15.129	0.517
1108.000	615.940	80.006	20.009	100.393	20.012	16.494	0.494
1110.000	617.001	80.005	20.009	100.374	20.016	15.065	0.507
1112.000	617.958	80.004	20.009	100.377	20.016	15.137	0.467
1114.000	618.955	80.004	20.009	100.399	20.020	14.044	0.482
1116.000	619.963	80.004	20.009	100.388	20.016	15.083	0.507
1118.000	620.971	80.004	20.009	100.380	20.016	15.054	0.486
1120.001	621.953	80.004	20.009	100.361	20.015	15.460	0.466
1122.001	622.993	80.004	20.009	100.381	20.015	15.548	0.558
1124.001	623.929	80.003	20.009	100.371	20.015	15.572	0.504
1126.001	624.947	80.004	20.009	100.381	20.015	15.576	0.525
1128.001	625.931	80.005	20.009	100.390	20.012	16.300	0.495
1130.000	626.950	80.003	20.009	100.402	20.014	15.701	0.506
1132.000	627.913	80.005	20.009	100.392	20.013	16.094	0.483
1134.000	628.936	80.005	20.009	100.399	20.011	16.540	0.493
1136.001	629.891	80.005	20.009	100.380	20.011	16.713	0.436
1138.000	630.872	80.004	20.009	100.357	20.006	18.286	0.514
1140.001	631.823	80.004	20.009	100.370	20.009	17.384	0.492
1142.000	632.789	80.004	20.009	100.360	20.008	17.663	0.514
1144.001	633.760	80.005	20.009	100.379	20.010	16.898	0.517
1146.000	634.796	80.005	20.009	100.386	20.012	16.333	0.551
1148.001	635.721	80.005	20.009	100.408	20.015	15.504	0.480
1150.001	636.777	80.004	20.009	100.393	20.013	16.098	0.508
1152.001	637.749	80.005	20.009	100.422	20.009	17.255	0.497
1154.001	638.773	80.004	20.009	100.396	20.008	17.672	0.525
1156.000	639.788	80.004	20.009	100.367	20.008	17.579	0.532
1158.000	640.755	80.005	20.009	100.404	20.010	16.828	0.505
1160.001	641.756	80.003	20.009	100.395	20.011	16.669	0.506
1162.000	642.774	80.005	20.009	100.413	20.010	16.962	0.529
1164.000	643.781	80.004	20.009	100.401	20.011	16.652	0.495
1166.001	644.787	80.005	20.009	100.393	20.010	17.047	0.490
1168.000	645.741	80.004	20.009	100.374	20.008	17.570	0.493
1170.000	646.729	80.005	20.009	100.389	20.010	17.043	0.494
1172.000	647.746	80.003	20.009	100.392	20.014	15.735	0.502
1174.000	648.721	80.005	20.010	100.388	20.015	15.400	0.486
1176.001	649.754	80.005	20.009	100.404	20.010	16.838	0.495
1178.000	650.767	80.004	20.009	100.358	20.006	18.163	0.508
1180.000	651.734	80.005	20.009	100.363	20.006	18.182	0.521
1182.000	652.714	80.003	20.008	100.357	20.006	18.202	0.493
1184.000	653.736	80.005	20.009	100.378	20.000	20.062	0.518
1186.000	654.755	80.003	20.007	100.388	20.003	19.203	0.473
1188.000	655.760	80.004	20.009	100.319	20.002	19.434	0.500
1190.001	656.782	80.005	20.009	100.376	20.007	17.978	0.496
1192.000	657.763	80.004	20.009	100.399	20.012	16.514	0.495
1194.001	658.741	80.005	20.009	100.469	20.010	17.011	0.459
1196.000	659.743	80.005	20.009	100.393	20.010	16.840	0.500
1198.001	660.741	80.005	20.009	100.366	20.010	16.858	0.501
1200.000	661.728	80.005	20.009	100.398	20.007	17.924	0.461
1202.000	662.744	80.004	20.008	100.397	20.010	16.913	0.501
1204.000	663.781	80.005	20.009	100.384	20.007	18.035	0.547
1206.000	664.848	80.004	20.008	100.371	20.008	17.602	0.537
1208.000	665.859	80.005	20.009	100.371	20.009	17.237	0.473
1210.000	666.868	80.006	20.009	100.377	20.004	18.811	0.536
1212.001	667.948	80.005	20.009	100.353	20.006	18.175	0.525
1214.000	668.899	80.004	20.009	100.372	20.001	19.633	0.496
1216.000	669.895	80.005	20.008	100.391	20.003	19.189	0.529
1218.000	670.914	80.005	20.009	100.389	20.006	18.248	0.526
1220.000	671.860	80.005	20.009	100.376	20.004	18.691	0.455
1222.000	672.915	80.004	20.009	100.371	20.007	17.908	0.494
1224.001	673.953	80.004	20.009	100.378	20.005	18.416	0.510
1226.000	674.940	80.005	20.008	100.378	20.008	17.696	0.489
1228.001	675.952	80.006	20.009	100.396	20.010	16.977	0.525
1230.001	676.903	80.004	20.008	100.421	20.012	16.268	0.475
1232.001	677.947	80.004	20.009	100.415	20.015	15.313	0.491
1234.001	678.962	80.006	20.009	100.430	20.012	16.229	0.500
1236.000	679.961	80.006	20.009	100.408	20.010	16.924	0.478
1238.000	680.964	80.005	20.010	100.402	20.004	18.682	0.475
1240.001	681.952	80.005	20.009	100.388	20.006	18.165	0.453
1242.000	683.024	80.005	20.009	100.360	20.007	17.826	0.518
1244.000	684.000	80.003	20.009	100.383	20.003	19.135	0.521
1246.000	685.022	80.004	20.009	100.375	20.003	19.225	0.469
1248.000	686.088	80.005	20.009	100.366	20.002	19.326	0.532
1250.000	687.040	80.006	20.009	100.373	20.001	19.727	0.455
1252.000	688.044	80.005	20.009	100.384	20.004	18.876	0.495
1254.000	689.057	80.005	20.009	100.407	20.002	19.552	0.500
1256.001	690.134	80.006	20.009	100.393	20.003	19.242	0.560
1258.000	691.124	80.005	20.009	100.393	20.005	18.478	0.517
1260.000	692.142	80.005	20.009	100.408	20.005	18.587	0.499
1262.000	693.102	80.006	20.009	100.397	20.006	18.364	0.443
1264.000	694.118	80.005	20.009	100.410	20.004	18.845	0.528
1266.001	695.100	80.004	20.009	100.399	20.003	19.178	0.494
1268.000	696.123	80.005	20.008	100.399	20.003	18.983	0.489
1270.000	697.137	80.005	20.008	100.393	20.005	18.378	0.515
1272.001	698.154	80.005	20.009	100.394	20.001	19.651	0.510
1274.001	699.180	80.003	20.009	100.411	20.002	19.581	0.533
1276.000	700.190	80.004	20.009	100.413	20.007	17.800	0.492
1278.001	701.210	80.005	20.009	100.401	20.003	19.251	0.506
1280.000	702.214	80.004	20.009	100.390	20.000	19.967	0.556
1282.000	703.148	80.005	20.009	100.377	20.004	18.969	0.462
1284.001	704.210	80.005	20.009	100.404	20.006	18.114	0.524
1286.001	705.225	80.004	20.009	100.414	20.006	18.164	0.538
1288.000	706.166	80.004	20.009	100.388	19.999	20.470	0.485
1290.000	707.206	80.004	20.009	100.358	19.999	20.375	0.501
1292.001	708.295	80.005	20.009	100.356	19.999	20.508	0.581
1294.001	709.215	80.004	20.009	100.379	19.998	20.633	0.459
1296.000	710.246	80.004	20.009	100.394	20.004	18.906	0.515
1298.001	711.214	80.004	20.010	100.393	20.007	18.053	0.504
1300.000	712.242	80.005	20.009	100.408	20.006	18.255	0.556
1302.001	713.254	80.005	20.009	100.390	20.002	19.412	0.496
1304.000	714.204	80.005	20.009	100.379	19.998	20.514	0.521
1306.001	715.168	80.004	20.009	100.365	20.000	19.973	0.496
1308.000	716.143	80.004	20.010	100.359	19.998	20.545	0.480
1310.001	717.112	80.004	20.009	100.382	19.997	21.044	0.468
1312.000	718.105	80.005	20.009	100.362	19.995	21.459	0.486
1314.000	718.987	80.006	20.011	100.357	19.998	20.543	0.426
1316.001	719.903	80.003	20.010	100.350	19.999	20.346	0.467
1318.000	720.766	80.005	20.009	100.377	20.000	20.097	0.429
1320.001	721.690	80.005	20.009	100.410	19.998	20.829	0.438
1322.000	722.630	80.004	20.009	100.418	19.998	20.670	0.496
1324.001	723.528	80.001	20.012	100.400	19.996	21.371	0.461
1326.000	724.499	80.004	20.008	100.356	20.000	20.217	0.465
1328.000	725.407	80.006	20.009	100.370	20.001	19.905	0.472
1330.000	726.432	80.005	20.009	100.512	20.003	19.053	0.491
1332.000	727.408	80.005	20.009	100.436	20.001	19.809	0.512
1334.000	728.340	80.004	20.010	100.387	20.002	19.589	0.470
1336.000	729.327	80.005	20.008	100.387	20.003	19.037	0.500
1338.001	730.331	80.004	20.008	100.475	20.005	18.556	0.512
1340.000	731.332	80.004	20.009	100.471	20.009	17.359	0.513
1342.000	732.370	80.004	20.008	100.451	20.010	16.918	0.504
1344.001	733.339	80.004	20.009	100.448	20.005	18.639	0.506
1346.000	734.372	80.004	20.009	100.443	20.003	19.128	0.508
1348.000	735.450	80.004	20.009	100.411	19.998	20.730	0.574
1350.000	736.552	80.006	20.009	100.389	19.996	21.403	0.568
1352.000	737.582	80.004	20.009	100.410	19.991	22.895	0.559
1354.000	738.635	80.004	20.009	100.402	19.991	22.889	0.526
1356.000	739.753	80.005	20.009	100.397	19.988	23.654	0.547
1358.000	740.764	80.005	20.009	100.397	19.990	23.274	0.506
1360.001	741.853	80.005	20.009	100.392	19.990	23.159	0.541
1360.501	742.128	80.005	20.009	100.397	19.989	23.302	0.559