File: Experiments/TGA/TUBS/mcc/mcc_powder_2mg_dyn30_r3.txt
Sample Weight (mg):	1.99
Heating Rate (C/s):	0.5
Combustor Temp (C):	900
N2 Flow Rate (cc/min):	80
O2 Flow Rate (cc/min):	20
Time (s)	Temperature (C)	N2 flow rate (cc/min)	O2 flow rate (cc/min)	Flow Rate (cc/min)	Oxygen (%)	HRR (W/g)	Heating rate (C/s)
0.000	90.066	80.001	20.008	99.898	20.069	1.133	-0.157
2.000	89.803	80.003	20.008	99.882	20.057	3.170	-0.172
4.000	89.532	80.005	20.009	99.993	20.036	6.364	-0.138
6.000	89.234	80.004	20.009	100.192	20.026	8.031	-0.166
8.000	89.006	80.005	20.009	100.324	20.017	9.406	-0.119
10.001	88.750	80.006	20.008	100.371	20.011	10.410	-0.138
12.000	88.554	80.003	20.008	100.371	20.006	11.077	-0.101
14.000	88.419	80.003	20.009	100.373	20.004	11.437	-0.064
16.000	88.246	80.005	20.009	100.352	20.003	11.557	-0.105
18.000	88.046	80.004	20.009	100.370	19.999	12.268	-0.112
20.000	87.860	80.003	20.009	100.351	19.996	12.643	-0.069
22.000	87.760	80.004	20.009	100.399	19.998	12.342	-0.042
24.000	87.647	80.005	20.009	100.377	19.996	12.720	-0.109
26.000	87.551	80.004	20.009	100.395	19.997	12.545	-0.072
28.000	87.520	80.005	20.009	100.396	19.999	12.238	0.007
30.000	87.439	80.005	20.010	100.407	19.996	12.752	-0.052
32.001	87.393	80.005	20.010	100.384	19.999	12.174	-0.035
34.001	87.408	80.004	20.009	100.350	19.994	12.989	0.018
36.000	87.378	80.004	20.009	100.363	19.994	12.983	0.008
38.000	87.390	80.005	20.009	100.395	19.990	13.695	-0.015
40.001	87.393	80.004	20.009	100.449	19.990	13.651	-0.026
42.000	87.485	80.005	20.009	100.435	19.987	14.201	-0.024
44.000	87.576	80.005	20.009	100.450	19.983	14.733	0.050
46.000	87.652	80.005	20.009	100.444	19.983	14.801	0.031
48.000	87.793	80.004	20.009	100.436	19.981	15.041	0.083
50.000	87.957	80.004	20.009	100.468	19.977	15.649	0.046
52.000	88.123	80.004	20.009	100.457	19.980	15.203	0.128
54.000	88.263	80.005	20.009	100.448	19.978	15.613	0.095
56.000	88.441	80.004	20.010	100.449	19.974	16.119	0.109
58.000	88.670	80.004	20.009	100.474	19.976	15.816	0.106
60.000	88.968	80.003	20.009	100.462	19.979	15.465	0.166
62.001	89.233	80.004	20.009	100.465	19.979	15.442	0.155
64.000	89.536	80.004	20.009	100.429	19.978	15.548	0.146
66.000	89.813	80.005	20.010	100.427	19.978	15.479	0.098
68.000	90.144	80.004	20.009	100.442	19.973	16.353	0.173
70.001	90.471	80.004	20.009	100.473	19.971	16.704	0.154
72.000	90.840	80.005	20.009	100.485	19.965	17.558	0.202
74.001	91.258	80.005	20.009	100.502	19.968	17.185	0.194
76.000	91.716	80.006	20.009	100.511	19.965	17.621	0.239
78.000	92.135	80.004	20.009	100.497	19.964	17.739	0.221
80.001	92.614	80.003	20.010	100.516	19.961	18.190	0.227
82.000	93.161	80.005	20.009	100.530	19.962	18.142	0.267
84.000	93.667	80.004	20.009	100.538	19.962	18.073	0.269
86.001	94.193	80.005	20.009	100.569	19.959	18.483	0.297
88.000	94.713	80.004	20.009	100.574	19.957	18.837	0.260
90.000	95.356	80.005	20.009	100.555	19.956	18.961	0.302
92.000	95.993	80.004	20.009	100.565	19.953	19.525	0.335
94.000	96.603	80.005	20.009	100.566	19.951	19.852	0.318
96.000	97.264	80.004	20.009	100.576	19.949	20.114	0.321
98.000	97.921	80.005	20.009	100.588	19.948	20.316	0.346
100.000	98.689	80.005	20.009	100.600	19.950	20.054	0.405
102.000	99.431	80.006	20.009	100.593	19.948	20.284	0.423
104.001	100.164	80.005	20.009	100.597	19.948	20.318	0.377
106.001	100.952	80.005	20.009	100.585	19.946	20.533	0.355
108.001	101.759	80.004	20.009	100.578	19.946	20.647	0.417
110.000	102.605	80.005	20.009	100.596	19.948	20.251	0.426
112.000	103.413	80.003	20.009	100.569	19.949	20.110	0.400
114.000	104.359	80.005	20.009	100.597	19.946	20.635	0.492
116.000	105.276	80.005	20.009	100.593	19.947	20.468	0.450
118.000	106.128	80.004	20.009	100.593	19.944	20.906	0.437
120.000	107.015	80.005	20.009	100.591	19.943	21.063	0.453
122.001	107.972	80.006	20.009	100.592	19.945	20.771	0.451
124.001	108.965	80.007	20.009	100.604	19.945	20.767	0.481
126.000	109.926	80.005	20.009	100.584	19.943	21.139	0.485
128.000	110.944	80.005	20.009	100.597	19.949	20.058	0.471
130.000	111.961	80.006	20.009	100.579	19.949	20.206	0.468
132.000	113.026	80.005	20.009	100.596	19.947	20.381	0.524
134.000	114.014	80.004	20.009	100.591	19.945	20.749	0.478
136.000	115.106	80.005	20.009	100.582	19.945	20.743	0.541
138.000	116.182	80.004	20.009	100.562	19.945	20.815	0.544
140.000	117.289	80.005	20.009	100.559	19.942	21.226	0.551
142.000	118.374	80.005	20.009	100.575	19.947	20.433	0.567
144.000	119.525	80.007	20.009	100.560	19.946	20.661	0.578
146.000	120.623	80.004	20.009	100.580	19.947	20.493	0.545
148.000	121.676	80.004	20.009	100.576	19.945	20.755	0.549
150.000	122.811	80.005	20.009	100.592	19.949	20.096	0.557
152.000	123.967	80.005	20.009	100.599	19.954	19.311	0.573
154.000	125.055	80.005	20.010	100.578	19.951	19.850	0.531
156.000	126.209	80.004	20.009	100.569	19.952	19.608	0.530
158.000	127.402	80.004	20.010	100.550	19.948	20.285	0.601
160.000	128.496	80.004	20.009	100.562	19.950	19.918	0.587
162.000	129.669	80.004	20.009	100.536	19.949	20.167	0.608
164.000	130.824	80.005	20.009	100.535	19.945	20.806	0.583
166.000	132.015	80.004	20.009	100.505	19.948	20.198	0.618
168.000	133.206	80.005	20.009	100.530	19.948	20.334	0.588
170.000	134.383	80.003	20.009	100.512	19.946	20.565	0.589
172.000	135.520	80.004	20.009	100.519	19.946	20.569	0.578
174.000	136.688	80.004	20.009	100.520	19.947	20.365	0.572
176.000	137.874	80.005	20.009	100.490	19.946	20.618	0.558
178.000	139.006	80.005	20.009	100.493	19.945	20.768	0.578
180.000	140.155	80.004	20.009	100.478	19.948	20.352	0.587
182.000	141.320	80.005	20.009	100.496	19.947	20.503	0.622
184.000	142.495	80.005	20.009	100.475	19.947	20.471	0.578
186.000	143.591	80.005	20.009	100.489	19.949	20.083	0.546
188.000	144.751	80.005	20.009	100.481	19.951	19.843	0.589
190.000	145.914	80.005	20.010	100.476	19.948	20.211	0.584
192.000	147.026	80.004	20.009	100.491	19.945	20.802	0.515
194.000	148.171	80.005	20.009	100.482	19.943	21.036	0.592
196.000	149.304	80.004	20.009	100.490	19.942	21.266	0.598
198.000	150.438	80.004	20.009	100.465	19.941	21.412	0.560
200.000	151.611	80.003	20.009	100.464	19.939	21.643	0.557
202.000	152.811	80.005	20.009	100.460	19.930	23.086	0.591
204.000	153.975	80.005	20.009	100.442	19.932	22.805	0.555
206.000	155.021	80.006	20.009	100.459	19.928	23.356	0.556
208.000	156.085	80.005	20.009	100.436	19.924	23.972	0.566
210.000	157.189	80.005	20.009	100.443	19.920	24.710	0.570
212.000	158.235	80.004	20.009	100.419	19.922	24.356	0.505
214.000	159.409	80.005	20.009	100.404	19.915	25.490	0.557
216.000	160.423	80.005	20.009	100.376	19.910	26.306	0.530
218.001	161.487	80.005	20.009	100.423	19.913	25.788	0.482
220.000	162.570	80.006	20.009	100.432	19.906	26.845	0.520
222.000	163.643	80.004	20.009	100.434	19.905	27.061	0.546
224.001	164.692	80.005	20.009	100.399	19.899	27.920	0.577
226.000	165.750	80.006	20.009	100.416	19.896	28.485	0.536
228.000	166.833	80.005	20.010	100.407	19.897	28.311	0.568
230.000	167.758	80.005	20.009	100.419	19.893	28.876	0.454
232.000	168.859	80.005	20.009	100.402	19.893	28.955	0.515
234.000	169.908	80.005	20.009	100.415	19.894	28.801	0.508
236.000	170.943	80.005	20.009	100.403	19.894	28.756	0.505
238.000	172.019	80.006	20.009	100.406	19.896	28.496	0.554
240.000	173.090	80.004	20.009	100.412	19.895	28.539	0.580
242.000	174.074	80.004	20.010	100.398	19.897	28.279	0.501
244.000	175.107	80.006	20.009	100.406	19.901	27.579	0.498
246.000	176.138	80.005	20.009	100.415	19.905	27.075	0.504
248.000	177.202	80.007	20.009	100.416	19.905	26.978	0.521
250.000	178.192	80.006	20.009	100.402	19.912	26.004	0.504
252.001	179.227	80.004	20.009	100.417	19.914	25.689	0.496
254.000	180.327	80.005	20.009	100.415	19.914	25.694	0.552
256.000	181.273	80.005	20.009	100.428	19.920	24.683	0.514
258.000	182.271	80.005	20.009	100.409	19.922	24.350	0.476
260.000	183.316	80.006	20.009	100.409	19.925	23.808	0.482
262.000	184.351	80.005	20.009	100.429	19.931	22.909	0.493
264.000	185.304	80.005	20.009	100.430	19.933	22.668	0.472
266.000	186.341	80.004	20.009	100.445	19.940	21.463	0.499
268.000	187.361	80.005	20.009	100.457	19.943	21.001	0.507
270.000	188.379	80.003	20.009	100.461	19.944	20.854	0.525
272.000	189.386	80.005	20.010	100.436	19.946	20.527	0.514
274.000	190.356	80.004	20.009	100.451	19.950	20.006	0.501
276.000	191.359	80.005	20.009	100.423	19.949	20.078	0.520
278.000	192.343	80.005	20.009	100.449	19.954	19.387	0.455
280.000	193.347	80.006	20.009	100.445	19.956	19.029	0.471
282.000	194.388	80.004	20.009	100.452	19.959	18.494	0.516
284.000	195.354	80.005	20.009	100.429	19.958	18.651	0.515
286.000	196.391	80.005	20.009	100.432	19.963	17.843	0.518
288.000	197.383	80.004	20.009	100.425	19.964	17.769	0.486
290.000	198.407	80.005	20.009	100.404	19.966	17.372	0.484
292.000	199.382	80.005	20.009	100.432	19.969	17.019	0.443
294.000	200.451	80.005	20.009	100.422	19.970	16.837	0.535
296.000	201.457	80.005	20.009	100.431	19.968	17.092	0.504
298.000	202.473	80.004	20.009	100.397	19.969	16.917	0.553
300.000	203.495	80.006	20.009	100.413	19.969	16.898	0.497
302.000	204.540	80.004	20.009	100.408	19.968	17.114	0.551
304.000	205.538	80.005	20.009	100.425	19.970	16.786	0.515
306.000	206.572	80.005	20.009	100.443	19.971	16.617	0.517
308.000	207.579	80.005	20.009	100.436	19.971	16.633	0.504
310.000	208.624	80.005	20.009	100.434	19.973	16.323	0.528
312.000	209.606	80.004	20.009	100.422	19.972	16.534	0.481
314.000	210.629	80.005	20.009	100.413	19.972	16.532	0.505
316.000	211.653	80.004	20.009	100.394	19.971	16.713	0.521
318.001	212.636	80.004	20.009	100.412	19.971	16.636	0.525
320.000	213.674	80.004	20.009	100.397	19.971	16.603	0.529
322.000	214.692	80.004	20.010	100.403	19.971	16.598	0.546
324.000	215.744	80.004	20.009	100.397	19.970	16.867	0.509
326.000	216.742	80.005	20.009	100.387	19.972	16.441	0.504
328.000	217.759	80.004	20.009	100.408	19.971	16.627	0.497
330.000	218.778	80.005	20.009	100.389	19.972	16.509	0.506
332.000	219.790	80.005	20.009	100.414	19.974	16.239	0.520
334.000	220.785	80.006	20.010	100.397	19.972	16.523	0.495
336.000	221.760	80.005	20.009	100.408	19.977	15.750	0.503
338.000	222.812	80.006	20.009	100.387	19.977	15.693	0.528
340.000	223.801	80.004	20.009	100.407	19.976	15.789	0.482
342.000	224.838	80.006	20.009	100.390	19.978	15.506	0.491
344.000	225.822	80.004	20.009	100.405	19.977	15.735	0.469
346.000	226.806	80.005	20.009	100.394	19.979	15.409	0.481
348.000	227.839	80.004	20.009	100.417	19.980	15.210	0.515
350.000	228.843	80.005	20.008	100.426	19.981	15.046	0.452
352.000	229.897	80.005	20.010	100.394	19.979	15.381	0.526
354.000	230.894	80.005	20.009	100.402	19.982	14.974	0.475
356.000	231.895	80.005	20.010	100.360	19.984	14.537	0.533
358.000	232.884	80.006	20.009	100.359	19.983	14.776	0.494
360.000	233.885	80.005	20.010	100.361	19.981	15.072	0.461
362.000	234.906	80.005	20.009	100.399	19.986	14.268	0.476
364.000	235.825	80.006	20.009	100.383	19.983	14.777	0.444
366.000	236.930	80.006	20.009	100.414	19.985	14.426	0.544
368.000	237.846	80.006	20.009	100.388	19.982	14.896	0.506
370.000	238.921	80.004	20.010	100.403	19.984	14.533	0.495
372.000	239.962	80.005	20.009	100.394	19.983	14.815	0.520
374.000	240.956	80.005	20.009	100.400	19.982	14.879	0.536
376.000	241.975	80.005	20.009	100.396	19.982	14.914	0.549
378.000	243.039	80.005	20.009	100.381	19.984	14.540	0.556
380.000	243.985	80.005	20.009	100.388	19.984	14.513	0.458
382.000	245.089	80.004	20.010	100.388	19.985	14.411	0.547
384.000	246.077	80.006	20.009	100.408	19.982	14.864	0.501
386.000	247.127	80.006	20.009	100.391	19.984	14.512	0.582
388.000	248.133	80.006	20.009	100.406	19.986	14.266	0.497
390.000	249.124	80.004	20.009	100.394	19.983	14.686	0.467
392.000	250.136	80.006	20.009	100.412	19.980	15.145	0.571
394.000	251.188	80.005	20.009	100.377	19.982	14.838	0.542
396.000	252.194	80.003	20.009	100.401	19.984	14.582	0.501
398.000	253.180	80.003	20.009	100.404	19.980	15.163	0.522
400.000	254.200	80.005	20.009	100.410	19.976	15.853	0.506
402.000	255.221	80.004	20.009	100.383	19.974	16.193	0.509
404.000	256.219	80.005	20.009	100.389	19.974	16.176	0.487
406.000	257.198	80.005	20.009	100.361	19.972	16.470	0.476
408.000	258.194	80.005	20.009	100.383	19.971	16.577	0.477
410.000	259.232	80.006	20.009	100.371	19.971	16.638	0.495
412.000	260.272	80.005	20.009	100.392	19.970	16.810	0.541
414.000	261.257	80.005	20.009	100.363	19.970	16.802	0.516
416.000	262.259	80.004	20.009	100.360	19.969	16.963	0.486
418.000	263.228	80.005	20.008	100.361	19.966	17.480	0.475
420.000	264.245	80.005	20.009	100.362	19.963	17.808	0.502
422.001	265.255	80.003	20.009	100.365	19.962	18.082	0.516
424.000	266.296	80.006	20.009	100.366	19.958	18.622	0.543
426.000	267.313	80.005	20.009	100.356	19.954	19.314	0.482
428.000	268.345	80.005	20.009	100.356	19.951	19.702	0.540
430.000	269.396	80.005	20.009	100.366	19.952	19.636	0.544
432.000	270.355	80.005	20.009	100.354	19.948	20.192	0.476
434.000	271.437	80.006	20.009	100.352	19.944	20.837	0.539
436.000	272.374	80.004	20.009	100.355	19.943	21.080	0.476
438.000	273.423	80.004	20.008	100.361	19.939	21.725	0.499
440.000	274.372	80.006	20.009	100.361	19.935	22.332	0.500
442.000	275.329	80.006	20.009	100.350	19.934	22.417	0.484
444.000	276.346	80.005	20.009	100.362	19.930	23.066	0.529
446.000	277.373	80.006	20.009	100.359	19.929	23.314	0.490
448.000	278.413	80.006	20.009	100.356	19.923	24.148	0.469
450.000	279.292	80.004	20.009	100.343	19.918	24.957	0.472
452.000	280.359	80.004	20.010	100.350	19.918	24.972	0.492
454.000	281.367	80.006	20.009	100.342	19.915	25.411	0.511
456.000	282.357	80.005	20.009	100.364	19.914	25.567	0.525
458.000	283.370	80.004	20.009	100.357	19.912	25.979	0.552
460.000	284.367	80.004	20.009	100.354	19.907	26.672	0.513
462.000	285.400	80.004	20.009	100.334	19.905	27.069	0.534
464.000	286.376	80.004	20.009	100.343	19.903	27.290	0.504
466.000	287.410	80.006	20.009	100.326	19.897	28.275	0.513
468.000	288.416	80.004	20.009	100.328	19.895	28.563	0.538
470.000	289.398	80.004	20.009	100.321	19.893	28.922	0.535
472.000	290.429	80.004	20.009	100.322	19.892	29.070	0.534
474.000	291.426	80.005	20.009	100.323	19.890	29.361	0.504
476.000	292.377	80.005	20.009	100.331	19.888	29.679	0.469
478.000	293.385	80.004	20.009	100.340	19.890	29.387	0.508
480.000	294.414	80.004	20.009	100.340	19.888	29.736	0.487
482.000	295.404	80.005	20.009	100.377	19.891	29.193	0.523
484.000	296.377	80.006	20.009	100.355	19.890	29.308	0.484
486.000	297.407	80.004	20.009	100.355	19.886	29.974	0.493
488.000	298.421	80.005	20.010	100.333	19.884	30.317	0.517
490.000	299.383	80.006	20.009	100.350	19.885	30.130	0.490
492.000	300.371	80.005	20.009	100.355	19.880	30.949	0.476
494.000	301.397	80.004	20.008	100.355	19.880	30.875	0.497
496.000	302.413	80.005	20.009	100.353	19.874	31.931	0.534
498.000	303.452	80.006	20.009	100.360	19.870	32.443	0.516
500.000	304.420	80.005	20.009	100.365	19.867	33.068	0.483
502.000	305.402	80.005	20.009	100.380	19.863	33.583	0.482
504.000	306.367	80.004	20.010	100.353	19.860	34.051	0.494
506.000	307.425	80.003	20.009	100.371	19.855	34.874	0.557
508.000	308.404	80.004	20.009	100.357	19.845	36.408	0.485
510.000	309.390	80.005	20.009	100.369	19.837	37.743	0.494
512.000	310.384	80.005	20.008	100.352	19.830	38.874	0.497
514.000	311.313	80.004	20.008	100.370	19.821	40.271	0.476
516.000	312.362	80.005	20.009	100.344	19.810	41.981	0.475
518.000	313.379	80.006	20.009	100.357	19.799	43.634	0.534
520.000	314.363	80.005	20.008	100.331	19.789	45.212	0.515
522.000	315.372	80.004	20.009	100.323	19.772	47.930	0.504
524.000	316.275	80.005	20.009	100.312	19.760	49.767	0.478
526.000	317.298	80.005	20.010	100.313	19.749	51.474	0.487
528.000	318.313	80.005	20.009	100.294	19.734	53.842	0.525
530.000	319.289	80.005	20.009	100.298	19.719	56.192	0.501
532.000	320.306	80.005	20.008	100.301	19.706	58.223	0.506
534.000	321.286	80.005	20.009	100.307	19.689	60.933	0.491
536.000	322.326	80.005	20.008	100.287	19.669	64.032	0.533
538.000	323.272	80.006	20.009	100.292	19.648	67.345	0.504
540.000	324.285	80.005	20.009	100.266	19.627	70.658	0.476
542.000	325.306	80.005	20.009	100.284	19.611	73.223	0.508
544.000	326.289	80.004	20.009	100.280	19.592	76.245	0.501
546.000	327.309	80.006	20.009	100.285	19.569	79.762	0.505
548.000	328.350	80.005	20.009	100.270	19.546	83.380	0.535
550.000	329.355	80.006	20.009	100.273	19.523	87.073	0.478
552.000	330.353	80.005	20.009	100.269	19.502	90.341	0.508
554.000	331.348	80.005	20.009	100.277	19.477	94.248	0.509
556.000	332.387	80.005	20.009	100.268	19.456	97.587	0.520
558.000	333.359	80.004	20.010	100.276	19.430	101.672	0.510
560.000	334.399	80.005	20.009	100.259	19.408	105.171	0.553
562.000	335.321	80.005	20.009	100.259	19.389	108.110	0.496
564.000	336.333	80.006	20.009	100.267	19.365	111.918	0.475
566.000	337.313	80.005	20.009	100.265	19.343	115.310	0.491
568.000	338.399	80.005	20.009	100.264	19.318	119.338	0.533
570.000	339.333	80.005	20.009	100.266	19.297	122.601	0.485
572.000	340.408	80.004	20.009	100.255	19.274	126.158	0.500
574.000	341.368	80.005	20.009	100.243	19.255	129.239	0.487
576.000	342.409	80.005	20.009	100.249	19.235	132.319	0.528
578.000	343.383	80.005	20.009	100.238	19.217	135.187	0.503
580.000	344.419	80.005	20.009	100.275	19.196	138.425	0.481
582.000	345.455	80.004	20.009	100.265	19.181	140.821	0.548
584.000	346.450	80.004	20.009	100.262	19.164	143.573	0.496
586.000	347.464	80.006	20.009	100.250	19.148	146.162	0.503
588.000	348.434	80.005	20.009	100.289	19.130	148.943	0.500
590.000	349.415	80.006	20.009	100.265	19.117	150.927	0.490
592.000	350.465	80.006	20.009	100.290	19.100	153.661	0.521
594.000	351.460	80.005	20.009	100.279	19.083	156.348	0.503
596.000	352.531	80.007	20.009	100.313	19.067	158.839	0.543
598.000	353.453	80.005	20.009	100.317	19.047	161.987	0.503
600.000	354.390	80.003	20.009	100.327	19.030	164.628	0.476
602.000	355.416	80.005	20.009	100.320	19.009	168.062	0.501
604.000	356.366	80.005	20.010	100.326	18.987	171.404	0.492
606.000	357.366	80.006	20.009	100.352	18.965	174.883	0.479
608.000	358.313	80.005	20.009	100.341	18.947	177.577	0.449
610.000	359.289	80.005	20.009	100.362	18.920	181.644	0.463
612.000	360.292	80.004	20.009	100.320	18.884	187.332	0.515
614.000	361.291	80.005	20.009	100.350	18.854	192.068	0.493
616.000	362.302	80.005	20.009	100.342	18.826	196.644	0.538
618.000	363.323	80.005	20.009	100.353	18.837	195.159	0.478
620.000	364.303	80.005	20.009	100.287	18.854	192.492	0.516
622.000	365.284	80.006	20.010	100.166	18.880	188.512	0.492
624.000	366.279	80.005	20.009	100.174	18.915	183.101	0.493
626.000	367.251	80.005	20.009	100.180	18.932	180.414	0.462
628.000	368.218	80.004	20.009	100.239	18.951	177.468	0.477
630.000	369.282	80.005	20.009	100.338	18.965	175.210	0.520
632.000	370.244	80.004	20.009	100.426	18.975	173.558	0.487
634.000	371.262	80.004	20.009	100.484	18.984	172.162	0.503
636.000	372.334	80.004	20.009	100.518	18.998	169.897	0.523
638.000	373.183	80.005	20.009	100.533	19.015	167.318	0.420
640.001	374.276	80.005	20.009	100.529	19.026	165.539	0.529
642.000	375.299	80.006	20.009	100.520	19.038	163.681	0.490
644.000	376.294	80.005	20.009	100.485	19.049	161.854	0.514
646.000	377.328	80.005	20.009	100.482	19.065	159.322	0.511
648.000	378.250	80.005	20.009	100.468	19.083	156.574	0.477
650.000	379.216	80.005	20.010	100.480	19.103	153.425	0.468
652.000	380.261	80.006	20.009	100.481	19.122	150.461	0.512
654.000	381.311	80.005	20.009	100.476	19.141	147.378	0.519
656.000	382.327	80.006	20.009	100.489	19.166	143.496	0.499
658.000	383.284	80.005	20.009	100.479	19.190	139.757	0.491
660.000	384.274	80.004	20.009	100.492	19.216	135.629	0.489
662.000	385.262	80.006	20.009	100.472	19.238	132.151	0.518
664.000	386.319	80.004	20.009	100.496	19.263	128.263	0.526
666.000	387.312	80.006	20.009	100.490	19.295	123.257	0.474
668.000	388.304	80.004	20.009	100.507	19.323	118.733	0.472
670.000	389.258	80.005	20.009	100.500	19.351	114.387	0.495
672.000	390.281	80.004	20.009	100.522	19.383	109.433	0.514
674.000	391.274	80.005	20.009	100.514	19.412	104.799	0.463
676.000	392.302	80.005	20.009	100.534	19.437	100.895	0.511
678.000	393.242	80.004	20.008	100.544	19.470	95.715	0.469
680.000	394.188	80.004	20.009	100.549	19.498	91.193	0.484
682.001	395.256	80.006	20.009	100.569	19.527	86.610	0.522
684.000	396.243	80.006	20.009	100.579	19.560	81.490	0.501
686.000	397.215	80.005	20.009	100.598	19.586	77.348	0.498
688.000	398.198	80.004	20.009	100.557	19.610	73.643	0.546
690.000	399.160	80.005	20.009	100.567	19.639	69.004	0.448
692.000	400.085	80.005	20.009	100.555	19.662	65.335	0.448
694.000	401.093	80.006	20.010	100.589	19.685	61.789	0.518
696.000	402.124	80.006	20.009	100.580	19.709	57.956	0.492
698.000	403.092	80.006	20.009	100.563	19.730	54.655	0.460
700.000	404.050	80.005	20.008	100.575	19.754	50.916	0.481
702.000	404.996	80.005	20.009	100.555	19.774	47.770	0.467
704.000	406.001	80.005	20.009	100.568	19.797	44.074	0.486
706.000	406.986	80.005	20.009	100.549	19.812	41.625	0.509
708.000	407.938	80.006	20.008	100.535	19.829	38.948	0.511
710.000	408.913	80.004	20.008	100.512	19.843	36.769	0.468
712.000	409.952	80.005	20.009	100.522	19.859	34.260	0.542
714.000	410.926	80.004	20.009	100.514	19.872	32.309	0.496
716.000	411.927	80.003	20.009	100.522	19.883	30.466	0.483
718.000	412.917	80.004	20.008	100.496	19.896	28.398	0.476
720.000	413.949	80.005	20.009	100.477	19.907	26.783	0.461
722.000	414.957	80.005	20.009	100.483	19.915	25.462	0.548
724.000	415.931	80.004	20.009	100.448	19.922	24.362	0.520
726.000	416.927	80.003	20.008	100.459	19.935	22.248	0.531
728.000	417.856	80.006	20.008	100.429	19.938	21.888	0.498
730.000	418.871	80.005	20.008	100.442	19.948	20.190	0.476
732.000	419.819	80.006	20.008	100.435	19.956	18.999	0.453
734.000	420.831	80.004	20.009	100.431	19.962	18.088	0.498
736.000	421.786	80.004	20.008	100.432	19.967	17.231	0.492
738.000	422.808	80.005	20.009	100.419	19.973	16.277	0.511
740.000	423.772	80.004	20.009	100.436	19.978	15.587	0.512
742.000	424.750	80.005	20.009	100.441	19.984	14.586	0.505
744.000	425.683	80.005	20.009	100.434	19.984	14.521	0.439
746.000	426.661	80.005	20.009	100.420	19.988	13.980	0.518
748.000	427.697	80.005	20.009	100.400	19.987	14.177	0.500
750.000	428.673	80.005	20.009	100.399	19.987	14.057	0.493
752.000	429.656	80.005	20.009	100.360	19.995	12.932	0.463
754.000	430.642	80.004	20.009	100.389	19.993	13.175	0.480
756.000	431.665	80.004	20.009	100.370	19.993	13.212	0.471
758.000	432.619	80.005	20.009	100.388	19.998	12.433	0.495
760.001	433.637	80.005	20.009	100.380	19.998	12.365	0.510
762.000	434.603	80.004	20.009	100.367	20.000	12.027	0.492
764.000	435.611	80.004	20.008	100.373	19.998	12.304	0.496
766.000	436.571	80.005	20.009	100.382	20.004	11.384	0.497
768.000	437.598	80.005	20.008	100.383	20.005	11.293	0.523
770.000	438.529	80.006	20.009	100.387	20.002	11.787	0.498
772.000	439.583	80.006	20.008	100.377	20.002	11.679	0.491
774.000	440.513	80.004	20.009	100.350	20.005	11.277	0.490
776.000	441.497	80.006	20.009	100.365	20.004	11.510	0.486
778.000	442.527	80.004	20.009	100.341	20.007	11.027	0.510
780.000	443.455	80.005	20.008	100.360	20.008	10.839	0.486
782.000	444.471	80.004	20.009	100.341	20.008	10.764	0.544
784.000	445.467	80.006	20.009	100.357	20.009	10.569	0.473
786.000	446.473	80.005	20.009	100.349	20.010	10.512	0.469
788.000	447.503	80.005	20.009	100.343	20.010	10.514	0.515
790.001	448.505	80.004	20.009	100.342	20.009	10.688	0.511
792.001	449.481	80.005	20.009	100.349	20.009	10.725	0.474
794.000	450.501	80.005	20.009	100.359	20.011	10.401	0.529
796.000	451.561	80.006	20.009	100.341	20.014	9.870	0.539
798.000	452.572	80.005	20.008	100.356	20.012	10.181	0.542
800.000	453.582	80.005	20.009	100.322	20.010	10.502	0.488
802.000	454.580	80.005	20.009	100.340	20.011	10.367	0.527
804.000	455.581	80.004	20.009	100.330	20.011	10.322	0.496
806.000	456.557	80.004	20.009	100.342	20.009	10.600	0.481
808.000	457.587	80.005	20.009	100.326	20.011	10.361	0.495
810.000	458.569	80.005	20.009	100.349	20.011	10.350	0.513
812.000	459.634	80.005	20.009	100.326	20.009	10.689	0.521
814.000	460.637	80.006	20.009	100.338	20.009	10.581	0.487
816.000	461.608	80.005	20.009	100.327	20.008	10.783	0.515
818.000	462.619	80.006	20.009	100.337	20.010	10.414	0.496
820.000	463.620	80.005	20.009	100.319	20.008	10.780	0.486
822.000	464.563	80.005	20.009	100.332	20.010	10.497	0.475
824.000	465.562	80.005	20.009	100.318	20.011	10.269	0.529
826.000	466.517	80.005	20.009	100.350	20.011	10.279	0.463
828.000	467.597	80.005	20.009	100.312	20.010	10.499	0.504
830.000	468.595	80.005	20.009	100.339	20.011	10.281	0.510
832.000	469.598	80.004	20.009	100.316	20.008	10.839	0.481
834.000	470.634	80.004	20.009	100.334	20.009	10.628	0.509
836.000	471.565	80.005	20.009	100.308	20.010	10.512	0.472
838.000	472.622	80.005	20.008	100.339	20.012	10.177	0.508
840.000	473.554	80.004	20.009	100.323	20.009	10.659	0.469
842.000	474.580	80.006	20.008	100.321	20.009	10.725	0.464
844.000	475.577	80.005	20.009	100.318	20.008	10.726	0.508
846.000	476.574	80.006	20.009	100.322	20.010	10.508	0.488
848.000	477.529	80.005	20.009	100.318	20.011	10.363	0.519
850.000	478.610	80.006	20.008	100.313	20.009	10.658	0.511
852.000	479.557	80.006	20.009	100.312	20.006	11.069	0.470
854.000	480.605	80.005	20.008	100.333	20.009	10.608	0.533
856.000	481.548	80.005	20.009	100.322	20.008	10.784	0.446
858.000	482.581	80.004	20.008	100.327	20.005	11.205	0.527
860.000	483.601	80.004	20.009	100.322	20.006	11.112	0.562
862.000	484.597	80.005	20.009	100.326	20.007	11.037	0.524
864.000	485.592	80.004	20.009	100.319	20.007	10.979	0.516
866.000	486.552	80.004	20.008	100.327	20.009	10.641	0.482
868.000	487.561	80.005	20.009	100.325	20.009	10.569	0.498
870.000	488.559	80.004	20.008	100.342	20.011	10.321	0.546
872.000	489.541	80.005	20.009	100.314	20.010	10.554	0.487
874.000	490.514	80.005	20.009	100.330	20.009	10.636	0.495
876.001	491.544	80.005	20.009	100.311	20.012	10.146	0.496
878.000	492.541	80.004	20.009	100.325	20.011	10.338	0.481
880.000	493.533	80.005	20.009	100.313	20.011	10.312	0.510
882.000	494.587	80.005	20.008	100.326	20.014	9.835	0.541
884.000	495.540	80.006	20.009	100.317	20.015	9.663	0.474
886.000	496.539	80.005	20.008	100.354	20.011	10.263	0.494
888.000	497.530	80.006	20.009	100.317	20.009	10.565	0.520
890.000	498.541	80.006	20.008	100.325	20.011	10.279	0.503
892.000	499.571	80.005	20.009	100.312	20.010	10.534	0.527
894.000	500.490	80.006	20.008	100.327	20.010	10.466	0.437
896.000	501.505	80.005	20.009	100.320	20.010	10.562	0.475
898.000	502.532	80.004	20.009	100.323	20.012	10.097	0.539
900.000	503.465	80.005	20.009	100.304	20.006	11.040	0.483
902.000	504.437	80.005	20.009	100.315	20.004	11.426	0.454
904.000	505.382	80.005	20.009	100.289	20.006	11.188	0.499
906.000	506.328	80.006	20.008	100.320	20.002	11.786	0.467
908.000	507.290	80.005	20.009	100.303	20.005	11.242	0.483
910.000	508.332	80.005	20.008	100.321	20.004	11.356	0.458
912.000	509.334	80.006	20.009	100.310	20.005	11.218	0.468
914.000	510.355	80.005	20.009	100.333	20.008	10.772	0.517
916.000	511.322	80.005	20.009	100.316	20.008	10.814	0.507
918.000	512.261	80.004	20.008	100.341	20.006	11.047	0.474
920.000	513.294	80.005	20.009	100.317	20.009	10.637	0.490
922.000	514.169	80.003	20.008	100.355	20.009	10.712	0.450
924.000	515.240	80.003	20.009	100.331	20.012	10.107	0.499
926.000	516.231	80.006	20.009	100.345	20.011	10.406	0.472
928.000	517.209	80.006	20.009	100.328	20.010	10.443	0.492
930.000	518.237	80.005	20.009	100.336	20.012	10.218	0.511
932.000	519.227	80.003	20.009	100.310	20.012	10.196	0.465
934.000	520.254	80.003	20.008	100.345	20.011	10.368	0.504
936.000	521.195	80.005	20.009	100.322	20.015	9.658	0.486
938.000	522.227	80.003	20.008	100.350	20.013	10.000	0.542
940.000	523.207	80.004	20.009	100.319	20.010	10.421	0.510
942.000	524.179	80.004	20.008	100.327	20.010	10.545	0.453
944.000	525.164	80.006	20.009	100.313	20.013	10.049	0.482
946.000	526.149	80.005	20.008	100.328	20.013	10.061	0.476
948.000	527.144	80.005	20.009	100.327	20.014	9.903	0.512
950.000	528.092	80.004	20.009	100.348	20.013	10.074	0.495
952.000	529.117	80.005	20.008	100.341	20.008	10.758	0.509
954.000	530.047	80.004	20.008	100.335	20.007	11.004	0.463
956.001	531.011	80.005	20.009	100.317	20.008	10.729	0.452
958.000	532.012	80.004	20.008	100.324	20.005	11.214	0.481
960.000	532.994	80.004	20.009	100.319	20.007	10.999	0.470
962.000	534.011	80.005	20.008	100.335	20.009	10.584	0.535
964.000	534.949	80.005	20.009	100.310	20.009	10.706	0.441
966.000	535.993	80.005	20.009	100.321	20.008	10.745	0.515
968.000	536.903	80.005	20.009	100.315	20.009	10.649	0.480
970.000	537.898	80.005	20.008	100.328	20.007	10.886	0.485
972.000	538.897	80.005	20.009	100.312	20.011	10.329	0.486
974.000	539.909	80.004	20.008	100.327	20.013	10.057	0.465
976.000	540.900	80.006	20.009	100.315	20.009	10.720	0.458
978.000	541.930	80.005	20.008	100.333	20.012	10.137	0.499
980.000	542.941	80.005	20.009	100.318	20.013	10.039	0.512
982.000	543.929	80.004	20.008	100.331	20.013	10.014	0.527
984.000	544.859	80.004	20.009	100.326	20.015	9.748	0.470
986.000	545.864	80.005	20.008	100.320	20.008	10.761	0.450
988.000	546.905	80.006	20.009	100.307	20.008	10.749	0.531
990.000	547.861	80.004	20.009	100.308	20.011	10.322	0.500
992.000	548.802	80.006	20.009	100.312	20.010	10.417	0.462
994.000	549.807	80.003	20.008	100.328	20.008	10.727	0.530
996.000	550.746	80.004	20.009	100.310	20.009	10.596	0.441
998.000	551.740	80.004	20.009	100.317	20.007	10.978	0.479
1000.000	552.712	80.004	20.009	100.319	20.009	10.635	0.480
1002.000	553.640	80.006	20.009	100.322	20.008	10.817	0.461
1004.000	554.649	80.006	20.009	100.326	20.008	10.752	0.509
1006.000	555.658	80.005	20.009	100.326	20.007	10.895	0.525
1008.000	556.607	80.004	20.009	100.290	20.010	10.537	0.503
1010.000	557.551	80.004	20.009	100.264	20.012	10.127	0.477
1012.000	558.488	80.004	20.009	100.317	20.012	10.217	0.473
1014.000	559.384	80.004	20.009	100.306	20.013	9.969	0.514
1016.000	560.347	80.005	20.009	100.326	20.015	9.696	0.480
1018.000	561.248	80.003	20.009	100.312	20.008	10.787	0.422
1020.000	562.307	80.005	20.009	100.341	20.011	10.320	0.522
1022.000	563.266	80.005	20.009	100.332	20.011	10.353	0.442
1024.000	564.258	80.004	20.008	100.353	20.009	10.626	0.468
1026.000	565.310	80.005	20.009	100.326	20.005	11.201	0.540
1028.000	566.338	80.005	20.009	100.329	20.005	11.306	0.561
1030.000	567.365	80.005	20.009	100.313	20.005	11.236	0.505
1032.000	568.344	80.005	20.009	100.327	20.004	11.376	0.513
1034.000	569.302	80.005	20.009	100.325	20.003	11.574	0.480
1036.000	570.366	80.005	20.009	100.333	20.008	10.845	0.539
1038.000	571.368	80.005	20.008	100.313	20.008	10.868	0.497
1040.001	572.439	80.005	20.009	100.327	20.009	10.660	0.514
1042.001	573.474	80.006	20.009	100.327	20.010	10.562	0.558
1044.000	574.454	80.005	20.010	100.341	20.008	10.876	0.507
1046.000	575.498	80.005	20.009	100.331	20.009	10.655	0.491
1048.001	576.519	80.005	20.009	100.363	20.012	10.152	0.520
1050.001	577.567	80.005	20.009	100.329	20.010	10.467	0.461
1052.000	578.620	80.005	20.009	100.332	20.011	10.385	0.523
1054.001	579.641	80.005	20.009	100.322	20.007	11.013	0.531
1056.000	580.707	80.005	20.009	100.339	20.006	11.118	0.545
1058.000	581.734	80.006	20.008	100.321	20.005	11.327	0.545
1060.001	582.714	80.006	20.009	100.325	20.006	11.188	0.511
1062.001	583.763	80.006	20.009	100.310	20.003	11.611	0.515
1064.000	584.774	80.005	20.009	100.320	20.004	11.468	0.523
1066.000	585.817	80.005	20.009	100.306	20.003	11.580	0.506
1068.000	586.839	80.005	20.009	100.321	20.008	10.857	0.545
1070.001	587.817	80.006	20.009	100.313	20.009	10.726	0.508
1072.000	588.839	80.005	20.009	100.323	20.004	11.385	0.476
1074.000	589.895	80.006	20.009	100.314	20.006	11.153	0.530
1076.001	590.877	80.005	20.009	100.322	20.003	11.521	0.527
1078.000	591.860	80.007	20.009	100.303	20.006	11.109	0.515
1080.001	592.848	80.006	20.009	100.343	20.006	11.091	0.542
1082.001	593.830	80.005	20.009	100.326	20.006	11.189	0.501
1084.000	594.861	80.005	20.009	100.354	20.003	11.547	0.496
1086.001	595.874	80.005	20.008	100.329	20.004	11.415	0.503
1088.001	596.833	80.004	20.009	100.359	20.006	11.167	0.488
1090.000	597.829	80.005	20.009	100.323	20.006	11.108	0.468
1092.000	598.818	80.005	20.009	100.353	20.003	11.670	0.501
1094.001	599.837	80.003	20.009	100.326	20.005	11.328	0.503
1096.000	600.849	80.005	20.009	100.348	20.007	11.038	0.499
1098.000	601.832	80.005	20.009	100.322	20.008	10.870	0.525
1100.000	602.762	80.004	20.009	100.355	20.006	11.125	0.467
1102.000	603.786	80.003	20.008	100.352	20.005	11.351	0.483
1104.001	604.796	80.006	20.010	100.364	20.006	11.129	0.473
1106.001	605.804	80.004	20.009	100.357	20.009	10.685	0.502
1108.001	606.767	80.004	20.009	100.350	20.009	10.584	0.505
1110.000	607.775	80.006	20.010	100.341	20.008	10.792	0.540
1112.000	608.798	80.006	20.009	100.343	20.007	10.978	0.520
1114.001	609.850	80.005	20.009	100.356	20.007	10.896	0.546
1116.001	610.744	80.006	20.009	100.351	20.006	11.055	0.459
1118.000	611.753	80.005	20.009	100.346	20.008	10.745	0.508
1120.000	612.745	80.004	20.009	100.323	20.007	10.993	0.480
1122.000	613.747	80.004	20.008	100.344	20.008	10.853	0.505
1124.001	614.776	80.004	20.009	100.325	20.007	10.932	0.533
1126.001	615.765	80.005	20.008	100.366	20.009	10.689	0.512
1128.000	616.716	80.005	20.009	100.370	20.012	10.241	0.525
1130.000	617.743	80.004	20.009	100.376	20.014	9.927	0.499
1132.001	618.729	80.004	20.009	100.366	20.009	10.702	0.503
1134.001	619.713	80.003	20.009	100.378	20.009	10.613	0.499
1136.001	620.708	80.004	20.009	100.316	20.008	10.778	0.486
1138.001	621.680	80.005	20.009	100.312	20.007	10.986	0.490
1140.000	622.649	80.005	20.008	100.307	20.008	10.852	0.522
1142.000	623.646	80.005	20.009	100.334	20.001	11.893	0.494
1144.000	624.685	80.006	20.008	100.324	20.002	11.785	0.520
1146.000	625.669	80.004	20.009	100.336	20.002	11.793	0.500
1148.000	626.645	80.004	20.008	100.324	20.004	11.462	0.473
1150.000	627.712	80.006	20.009	100.330	19.999	12.143	0.546
1152.000	628.742	80.005	20.008	100.322	20.000	12.084	0.535
1154.000	629.738	80.005	20.009	100.337	19.999	12.272	0.488
1156.001	630.781	80.006	20.008	100.327	19.998	12.388	0.524
1158.001	631.728	80.004	20.009	100.329	19.997	12.568	0.516
1160.000	632.763	80.005	20.009	100.324	19.994	13.086	0.515
1162.000	633.761	80.006	20.008	100.331	19.995	12.808	0.483
1164.001	634.749	80.005	20.009	100.324	19.999	12.291	0.489
1166.000	635.734	80.006	20.009	100.319	20.001	11.866	0.471
1168.000	636.707	80.004	20.009	100.343	20.001	11.910	0.478
1170.000	637.776	80.006	20.009	100.352	19.998	12.388	0.514
1172.000	638.706	80.006	20.008	100.344	20.002	11.684	0.501
1174.001	639.698	80.004	20.009	100.343	20.005	11.281	0.458
1176.000	640.723	80.006	20.009	100.351	20.003	11.620	0.470
1178.000	641.736	80.005	20.009	100.341	20.004	11.423	0.500
1180.001	642.765	80.004	20.008	100.329	20.002	11.765	0.515
1182.000	643.768	80.005	20.009	100.354	20.005	11.307	0.529
1184.001	644.712	80.005	20.008	100.338	20.000	12.018	0.477
1186.001	645.695	80.004	20.009	100.353	20.001	11.922	0.494
1188.000	646.788	80.004	20.009	100.332	20.001	11.858	0.549
1190.001	647.820	80.005	20.009	100.345	20.002	11.750	0.521
1192.000	648.778	80.004	20.009	100.323	20.001	11.979	0.478
1194.000	649.800	80.005	20.009	100.339	20.004	11.430	0.529
1196.000	650.746	80.004	20.009	100.327	20.005	11.243	0.459
1198.000	651.786	80.005	20.009	100.343	20.003	11.617	0.517
1200.000	652.768	80.006	20.009	100.338	20.002	11.756	0.522
1202.001	653.789	80.006	20.008	100.339	20.000	12.095	0.562
1204.001	654.773	80.005	20.009	100.307	20.003	11.617	0.481
1206.000	655.882	80.006	20.009	100.328	20.001	11.959	0.569
1208.000	656.875	80.004	20.009	100.304	20.004	11.380	0.485
1210.000	657.918	80.003	20.008	100.346	20.002	11.750	0.558
1212.001	658.916	80.004	20.009	100.345	20.004	11.512	0.521
1214.001	659.908	80.005	20.009	100.364	20.003	11.571	0.465
1216.001	660.935	80.006	20.009	100.341	20.001	11.897	0.520
1218.000	661.932	80.005	20.009	100.337	20.000	12.004	0.484
1220.000	662.954	80.006	20.009	100.322	20.001	11.898	0.496
1222.000	663.914	80.005	20.009	100.342	20.002	11.682	0.507
1224.000	665.003	80.005	20.009	100.340	20.005	11.298	0.528
1226.000	665.908	80.005	20.009	100.354	20.004	11.499	0.498
1228.000	666.912	80.005	20.009	100.339	20.004	11.444	0.448
1230.000	667.887	80.004	20.008	100.350	20.004	11.409	0.457
1232.000	668.845	80.004	20.009	100.342	20.000	12.119	0.485
1234.000	669.825	80.006	20.008	100.345	20.001	11.906	0.466
1236.000	670.752	80.005	20.009	100.324	19.996	12.667	0.495
1238.000	671.795	80.006	20.009	100.355	20.003	11.544	0.503
1240.000	672.727	80.004	20.009	100.321	20.003	11.611	0.498
1242.000	673.705	80.006	20.008	100.343	20.004	11.456	0.469
1244.000	674.662	80.005	20.009	100.331	20.002	11.736	0.485
1246.000	675.696	80.006	20.009	100.358	20.001	11.831	0.508
1248.001	676.635	80.005	20.009	100.323	20.001	11.973	0.452
1250.000	677.646	80.005	20.009	100.341	19.997	12.460	0.474
1252.000	678.610	80.003	20.009	100.317	19.999	12.220	0.492
1254.000	679.629	80.006	20.009	100.362	20.001	11.881	0.499
1256.000	680.653	80.005	20.010	100.372	20.001	11.860	0.508
1258.000	681.680	80.007	20.009	100.378	20.001	11.839	0.530
1260.000	682.668	80.006	20.009	100.344	20.003	11.612	0.500
1262.000	683.688	80.007	20.008	100.359	20.004	11.382	0.546
1264.000	684.680	80.005	20.009	100.339	20.003	11.636	0.503
1266.000	685.559	80.006	20.009	100.371	20.002	11.689	0.461
1268.000	686.623	80.006	20.009	100.349	20.004	11.471	0.495
1270.000	687.548	80.004	20.009	100.370	20.006	11.151	0.477
1272.000	688.596	80.005	20.009	100.364	20.006	11.084	0.517
1274.000	689.550	80.004	20.008	100.391	20.007	11.022	0.500
1276.000	690.575	80.006	20.009	100.375	20.003	11.642	0.499
1278.000	691.587	80.004	20.009	100.346	20.007	10.979	0.543
1280.000	692.548	80.005	20.009	100.345	20.004	11.441	0.493
1282.000	693.591	80.006	20.009	100.372	20.004	11.436	0.484
1284.000	694.536	80.005	20.009	100.347	20.001	11.865	0.449
1286.000	695.719	80.006	20.009	100.374	19.999	12.250	0.580
1288.000	696.585	80.003	20.008	100.365	20.002	11.736	0.489
1290.000	697.587	80.005	20.009	100.366	19.997	12.490	0.530
1292.000	698.587	80.006	20.009	100.345	19.999	12.220	0.543
1294.000	699.685	80.005	20.009	100.365	19.998	12.433	0.537
1296.000	700.736	80.004	20.009	100.351	20.000	11.997	0.542
1298.000	701.688	80.004	20.008	100.365	20.001	11.845	0.512
1300.000	702.709	80.005	20.009	100.351	20.004	11.444	0.505
1302.000	703.692	80.004	20.009	100.388	20.004	11.451	0.512
1304.000	704.795	80.005	20.008	100.371	20.005	11.353	0.513
1306.000	705.823	80.004	20.009	100.380	20.006	11.195	0.512
1308.000	706.889	80.006	20.009	100.379	20.005	11.311	0.538
1310.000	707.929	80.005	20.008	100.384	20.008	10.748	0.544
1312.000	708.976	80.003	20.009	100.371	20.003	11.627	0.540
1314.000	710.059	80.005	20.009	100.376	20.003	11.582	0.568
1316.000	711.101	80.005	20.009	100.348	20.000	12.048	0.550
1318.000	712.102	80.006	20.009	100.338	19.998	12.321	0.507
1320.000	713.125	80.005	20.008	100.347	19.999	12.286	0.524
1322.000	714.143	80.004	20.009	100.354	19.998	12.320	0.491
1324.000	715.203	80.005	20.009	100.347	19.997	12.511	0.582
1326.000	716.280	80.005	20.009	100.349	19.997	12.558	0.525
1328.000	717.237	80.005	20.009	100.358	19.996	12.653	0.508
1330.000	718.256	80.004	20.009	100.352	19.999	12.277	0.491
1332.000	719.356	80.005	20.009	100.342	20.002	11.808	0.544
1334.000	720.314	80.004	20.009	100.340	20.000	12.019	0.489
1336.000	721.328	80.004	20.008	100.365	20.000	12.050	0.490
1338.000	722.286	80.005	20.009	100.349	20.000	12.032	0.475
1340.000	723.379	80.006	20.009	100.376	19.999	12.201	0.512
1342.001	724.380	80.005	20.009	100.378	20.000	11.998	0.511
1344.000	725.409	80.005	20.009	100.373	19.998	12.357	0.481
1346.000	726.535	80.004	20.008	100.369	19.997	12.567	0.555
1348.000	727.615	80.005	20.009	100.359	19.993	13.195	0.537
1350.000	728.613	80.004	20.009	100.363	19.994	13.031	0.570
1352.000	729.641	80.005	20.009	100.358	19.993	13.101	0.511
1354.000	730.716	80.004	20.009	100.371	19.996	12.758	0.521
1356.000	731.717	80.005	20.009	100.351	19.995	12.893	0.506
1358.000	732.742	80.004	20.009	100.366	19.997	12.483	0.533
1360.000	733.761	80.005	20.009	100.352	19.993	13.093	0.503
1362.000	734.832	80.004	20.009	100.371	19.995	12.877	0.517
1364.000	735.850	80.005	20.009	100.344	19.993	13.090	0.494
1366.000	736.935	80.005	20.008	100.371	19.996	12.709	0.527
1368.000	737.932	80.005	20.009	100.364	20.000	11.990	0.467
1370.000	738.955	80.004	20.008	100.387	19.999	12.242	0.510
1372.000	739.972	80.003	20.009	100.373	19.996	12.637	0.493
1374.000	740.930	80.005	20.009	100.372	19.996	12.666	0.488
1376.000	741.940	80.006	20.009	100.339	19.996	12.767	0.485
1377.500	742.642	80.004	20.009	100.351	19.999	12.303	0.485