File: Experiments/TGA/TUBS/mcc/mcc_piece_3mg_dyn30_r2.txt
Sample Weight (mg):	2.99
Heating Rate (C/s):	0.5
Combustor Temp (C):	900
N2 Flow Rate (cc/min):	80
O2 Flow Rate (cc/min):	20
Time (s)	Temperature (C)	N2 flow rate (cc/min)	O2 flow rate (cc/min)	Flow Rate (cc/min)	Oxygen (%)	HRR (W/g)	Heating rate (C/s)
-0.001	90.283	79.998	20.008	99.985	20.233	0.042	-0.020
2.000	90.078	80.005	20.011	99.979	20.223	1.103	-0.120
4.000	89.947	80.002	20.008	100.040	20.209	2.549	-0.100
6.000	89.789	80.001	20.008	100.236	20.193	4.282	-0.063
8.000	89.669	80.001	20.008	100.430	20.176	5.982	-0.083
10.000	89.506	80.001	20.008	100.469	20.172	6.444	-0.057
12.000	89.397	80.002	20.008	100.481	20.159	7.790	-0.069
14.000	89.297	80.002	20.008	100.478	20.151	8.621	-0.037
16.000	89.147	80.002	20.007	100.508	20.144	9.371	-0.010
18.000	89.100	80.001	20.008	100.524	20.143	9.495	-0.045
20.000	89.092	80.000	20.007	100.523	20.136	10.230	0.006
22.000	89.021	80.002	20.008	100.584	20.130	10.910	-0.027
24.000	89.052	80.002	20.008	100.602	20.131	10.747	0.007
26.000	89.106	80.002	20.008	100.617	20.131	10.753	0.039
28.000	89.118	80.001	20.008	100.617	20.128	11.059	-0.013
30.000	89.223	80.000	20.008	100.630	20.128	11.044	0.024
32.000	89.350	80.001	20.008	100.624	20.123	11.610	0.026
33.999	89.524	80.000	20.008	100.682	20.119	12.017	0.061
35.999	89.722	80.000	20.008	100.699	20.114	12.605	0.119
37.999	89.944	80.000	20.008	100.733	20.114	12.515	0.108
39.999	90.243	80.001	20.008	100.725	20.107	13.282	0.168
41.999	90.611	80.002	20.008	100.728	20.107	13.268	0.181
43.999	90.905	80.001	20.009	100.704	20.110	13.027	0.199
46.000	91.292	80.000	20.008	100.746	20.107	13.343	0.192
47.999	91.716	80.000	20.008	100.725	20.107	13.327	0.199
49.999	92.147	80.002	20.008	100.718	20.106	13.446	0.220
51.999	92.638	80.003	20.008	100.704	20.110	13.000	0.273
53.999	93.187	80.002	20.008	100.714	20.111	12.858	0.275
55.999	93.637	80.001	20.008	100.703	20.110	12.983	0.227
58.000	94.225	80.001	20.008	100.712	20.111	12.832	0.291
59.999	94.845	80.002	20.008	100.733	20.111	12.862	0.301
61.999	95.449	80.000	20.008	100.713	20.112	12.791	0.297
63.999	95.997	80.001	20.008	100.723	20.110	13.011	0.297
65.999	96.651	80.002	20.008	100.719	20.110	13.025	0.359
67.999	97.363	80.001	20.008	100.749	20.110	12.947	0.342
69.999	98.101	80.002	20.008	100.734	20.111	12.860	0.387
71.999	98.763	80.001	20.008	100.750	20.109	13.055	0.342
73.999	99.534	80.001	20.008	100.724	20.110	12.967	0.394
75.999	100.310	80.001	20.008	100.764	20.107	13.264	0.382
77.999	101.113	80.002	20.008	100.732	20.110	12.940	0.388
79.999	101.969	80.002	20.008	100.772	20.110	13.021	0.396
81.999	102.721	80.001	20.008	100.744	20.110	12.995	0.410
84.000	103.608	80.002	20.009	100.764	20.108	13.236	0.422
85.999	104.529	80.003	20.008	100.745	20.107	13.344	0.454
87.999	105.383	80.001	20.008	100.775	20.105	13.476	0.438
90.000	106.307	80.002	20.008	100.757	20.103	13.740	0.473
91.999	107.191	80.002	20.008	100.759	20.102	13.775	0.468
94.000	108.194	80.001	20.008	100.752	20.103	13.715	0.479
95.999	109.227	80.001	20.008	100.757	20.102	13.800	0.502
97.999	110.198	80.002	20.008	100.784	20.102	13.790	0.518
99.999	111.247	80.000	20.008	100.760	20.103	13.673	0.463
101.999	112.305	80.002	20.008	100.792	20.106	13.452	0.540
104.000	113.349	80.000	20.008	100.748	20.108	13.215	0.530
106.000	114.434	80.001	20.007	100.773	20.110	12.971	0.541
108.000	115.504	80.000	20.008	100.742	20.109	13.066	0.597
110.000	116.661	80.001	20.008	100.763	20.110	12.987	0.578
111.999	117.761	80.002	20.008	100.741	20.113	12.687	0.579
113.999	118.884	80.002	20.007	100.759	20.113	12.626	0.599
115.999	120.025	80.001	20.008	100.733	20.115	12.499	0.557
118.000	121.228	80.001	20.007	100.727	20.115	12.449	0.623
119.999	122.388	80.001	20.008	100.724	20.114	12.558	0.577
121.999	123.588	80.000	20.008	100.730	20.116	12.301	0.604
123.999	124.757	80.002	20.008	100.713	20.117	12.243	0.551
126.000	125.922	80.002	20.007	100.721	20.118	12.161	0.574
127.999	127.117	80.001	20.008	100.702	20.120	11.886	0.570
130.000	128.321	80.002	20.008	100.718	20.121	11.782	0.576
132.000	129.487	80.002	20.008	100.695	20.122	11.750	0.571
134.000	130.663	80.002	20.007	100.712	20.122	11.686	0.564
136.000	131.914	80.000	20.008	100.702	20.123	11.612	0.628
138.000	133.108	80.002	20.007	100.709	20.123	11.607	0.625
140.000	134.302	80.000	20.008	100.683	20.121	11.812	0.625
142.000	135.547	80.002	20.008	100.671	20.123	11.628	0.604
144.000	136.714	80.001	20.008	100.668	20.123	11.607	0.581
146.000	137.924	80.002	20.008	100.661	20.124	11.543	0.583
148.000	139.143	80.002	20.008	100.670	20.127	11.227	0.628
150.000	140.343	80.000	20.007	100.667	20.128	11.061	0.584
152.000	141.551	80.001	20.008	100.674	20.127	11.202	0.582
154.000	142.778	80.001	20.008	100.660	20.127	11.140	0.647
156.000	143.937	80.002	20.007	100.667	20.131	10.727	0.639
158.000	145.144	80.001	20.008	100.654	20.129	11.002	0.617
160.000	146.330	80.002	20.008	100.655	20.131	10.776	0.611
162.000	147.474	80.001	20.008	100.631	20.132	10.634	0.617
164.000	148.615	80.002	20.008	100.636	20.131	10.808	0.588
166.000	149.806	80.002	20.008	100.629	20.134	10.442	0.563
168.000	150.942	80.000	20.008	100.632	20.132	10.636	0.548
170.000	152.072	80.002	20.007	100.631	20.130	10.824	0.526
172.000	153.276	80.001	20.008	100.625	20.132	10.651	0.587
174.000	154.410	80.001	20.007	100.636	20.135	10.301	0.582
176.000	155.508	80.001	20.008	100.619	20.136	10.223	0.551
178.000	156.693	80.002	20.008	100.624	20.136	10.251	0.586
180.000	157.829	80.002	20.008	100.605	20.133	10.523	0.537
182.000	158.962	80.001	20.007	100.607	20.132	10.620	0.555
184.000	160.079	80.001	20.008	100.590	20.132	10.691	0.550
186.000	161.185	80.002	20.008	100.602	20.131	10.771	0.562
188.000	162.294	80.001	20.008	100.580	20.132	10.648	0.558
190.000	163.420	80.002	20.008	100.605	20.130	10.815	0.561
192.000	164.466	80.002	20.008	100.606	20.132	10.688	0.546
194.000	165.591	80.001	20.008	100.631	20.132	10.688	0.522
196.000	166.652	80.002	20.008	100.612	20.128	11.066	0.521
198.000	167.748	80.000	20.007	100.611	20.129	10.969	0.537
200.000	168.831	80.001	20.008	100.588	20.127	11.208	0.541
202.000	169.956	80.001	20.008	100.600	20.128	11.117	0.567
204.000	170.989	80.000	20.008	100.586	20.127	11.213	0.535
206.000	172.086	80.001	20.008	100.592	20.125	11.431	0.540
208.000	173.143	80.003	20.008	100.599	20.123	11.633	0.499
210.000	174.218	80.001	20.008	100.593	20.123	11.552	0.544
212.000	175.283	80.001	20.008	100.577	20.123	11.568	0.542
214.000	176.349	80.001	20.008	100.589	20.123	11.616	0.531
216.000	177.384	80.000	20.008	100.598	20.121	11.793	0.495
218.000	178.428	80.002	20.008	100.582	20.123	11.608	0.506
220.000	179.490	80.001	20.008	100.598	20.119	12.052	0.508
222.000	180.566	80.001	20.008	100.586	20.122	11.667	0.522
224.000	181.568	80.002	20.008	100.580	20.122	11.731	0.494
226.000	182.609	80.001	20.008	100.564	20.123	11.649	0.496
228.000	183.688	80.002	20.008	100.585	20.123	11.635	0.499
230.000	184.711	80.002	20.008	100.568	20.124	11.517	0.491
232.000	185.805	80.001	20.008	100.588	20.125	11.389	0.545
234.000	186.781	80.002	20.008	100.559	20.126	11.239	0.526
236.000	187.768	80.001	20.008	100.600	20.126	11.243	0.508
238.000	188.824	80.001	20.008	100.578	20.122	11.674	0.513
240.000	189.846	80.002	20.008	100.571	20.122	11.689	0.529
242.000	190.916	80.001	20.008	100.551	20.121	11.765	0.560
244.000	191.903	80.002	20.008	100.571	20.122	11.656	0.478
246.000	192.883	80.001	20.009	100.549	20.121	11.774	0.496
248.000	193.914	80.000	20.008	100.560	20.122	11.749	0.550
250.000	195.005	80.002	20.008	100.534	20.121	11.776	0.542
252.000	195.987	79.999	20.008	100.548	20.121	11.830	0.483
254.000	196.983	80.001	20.008	100.536	20.124	11.544	0.485
256.000	197.995	80.002	20.008	100.575	20.126	11.238	0.478
258.000	199.011	80.003	20.008	100.549	20.123	11.604	0.480
260.000	200.016	80.001	20.008	100.591	20.125	11.340	0.431
262.000	200.992	80.001	20.008	100.574	20.126	11.312	0.516
264.000	201.972	80.003	20.008	100.581	20.128	11.064	0.489
266.000	203.047	80.002	20.008	100.550	20.126	11.236	0.544
268.000	204.038	80.002	20.008	100.576	20.124	11.442	0.493
270.000	205.014	80.002	20.008	100.551	20.125	11.364	0.514
272.000	206.029	80.002	20.008	100.569	20.125	11.357	0.482
274.000	206.972	80.002	20.008	100.563	20.125	11.378	0.456
276.000	208.044	80.002	20.008	100.567	20.124	11.447	0.475
278.000	209.071	80.002	20.008	100.555	20.123	11.593	0.510
280.000	210.118	80.001	20.008	100.557	20.122	11.702	0.509
282.000	211.092	80.002	20.008	100.550	20.120	11.899	0.440
284.000	212.074	80.001	20.009	100.548	20.122	11.653	0.455
286.000	213.099	80.002	20.008	100.555	20.123	11.626	0.534
288.000	214.063	80.003	20.008	100.557	20.122	11.684	0.494
290.000	215.058	80.005	20.008	100.558	20.123	11.644	0.502
292.000	216.032	80.002	20.008	100.549	20.123	11.632	0.502
294.000	217.060	80.002	20.008	100.563	20.125	11.406	0.501
296.000	218.062	80.003	20.008	100.551	20.125	11.433	0.501
298.000	219.045	80.001	20.008	100.558	20.121	11.808	0.521
300.000	220.041	80.002	20.008	100.546	20.122	11.657	0.499
302.000	221.068	80.001	20.008	100.561	20.118	12.111	0.529
304.000	222.060	80.002	20.008	100.543	20.121	11.821	0.476
306.000	223.095	80.002	20.008	100.559	20.120	11.904	0.542
308.000	224.082	80.001	20.008	100.542	20.123	11.584	0.491
310.000	225.065	80.002	20.008	100.562	20.124	11.540	0.513
312.000	226.084	80.001	20.008	100.552	20.126	11.328	0.506
314.000	227.099	80.002	20.008	100.566	20.126	11.297	0.510
316.000	228.118	80.001	20.008	100.557	20.122	11.682	0.495
318.000	229.047	80.002	20.008	100.554	20.122	11.746	0.461
320.000	230.077	80.003	20.008	100.558	20.121	11.760	0.496
322.000	231.106	80.002	20.008	100.549	20.120	11.960	0.502
324.000	232.130	80.002	20.008	100.569	20.121	11.818	0.516
326.000	233.150	80.002	20.008	100.542	20.121	11.859	0.491
328.000	234.132	80.003	20.008	100.558	20.124	11.541	0.461
330.000	235.184	80.002	20.008	100.559	20.122	11.718	0.513
332.000	236.144	80.002	20.008	100.576	20.125	11.356	0.480
334.000	237.189	80.002	20.008	100.553	20.122	11.745	0.491
336.000	238.168	80.002	20.008	100.547	20.122	11.747	0.514
338.000	239.190	80.003	20.008	100.552	20.119	12.019	0.542
340.000	240.242	80.003	20.008	100.554	20.118	12.083	0.523
342.000	241.262	80.002	20.008	100.546	20.119	12.039	0.505
344.000	242.220	80.003	20.008	100.547	20.116	12.297	0.480
346.000	243.353	80.002	20.008	100.538	20.113	12.605	0.540
348.000	244.367	80.001	20.008	100.539	20.114	12.521	0.532
350.000	245.384	80.002	20.008	100.549	20.115	12.420	0.498
352.000	246.361	80.003	20.008	100.531	20.116	12.278	0.490
354.000	247.369	80.001	20.008	100.546	20.116	12.332	0.479
356.000	248.388	80.003	20.008	100.527	20.118	12.098	0.526
358.000	249.408	80.003	20.008	100.540	20.115	12.422	0.513
360.000	250.446	80.002	20.008	100.527	20.117	12.176	0.558
362.000	251.397	80.002	20.008	100.543	20.114	12.576	0.505
364.000	252.399	80.002	20.008	100.530	20.112	12.783	0.493
366.000	253.389	80.001	20.008	100.547	20.112	12.769	0.474
368.000	254.412	80.002	20.008	100.533	20.114	12.561	0.520
370.000	255.459	80.002	20.008	100.530	20.112	12.757	0.542
372.000	256.491	80.002	20.008	100.513	20.112	12.761	0.483
374.000	257.461	80.001	20.007	100.546	20.113	12.628	0.526
376.000	258.475	80.002	20.008	100.515	20.110	12.998	0.524
378.000	259.452	80.001	20.008	100.536	20.106	13.405	0.477
380.000	260.400	80.003	20.008	100.527	20.107	13.325	0.462
382.000	261.416	80.001	20.007	100.546	20.104	13.603	0.471
384.000	262.459	80.003	20.008	100.523	20.102	13.787	0.515
386.000	263.422	80.002	20.008	100.556	20.102	13.802	0.482
388.000	264.442	80.001	20.008	100.530	20.099	14.096	0.525
390.000	265.463	80.002	20.008	100.539	20.097	14.295	0.523
392.000	266.492	80.001	20.008	100.531	20.094	14.597	0.534
394.000	267.526	80.001	20.008	100.549	20.096	14.389	0.477
396.000	268.449	80.001	20.008	100.543	20.092	14.876	0.487
398.000	269.508	80.002	20.008	100.550	20.092	14.850	0.500
400.000	270.480	80.002	20.008	100.546	20.088	15.272	0.538
402.000	271.470	80.001	20.008	100.544	20.082	15.857	0.495
404.000	272.463	80.002	20.008	100.530	20.080	16.153	0.489
406.000	273.449	79.999	20.008	100.525	20.081	15.980	0.476
408.000	274.498	80.001	20.008	100.532	20.077	16.418	0.510
410.000	275.498	80.001	20.008	100.524	20.074	16.722	0.525
412.000	276.477	80.002	20.008	100.525	20.073	16.791	0.487
414.000	277.493	80.002	20.008	100.505	20.068	17.342	0.489
416.000	278.532	80.001	20.008	100.510	20.067	17.503	0.503
418.000	279.522	80.001	20.008	100.504	20.068	17.386	0.509
420.000	280.503	80.001	20.008	100.521	20.061	18.087	0.514
422.000	281.520	80.001	20.008	100.510	20.059	18.260	0.495
424.000	282.487	80.001	20.008	100.526	20.056	18.589	0.478
426.000	283.540	80.000	20.008	100.507	20.053	18.882	0.502
428.000	284.547	80.002	20.008	100.529	20.048	19.437	0.488
430.000	285.526	80.001	20.008	100.512	20.045	19.792	0.464
432.000	286.560	80.000	20.008	100.522	20.043	20.028	0.488
434.000	287.632	80.002	20.008	100.519	20.041	20.189	0.541
436.000	288.561	80.001	20.008	100.520	20.039	20.437	0.488
438.000	289.622	80.003	20.008	100.524	20.037	20.644	0.510
440.000	290.622	80.001	20.008	100.514	20.035	20.852	0.505
442.000	291.584	80.003	20.008	100.522	20.033	21.086	0.488
444.000	292.589	80.002	20.008	100.519	20.031	21.278	0.493
446.000	293.586	80.002	20.008	100.514	20.029	21.413	0.497
448.000	294.605	80.002	20.008	100.514	20.028	21.579	0.480
450.000	295.610	80.002	20.008	100.511	20.024	21.953	0.531
452.000	296.630	80.001	20.008	100.510	20.024	21.949	0.503
454.000	297.655	80.002	20.008	100.546	20.024	21.969	0.530
456.000	298.662	80.002	20.008	100.544	20.022	22.159	0.477
458.000	299.671	80.002	20.008	100.555	20.020	22.439	0.506
460.000	300.651	80.003	20.008	100.538	20.018	22.587	0.482
462.000	301.661	80.003	20.008	100.532	20.015	22.932	0.511
464.000	302.676	80.001	20.008	100.536	20.015	22.955	0.495
466.000	303.686	80.002	20.008	100.544	20.012	23.254	0.507
468.000	304.684	80.001	20.008	100.548	20.009	23.574	0.492
470.000	305.667	80.001	20.008	100.555	20.002	24.239	0.489
472.000	306.697	80.002	20.008	100.561	19.999	24.633	0.526
474.000	307.715	80.002	20.008	100.538	19.992	25.337	0.501
476.000	308.693	80.001	20.008	100.547	19.982	26.352	0.480
478.000	309.747	80.001	20.008	100.526	19.977	26.906	0.527
480.000	310.775	80.003	20.008	100.547	19.973	27.296	0.527
482.000	311.775	80.001	20.008	100.516	19.963	28.388	0.474
484.000	312.788	80.002	20.008	100.524	19.954	29.315	0.532
486.000	313.810	80.002	20.008	100.503	19.942	30.605	0.484
488.000	314.774	80.001	20.008	100.522	19.934	31.373	0.476
490.000	315.816	80.002	20.008	100.515	19.922	32.681	0.486
492.000	316.786	80.002	20.008	100.519	19.909	34.018	0.483
494.000	317.821	80.001	20.007	100.521	19.893	35.694	0.517
496.000	318.832	80.001	20.008	100.514	19.879	37.225	0.502
498.000	319.850	80.001	20.007	100.540	19.861	39.070	0.485
500.000	320.866	80.002	20.008	100.508	19.844	40.813	0.513
502.000	321.793	80.003	20.008	100.522	19.822	43.172	0.485
504.000	322.778	80.002	20.009	100.502	19.789	46.642	0.475
506.000	323.856	80.002	20.008	100.543	19.755	50.238	0.491
508.000	324.869	80.002	20.008	100.531	19.730	52.807	0.504
510.000	325.863	80.002	20.008	100.541	19.712	54.756	0.532
512.000	326.818	80.002	20.008	100.499	19.690	57.014	0.499
514.000	327.795	80.002	20.008	100.507	19.660	60.180	0.501
516.000	328.775	80.002	20.008	100.471	19.621	64.226	0.475
518.000	329.756	80.002	20.008	100.541	19.575	68.990	0.335
520.000	330.863	80.001	20.008	100.549	19.520	74.776	0.536
522.000	331.908	80.002	20.008	100.567	19.464	80.699	0.517
524.000	332.758	80.001	20.008	100.566	19.420	85.398	0.515
526.000	333.772	80.002	20.008	100.558	19.382	89.376	0.494
528.000	334.724	80.002	20.008	100.482	19.347	93.075	0.506
530.000	335.748	80.003	20.008	100.475	19.309	97.080	0.472
532.000	336.715	80.002	20.008	100.435	19.271	101.012	0.498
534.000	337.674	80.001	20.008	100.486	19.228	105.423	0.492
536.000	338.689	80.002	20.009	100.511	19.184	110.093	0.505
538.000	339.708	80.002	20.008	100.556	19.121	116.670	0.514
540.000	340.735	80.002	20.008	100.563	19.060	123.143	0.506
542.000	341.623	80.001	20.008	100.605	19.015	127.908	0.459
544.000	342.698	80.002	20.008	100.556	18.974	132.196	0.509
546.000	343.659	80.001	20.008	100.544	18.934	136.379	0.499
548.000	344.645	80.002	20.008	100.493	18.899	140.075	0.454
550.000	345.600	80.002	20.008	100.487	18.863	143.855	0.460
552.000	346.604	80.002	20.008	100.498	18.820	148.400	0.524
554.000	347.611	80.003	20.008	100.567	18.783	152.231	0.484
556.000	348.573	80.002	20.008	100.570	18.750	155.679	0.468
558.000	349.620	80.002	20.008	100.588	18.707	160.183	0.485
560.000	350.563	80.002	20.008	100.562	18.664	164.791	0.429
562.000	351.570	80.003	20.009	100.592	18.622	169.139	0.511
564.000	352.623	80.002	20.008	100.571	18.589	172.628	0.517
566.000	353.598	80.003	20.008	100.579	18.560	175.689	0.478
568.000	354.556	80.002	20.008	100.546	18.529	178.962	0.432
570.000	355.610	80.002	20.008	100.572	18.495	182.410	0.522
572.000	356.598	80.002	20.008	100.557	18.460	186.255	0.502
574.000	357.640	80.003	20.008	100.612	18.431	189.280	0.524
576.000	358.612	80.002	20.008	100.585	18.408	191.701	0.491
578.000	359.655	80.002	20.008	100.596	18.392	193.406	0.513
580.000	360.655	80.003	20.008	100.589	18.378	194.888	0.494
582.000	361.701	80.003	20.008	100.588	18.364	196.326	0.531
584.000	362.665	80.002	20.008	100.600	18.350	197.839	0.502
586.000	363.670	80.001	20.008	100.629	18.340	198.723	0.537
588.000	364.708	80.001	20.008	100.656	18.329	199.929	0.512
590.000	365.627	80.002	20.008	100.652	18.318	201.092	0.438
592.000	366.693	80.003	20.008	100.676	18.298	203.255	0.516
594.000	367.658	80.002	20.008	100.649	18.292	203.982	0.519
596.000	368.669	80.002	20.007	100.657	18.309	202.211	0.505
598.000	369.736	80.002	20.008	100.592	18.329	200.031	0.502
600.000	370.721	80.002	20.008	100.575	18.355	197.524	0.509
602.000	371.706	80.003	20.009	100.577	18.382	194.594	0.483
604.000	372.749	80.001	20.009	100.604	18.407	191.918	0.560
606.000	373.793	80.001	20.007	100.648	18.445	187.860	0.542
608.000	374.735	80.002	20.008	100.704	18.466	185.521	0.473
610.000	375.802	80.000	20.008	100.657	18.468	185.296	0.538
612.000	376.763	80.002	20.008	100.738	18.483	183.762	0.494
614.000	377.726	80.002	20.007	100.739	18.513	180.598	0.440
616.000	378.762	80.001	20.009	100.710	18.544	177.407	0.489
618.000	379.819	80.001	20.009	100.667	18.582	173.492	0.519
620.000	380.822	80.001	20.007	100.659	18.636	167.936	0.474
622.000	381.855	80.001	20.008	100.561	18.706	160.511	0.532
624.000	382.856	80.002	20.007	100.599	18.771	153.640	0.512
626.000	383.921	80.001	20.008	100.598	18.835	146.903	0.533
628.000	384.926	80.002	20.008	100.629	18.888	141.317	0.485
630.000	385.991	80.002	20.007	100.661	18.942	135.677	0.509
632.000	387.017	80.002	20.008	100.719	18.992	130.420	0.522
634.000	388.022	80.002	20.008	100.729	19.040	125.348	0.517
636.000	389.041	80.002	20.008	100.714	19.089	120.191	0.533
638.000	390.069	80.002	20.007	100.697	19.144	114.447	0.537
640.000	391.137	80.002	20.008	100.680	19.194	109.085	0.555
642.000	392.121	80.001	20.008	100.665	19.241	104.191	0.538
644.000	393.073	80.002	20.008	100.669	19.285	99.621	0.481
646.000	394.101	80.000	20.008	100.675	19.329	94.976	0.506
648.000	395.096	80.001	20.008	100.664	19.388	88.834	0.502
650.000	396.126	80.003	20.008	100.647	19.440	83.331	0.502
652.000	397.075	80.002	20.008	100.621	19.493	77.730	0.472
654.000	398.134	80.001	20.007	100.601	19.548	71.999	0.512
656.000	399.089	80.002	20.008	100.621	19.597	66.844	0.468
658.000	400.131	80.002	20.007	100.649	19.646	61.701	0.496
660.000	401.115	80.000	20.008	100.651	19.688	57.265	0.516
662.000	402.079	80.001	20.007	100.648	19.728	53.128	0.479
664.000	403.098	80.002	20.008	100.671	19.766	49.115	0.466
666.000	404.080	80.002	20.008	100.647	19.802	45.309	0.486
668.000	404.992	80.002	20.007	100.657	19.830	42.317	0.415
670.000	406.003	80.002	20.008	100.621	19.861	39.131	0.522
672.000	407.046	80.001	20.007	100.652	19.887	36.361	0.504
674.000	407.962	80.002	20.008	100.622	19.912	33.750	0.462
676.000	409.026	80.003	20.008	100.643	19.934	31.399	0.497
678.000	410.023	80.001	20.008	100.601	19.954	29.321	0.525
680.000	410.959	80.001	20.007	100.597	19.972	27.430	0.524
682.000	411.996	80.001	20.008	100.571	19.986	25.951	0.513
684.000	412.971	80.004	20.007	100.550	20.005	23.926	0.481
686.000	413.971	80.000	20.008	100.561	20.022	22.155	0.499
688.000	414.923	80.001	20.008	100.543	20.036	20.704	0.457
690.000	415.927	80.001	20.008	100.568	20.049	19.375	0.472
692.000	416.868	80.001	20.008	100.547	20.059	18.293	0.479
694.000	417.836	80.002	20.008	100.570	20.071	17.031	0.473
696.000	418.822	80.002	20.008	100.539	20.081	15.994	0.471
698.000	419.834	80.003	20.008	100.558	20.085	15.605	0.498
700.000	420.837	80.001	20.008	100.526	20.091	14.920	0.489
702.000	421.782	80.001	20.008	100.528	20.095	14.525	0.496
704.000	422.800	80.001	20.008	100.519	20.103	13.660	0.499
706.000	423.778	80.001	20.008	100.521	20.110	12.954	0.452
708.000	424.753	80.002	20.008	100.537	20.113	12.689	0.452
710.000	425.758	80.002	20.008	100.522	20.115	12.467	0.519
712.000	426.722	80.003	20.008	100.542	20.124	11.534	0.501
714.000	427.625	80.003	20.008	100.537	20.128	11.013	0.461
716.000	428.668	80.002	20.008	100.560	20.134	10.410	0.479
718.000	429.635	80.002	20.008	100.531	20.137	10.098	0.476
720.000	430.612	80.001	20.008	100.534	20.139	9.942	0.522
722.000	431.587	80.003	20.009	100.488	20.143	9.473	0.514
724.000	432.545	80.002	20.008	100.488	20.148	8.976	0.469
726.000	433.521	80.002	20.009	100.484	20.148	8.973	0.529
728.000	434.485	80.001	20.008	100.477	20.153	8.460	0.491
730.000	435.516	80.001	20.008	100.494	20.155	8.280	0.511
732.000	436.491	80.002	20.008	100.472	20.157	8.026	0.493
734.000	437.542	80.002	20.009	100.487	20.162	7.482	0.477
736.000	438.517	80.001	20.009	100.471	20.162	7.524	0.553
738.000	439.522	80.002	20.009	100.492	20.167	6.945	0.517
740.000	440.580	80.001	20.009	100.479	20.167	6.964	0.541
742.000	441.532	80.002	20.009	100.495	20.170	6.628	0.514
744.000	442.488	80.001	20.009	100.469	20.171	6.554	0.464
746.000	443.464	80.001	20.009	100.485	20.171	6.524	0.487
748.000	444.429	80.002	20.009	100.472	20.175	6.164	0.462
750.000	445.438	80.002	20.008	100.494	20.174	6.260	0.474
752.000	446.374	80.002	20.009	100.490	20.178	5.809	0.461
754.000	447.391	80.002	20.009	100.493	20.175	6.140	0.487
756.000	448.397	80.001	20.009	100.498	20.176	6.062	0.496
758.000	449.386	80.003	20.008	100.486	20.174	6.208	0.511
760.000	450.382	80.002	20.009	100.494	20.176	6.070	0.522
762.000	451.378	80.000	20.009	100.476	20.176	6.018	0.515
764.000	452.384	80.001	20.009	100.492	20.180	5.620	0.498
766.000	453.423	80.002	20.009	100.477	20.183	5.348	0.514
768.000	454.391	80.002	20.009	100.492	20.179	5.722	0.466
770.000	455.338	80.002	20.009	100.473	20.179	5.740	0.460
772.000	456.341	80.001	20.009	100.483	20.177	5.885	0.444
774.000	457.312	80.003	20.009	100.463	20.178	5.858	0.497
776.000	458.302	80.002	20.009	100.481	20.178	5.845	0.509
778.000	459.351	80.000	20.009	100.459	20.181	5.516	0.519
780.000	460.344	80.002	20.009	100.483	20.181	5.462	0.501
782.000	461.319	80.001	20.009	100.460	20.181	5.505	0.496
784.000	462.274	80.002	20.009	100.490	20.181	5.539	0.449
786.000	463.294	80.001	20.009	100.470	20.178	5.844	0.513
788.000	464.239	80.001	20.009	100.490	20.181	5.460	0.483
790.000	465.194	80.002	20.009	100.467	20.180	5.657	0.458
792.000	466.175	80.002	20.009	100.480	20.178	5.782	0.500
794.000	467.216	80.003	20.009	100.467	20.181	5.497	0.522
796.000	468.202	80.001	20.009	100.487	20.181	5.548	0.524
798.000	469.193	80.002	20.009	100.473	20.181	5.503	0.493
800.000	470.117	80.001	20.009	100.471	20.184	5.239	0.501
802.000	471.039	80.002	20.009	100.487	20.185	5.087	0.460
804.000	472.065	80.001	20.009	100.484	20.187	4.894	0.495
806.000	472.950	80.000	20.009	100.498	20.184	5.175	0.464
808.000	473.957	80.000	20.009	100.469	20.183	5.322	0.496
810.000	474.916	80.002	20.009	100.485	20.185	5.114	0.481
812.000	475.869	80.002	20.009	100.457	20.182	5.399	0.472
814.000	476.898	80.002	20.009	100.489	20.185	5.081	0.511
816.000	477.825	80.001	20.009	100.478	20.186	5.016	0.448
818.000	478.864	80.002	20.009	100.505	20.182	5.356	0.537
820.000	479.886	80.001	20.009	100.480	20.183	5.284	0.484
822.000	480.843	80.002	20.009	100.490	20.182	5.361	0.471
824.000	481.820	80.001	20.009	100.476	20.179	5.717	0.493
826.000	482.797	80.001	20.009	100.490	20.180	5.613	0.489
828.000	483.748	80.001	20.010	100.486	20.182	5.431	0.444
830.000	484.833	80.003	20.009	100.484	20.180	5.567	0.525
832.000	485.821	80.002	20.009	100.491	20.180	5.619	0.496
834.000	486.786	80.001	20.009	100.488	20.180	5.573	0.452
836.000	487.828	80.001	20.009	100.514	20.180	5.633	0.472
838.000	488.842	80.002	20.009	100.477	20.179	5.667	0.542
840.000	489.825	80.002	20.009	100.499	20.180	5.646	0.530
842.000	490.795	80.002	20.010	100.469	20.180	5.659	0.461
844.000	491.848	80.002	20.009	100.488	20.183	5.275	0.528
846.000	492.768	80.000	20.009	100.472	20.182	5.407	0.456
848.000	493.784	80.002	20.009	100.463	20.184	5.214	0.473
850.000	494.745	80.002	20.009	100.492	20.184	5.199	0.471
852.000	495.767	80.001	20.009	100.472	20.183	5.275	0.494
854.000	496.799	80.002	20.009	100.505	20.185	5.130	0.517
856.000	497.808	80.003	20.009	100.478	20.185	5.132	0.501
858.000	498.767	80.003	20.009	100.498	20.185	5.112	0.456
860.000	499.887	80.002	20.009	100.486	20.183	5.273	0.521
862.000	500.863	80.001	20.009	100.492	20.185	5.113	0.500
864.000	501.882	80.001	20.009	100.482	20.186	4.941	0.547
866.000	502.859	80.002	20.009	100.485	20.181	5.475	0.502
868.000	503.839	80.003	20.009	100.492	20.184	5.144	0.510
870.000	504.841	80.002	20.009	100.492	20.183	5.328	0.505
872.000	505.834	80.001	20.009	100.492	20.183	5.333	0.514
874.000	506.856	80.003	20.009	100.486	20.184	5.162	0.489
876.000	507.807	80.001	20.009	100.514	20.183	5.278	0.496
878.000	508.820	80.003	20.009	100.477	20.184	5.222	0.505
880.000	509.839	80.002	20.009	100.513	20.182	5.438	0.522
882.000	510.799	80.002	20.009	100.477	20.184	5.156	0.521
884.000	511.777	80.001	20.009	100.485	20.183	5.350	0.475
886.000	512.764	80.003	20.009	100.474	20.186	4.991	0.473
888.000	513.701	80.002	20.009	100.486	20.185	5.073	0.472
890.000	514.640	80.002	20.010	100.488	20.184	5.225	0.453
892.000	515.678	80.002	20.009	100.484	20.182	5.378	0.548
894.000	516.632	80.003	20.009	100.499	20.185	5.138	0.506
896.000	517.582	80.001	20.009	100.490	20.183	5.335	0.467
898.000	518.591	80.002	20.009	100.513	20.182	5.355	0.519
900.000	519.549	80.002	20.009	100.497	20.179	5.738	0.475
902.000	520.593	80.002	20.009	100.512	20.181	5.520	0.542
904.000	521.578	80.001	20.009	100.479	20.180	5.575	0.478
906.000	522.603	80.002	20.009	100.489	20.177	5.903	0.537
908.000	523.543	80.001	20.009	100.472	20.179	5.741	0.468
910.000	524.620	80.002	20.009	100.490	20.179	5.746	0.531
912.000	525.588	80.002	20.009	100.467	20.179	5.667	0.468
914.000	526.587	80.001	20.009	100.491	20.178	5.839	0.503
916.000	527.528	80.002	20.009	100.486	20.181	5.504	0.474
918.000	528.565	80.003	20.009	100.501	20.177	5.886	0.492
920.000	529.552	80.002	20.009	100.481	20.181	5.530	0.508
922.000	530.496	80.003	20.009	100.504	20.181	5.531	0.493
924.000	531.510	80.002	20.009	100.473	20.183	5.324	0.488
926.000	532.479	80.002	20.009	100.493	20.179	5.720	0.460
928.000	533.460	80.002	20.009	100.478	20.180	5.655	0.478
930.000	534.468	80.002	20.009	100.499	20.180	5.578	0.466
932.000	535.513	80.000	20.009	100.475	20.181	5.490	0.511
934.000	536.468	80.002	20.009	100.492	20.181	5.489	0.458
936.000	537.511	80.002	20.009	100.491	20.186	5.007	0.513
938.000	538.558	80.002	20.009	100.497	20.184	5.232	0.497
940.000	539.570	80.002	20.009	100.495	20.185	5.040	0.529
942.000	540.527	80.001	20.008	100.501	20.182	5.356	0.473
944.000	541.546	80.001	20.009	100.490	20.182	5.393	0.513
946.000	542.502	80.002	20.009	100.479	20.182	5.374	0.462
948.000	543.507	80.000	20.009	100.484	20.181	5.531	0.521
950.000	544.450	80.004	20.009	100.484	20.180	5.576	0.435
952.000	545.525	80.002	20.010	100.475	20.179	5.748	0.557
954.000	546.527	80.002	20.009	100.482	20.180	5.643	0.511
956.000	547.543	80.002	20.009	100.491	20.183	5.291	0.497
958.000	548.545	79.999	20.009	100.487	20.183	5.255	0.505
960.000	549.538	80.002	20.009	100.505	20.185	5.131	0.507
962.000	550.573	80.002	20.008	100.498	20.180	5.569	0.533
964.000	551.580	80.002	20.009	100.512	20.184	5.238	0.527
966.000	552.547	80.001	20.009	100.495	20.181	5.494	0.528
968.000	553.505	80.002	20.009	100.514	20.182	5.402	0.468
970.000	554.513	80.002	20.009	100.469	20.177	5.942	0.516
972.000	555.566	80.001	20.009	100.495	20.178	5.785	0.534
974.000	556.625	80.002	20.009	100.464	20.180	5.636	0.522
976.000	557.614	80.001	20.009	100.486	20.181	5.546	0.523
978.000	558.511	80.002	20.009	100.464	20.180	5.575	0.450
980.000	559.505	80.001	20.009	100.483	20.182	5.410	0.480
982.000	560.427	80.002	20.010	100.477	20.181	5.481	0.457
984.000	561.391	80.002	20.009	100.487	20.180	5.583	0.488
986.000	562.310	80.002	20.009	100.472	20.182	5.449	0.460
988.000	563.341	80.003	20.009	100.487	20.185	5.107	0.494
990.000	564.254	80.001	20.009	100.488	20.185	5.098	0.499
992.000	565.274	80.001	20.009	100.499	20.185	5.091	0.499
994.000	566.239	80.003	20.010	100.488	20.184	5.170	0.491
996.000	567.227	80.002	20.009	100.494	20.185	5.056	0.490
998.000	568.214	80.001	20.010	100.514	20.186	4.954	0.516
1000.000	569.223	80.000	20.009	100.509	20.184	5.143	0.511
1002.000	570.187	80.001	20.009	100.508	20.186	4.946	0.522
1004.000	571.210	80.001	20.009	100.496	20.189	4.687	0.485
1006.000	572.194	80.001	20.009	100.523	20.187	4.849	0.481
1008.000	573.154	80.002	20.009	100.504	20.186	4.973	0.511
1010.000	574.184	80.003	20.009	100.507	20.185	5.044	0.478
1012.000	575.147	80.001	20.009	100.468	20.184	5.154	0.528
1014.000	576.116	80.002	20.009	100.509	20.184	5.173	0.493
1016.000	577.103	80.000	20.009	100.491	20.183	5.333	0.451
1018.000	578.132	80.002	20.009	100.521	20.180	5.562	0.534
1020.000	579.095	80.003	20.009	100.498	20.182	5.433	0.500
1022.000	580.169	80.002	20.009	100.520	20.180	5.574	0.512
1024.000	581.094	80.001	20.009	100.498	20.182	5.385	0.467
1025.999	582.111	80.003	20.009	100.506	20.180	5.590	0.513
1027.999	583.113	80.001	20.009	100.491	20.182	5.357	0.511
1029.999	584.133	80.001	20.009	100.483	20.179	5.693	0.514
1031.999	585.108	80.001	20.009	100.489	20.180	5.661	0.484
1033.999	586.078	80.002	20.009	100.507	20.182	5.416	0.437
1036.000	587.182	80.002	20.010	100.504	20.177	5.905	0.548
1038.000	588.133	80.001	20.009	100.509	20.178	5.795	0.476
1040.000	589.219	80.002	20.009	100.494	20.179	5.722	0.502
1042.000	590.224	80.001	20.009	100.489	20.179	5.675	0.512
1044.000	591.246	80.001	20.009	100.494	20.178	5.811	0.505
1046.001	592.190	80.002	20.009	100.491	20.180	5.639	0.447
1047.999	593.301	80.001	20.010	100.495	20.179	5.767	0.531
1049.999	594.343	80.002	20.009	100.491	20.176	6.060	0.555
1051.999	595.268	80.000	20.009	100.487	20.180	5.637	0.484
1053.999	596.316	80.001	20.009	100.482	20.179	5.763	0.475
1055.999	597.261	80.000	20.009	100.493	20.177	5.955	0.501
1057.999	598.277	80.003	20.009	100.477	20.176	6.054	0.464
1059.999	599.313	80.001	20.010	100.488	20.177	5.886	0.502
1061.999	600.342	80.002	20.009	100.493	20.178	5.840	0.508
1063.999	601.364	80.002	20.010	100.510	20.178	5.837	0.539
1065.999	602.365	80.003	20.009	100.500	20.177	5.910	0.516
1068.000	603.380	80.003	20.010	100.519	20.179	5.749	0.546
1070.000	604.365	80.000	20.009	100.519	20.180	5.625	0.541
1071.999	605.330	80.001	20.009	100.519	20.180	5.615	0.486
1073.999	606.417	80.001	20.009	100.497	20.182	5.438	0.562
1075.999	607.439	80.003	20.010	100.513	20.183	5.309	0.518
1077.999	608.454	80.002	20.010	100.482	20.182	5.414	0.500
1079.999	609.429	80.001	20.009	100.517	20.182	5.436	0.491
1081.999	610.458	80.002	20.009	100.507	20.181	5.458	0.520
1083.999	611.408	80.002	20.009	100.517	20.181	5.497	0.481
1086.000	612.402	80.001	20.009	100.474	20.182	5.404	0.444
1087.999	613.428	80.001	20.009	100.505	20.182	5.451	0.514
1089.999	614.411	80.002	20.010	100.486	20.184	5.239	0.503
1092.000	615.350	80.002	20.009	100.514	20.186	4.932	0.482
1093.999	616.370	80.003	20.009	100.480	20.184	5.244	0.496
1095.999	617.346	80.002	20.009	100.523	20.184	5.234	0.501
1097.999	618.238	80.002	20.009	100.507	20.183	5.318	0.455
1099.999	619.242	80.003	20.009	100.519	20.179	5.675	0.477
1102.000	620.121	80.003	20.010	100.487	20.185	5.067	0.471
1103.999	621.107	80.002	20.009	100.529	20.184	5.198	0.479
1105.999	622.076	80.003	20.009	100.509	20.187	4.922	0.500
1108.001	623.004	80.002	20.009	100.537	20.184	5.177	0.486
1109.999	623.887	80.001	20.009	100.535	20.188	4.724	0.441
1111.999	624.849	80.002	20.009	100.544	20.184	5.183	0.478
1113.999	625.772	80.001	20.010	100.531	20.185	5.120	0.468
1115.999	626.744	80.001	20.009	100.534	20.184	5.222	0.489
1117.999	627.713	80.002	20.010	100.507	20.183	5.312	0.462
1120.000	628.680	80.000	20.010	100.533	20.184	5.225	0.492
1121.999	629.600	80.002	20.010	100.538	20.184	5.146	0.462
1123.999	630.535	80.001	20.009	100.534	20.181	5.508	0.477
1125.999	631.511	80.001	20.009	100.521	20.181	5.554	0.484
1127.999	632.540	80.002	20.009	100.527	20.181	5.494	0.478
1129.999	633.489	80.002	20.009	100.501	20.179	5.731	0.482
1131.999	634.518	80.001	20.009	100.517	20.183	5.267	0.482
1133.999	635.522	80.002	20.010	100.512	20.180	5.641	0.495
1135.999	636.492	80.001	20.009	100.527	20.180	5.658	0.511
1137.999	637.552	80.002	20.010	100.490	20.177	5.974	0.556
1139.999	638.584	80.002	20.009	100.474	20.175	6.152	0.553
1141.999	639.556	80.002	20.009	100.466	20.172	6.440	0.516
1143.999	640.605	80.001	20.009	100.499	20.167	6.941	0.493
1145.999	641.664	80.002	20.009	100.480	20.175	6.130	0.527
1147.999	642.726	80.001	20.009	100.501	20.168	6.876	0.535
1149.999	643.696	80.001	20.010	100.488	20.170	6.709	0.489
1152.000	644.797	80.001	20.009	100.508	20.170	6.667	0.530
1153.999	645.915	80.002	20.009	100.496	20.169	6.768	0.524
1156.000	646.918	80.002	20.009	100.512	20.169	6.799	0.552
1158.000	648.010	80.001	20.009	100.490	20.166	7.035	0.541
1159.999	649.037	80.002	20.009	100.522	20.170	6.680	0.541
1161.999	650.032	80.000	20.009	100.507	20.170	6.698	0.451
1163.999	651.111	80.001	20.009	100.522	20.167	7.023	0.524
1165.999	652.180	80.002	20.009	100.497	20.166	7.063	0.532
1167.999	653.223	80.003	20.009	100.516	20.170	6.649	0.500
1170.000	654.292	80.001	20.009	100.476	20.169	6.805	0.523
1171.999	655.356	80.002	20.010	100.518	20.171	6.551	0.494
1173.999	656.366	80.001	20.010	100.500	20.170	6.679	0.526
1175.999	657.425	80.001	20.009	100.528	20.172	6.423	0.517
1177.999	658.427	80.002	20.009	100.539	20.171	6.587	0.548
1179.999	659.442	80.002	20.009	100.533	20.166	7.115	0.493
1181.999	660.507	80.001	20.009	100.482	20.167	7.023	0.495
1184.000	661.546	80.001	20.009	100.500	20.167	6.995	0.503
1186.000	662.574	80.001	20.009	100.511	20.167	6.988	0.476
1187.999	663.659	80.003	20.009	100.530	20.168	6.820	0.484
1189.999	664.699	80.002	20.008	100.499	20.169	6.741	0.538
1191.999	665.680	80.002	20.008	100.512	20.167	6.929	0.484
1193.999	666.637	80.001	20.008	100.483	20.167	6.970	0.474
1196.000	667.715	80.002	20.008	100.520	20.170	6.689	0.546
1197.999	668.711	80.002	20.008	100.498	20.168	6.896	0.525
1200.000	669.781	80.003	20.008	100.528	20.167	7.002	0.529
1201.999	670.755	80.002	20.009	100.501	20.165	7.228	0.510
1203.999	671.748	80.001	20.008	100.515	20.167	6.942	0.495
1205.999	672.800	80.002	20.008	100.504	20.168	6.907	0.506
1207.999	673.777	80.003	20.008	100.543	20.170	6.688	0.541
1209.999	674.752	80.002	20.009	100.519	20.170	6.631	0.483
1211.999	675.773	80.001	20.008	100.509	20.170	6.659	0.521
1214.001	676.770	80.003	20.009	100.534	20.173	6.331	0.483
1215.999	677.697	80.002	20.008	100.563	20.169	6.801	0.483
1217.999	678.636	80.002	20.009	100.534	20.167	7.024	0.485
1219.999	679.661	80.003	20.008	100.536	20.164	7.313	0.486
1221.999	680.661	80.002	20.009	100.512	20.165	7.184	0.501
1223.999	681.655	80.002	20.009	100.520	20.169	6.810	0.483
1226.000	682.645	80.002	20.009	100.531	20.167	7.017	0.487
1227.999	683.600	80.002	20.009	100.539	20.168	6.918	0.487
1229.999	684.591	80.000	20.009	100.515	20.171	6.544	0.515
1232.000	685.488	80.002	20.009	100.532	20.171	6.529	0.460
1233.999	686.429	80.002	20.009	100.536	20.171	6.542	0.493
1235.999	687.420	80.003	20.009	100.547	20.174	6.216	0.510
1237.999	688.372	80.001	20.008	100.535	20.174	6.260	0.472
1240.000	689.471	80.001	20.009	100.541	20.170	6.619	0.541
1241.999	690.367	80.003	20.009	100.530	20.168	6.840	0.480
1243.999	691.362	80.002	20.009	100.514	20.172	6.467	0.482
1245.999	692.405	80.002	20.009	100.526	20.170	6.696	0.529
1247.999	693.355	80.001	20.010	100.530	20.169	6.721	0.497
1249.999	694.404	80.002	20.009	100.556	20.168	6.844	0.488
1251.999	695.399	80.002	20.010	100.544	20.168	6.864	0.510
1253.999	696.372	80.003	20.009	100.535	20.164	7.281	0.484
1255.999	697.435	80.001	20.010	100.509	20.162	7.495	0.489
1257.999	698.408	80.002	20.009	100.522	20.162	7.514	0.514
1259.999	699.460	80.001	20.009	100.503	20.163	7.381	0.463
1261.999	700.455	80.001	20.009	100.513	20.164	7.301	0.484
1263.999	701.425	80.002	20.010	100.507	20.163	7.427	0.472
1265.999	702.373	80.003	20.009	100.523	20.162	7.482	0.479
1267.999	703.418	80.003	20.010	100.509	20.160	7.666	0.448
1269.999	704.420	80.003	20.009	100.518	20.161	7.580	0.498
1271.999	705.486	80.001	20.009	100.515	20.162	7.509	0.486
1273.999	706.532	80.002	20.008	100.528	20.161	7.567	0.531
1275.999	707.592	80.001	20.009	100.504	20.161	7.563	0.565
1277.999	708.606	80.002	20.009	100.522	20.159	7.853	0.526
1279.999	709.600	80.002	20.009	100.489	20.161	7.641	0.509
1281.999	710.640	80.002	20.009	100.494	20.158	7.942	0.496
1284.000	711.604	80.002	20.009	100.474	20.157	7.988	0.516
1286.000	712.614	80.002	20.009	100.512	20.153	8.454	0.477
1287.999	713.582	80.002	20.010	100.496	20.155	8.256	0.504
1290.000	714.594	80.002	20.009	100.515	20.155	8.214	0.464
1292.000	715.610	80.001	20.009	100.511	20.155	8.203	0.451
1294.000	716.645	80.002	20.009	100.517	20.157	8.061	0.507
1295.999	717.632	80.002	20.009	100.521	20.160	7.686	0.490
1298.000	718.598	80.001	20.009	100.532	20.157	8.039	0.502
1299.999	719.604	80.001	20.009	100.490	20.159	7.866	0.504
1301.999	720.547	80.002	20.009	100.515	20.158	7.924	0.471
1303.999	721.504	80.003	20.009	100.495	20.159	7.860	0.489
1305.999	722.498	80.002	20.009	100.513	20.156	8.085	0.528
1307.999	723.449	80.003	20.009	100.504	20.157	8.044	0.500
1309.999	724.441	80.003	20.009	100.520	20.156	8.162	0.515
1311.999	725.488	80.002	20.009	100.508	20.156	8.126	0.528
1313.999	726.505	80.003	20.009	100.529	20.158	7.939	0.536
1316.000	727.534	80.002	20.008	100.522	20.158	7.878	0.506
1317.999	728.613	80.002	20.009	100.533	20.163	7.404	0.512
1319.999	729.597	80.002	20.009	100.541	20.165	7.191	0.497
1321.999	730.630	80.002	20.009	100.569	20.164	7.327	0.518
1323.999	731.605	80.002	20.009	100.547	20.162	7.547	0.496
1325.999	732.609	80.002	20.009	100.564	20.163	7.364	0.483
1327.999	733.668	80.002	20.009	100.532	20.163	7.380	0.512
1329.999	734.729	80.003	20.009	100.531	20.164	7.332	0.503
1331.999	735.715	80.002	20.010	100.530	20.162	7.486	0.497
1333.999	736.784	80.003	20.009	100.526	20.156	8.099	0.559
1335.999	737.863	80.001	20.010	100.489	20.156	8.092	0.538
1337.999	738.830	80.002	20.010	100.506	20.156	8.163	0.490
1339.999	739.831	80.002	20.009	100.519	20.161	7.611	0.483
1341.999	740.818	80.001	20.009	100.529	20.163	7.447	0.449
1343.999	741.816	80.002	20.009	100.537	20.163	7.445	0.517
1344.999	742.367	80.002	20.009	100.526	20.161	7.614	0.529