File: Experiments/TGA/TUBS/tga_isotherm/tga_isotherm_n2_iso320_piece_3mg_r3.txt
index	ts	t	weight	tr
[#]	[°C]	[s]	[mg]	[°C]
900	1.22187e+02	9.00000e+02	2.95461e+00	9.00000e+01
935	1.76921e+02	9.35000e+02	2.95106e+00	3.20000e+02
966	2.28271e+02	9.66000e+02	2.94354e+00	3.20000e+02
997	2.60233e+02	9.97000e+02	2.92640e+00	3.20000e+02
1028	2.81412e+02	1.02800e+03	2.90616e+00	3.20000e+02
1059	2.95987e+02	1.05900e+03	2.87693e+00	3.20000e+02
1090	3.05720e+02	1.09000e+03	2.84758e+00	3.20000e+02
1121	3.11838e+02	1.12100e+03	2.81584e+00	3.20000e+02
1152	3.16058e+02	1.15200e+03	2.78674e+00	3.20000e+02
1183	3.18680e+02	1.18300e+03	2.76107e+00	3.20000e+02
1214	3.20404e+02	1.21400e+03	2.73720e+00	3.20000e+02
1245	3.21563e+02	1.24500e+03	2.71413e+00	3.20000e+02
1276	3.22238e+02	1.27600e+03	2.69179e+00	3.20000e+02
1307	3.22652e+02	1.30700e+03	2.66929e+00	3.20000e+02
1338	3.22944e+02	1.33800e+03	2.64669e+00	3.20000e+02
1369	3.23179e+02	1.36900e+03	2.62472e+00	3.20000e+02
1400	3.23302e+02	1.40000e+03	2.60249e+00	3.20000e+02
1431	3.23375e+02	1.43100e+03	2.58043e+00	3.20000e+02
1462	3.23424e+02	1.46200e+03	2.55823e+00	3.20000e+02
1493	3.23446e+02	1.49300e+03	2.53632e+00	3.20000e+02
1524	3.23472e+02	1.52400e+03	2.51437e+00	3.20000e+02
1555	3.23471e+02	1.55500e+03	2.49293e+00	3.20000e+02
1586	3.23464e+02	1.58600e+03	2.47118e+00	3.20000e+02
1617	3.23471e+02	1.61700e+03	2.45000e+00	3.20000e+02
1648	3.23469e+02	1.64800e+03	2.42898e+00	3.20000e+02
1679	3.23447e+02	1.67900e+03	2.40791e+00	3.20000e+02
1710	3.23441e+02	1.71000e+03	2.38740e+00	3.20000e+02
1741	3.23432e+02	1.74100e+03	2.36710e+00	3.20000e+02
1772	3.23438e+02	1.77200e+03	2.34689e+00	3.20000e+02
1803	3.23422e+02	1.80300e+03	2.32683e+00	3.20000e+02
1834	3.23414e+02	1.83400e+03	2.30709e+00	3.20000e+02
1865	3.23416e+02	1.86500e+03	2.28773e+00	3.20000e+02
1896	3.23408e+02	1.89600e+03	2.26867e+00	3.20000e+02
1927	3.23397e+02	1.92700e+03	2.24979e+00	3.20000e+02
1958	3.23393e+02	1.95800e+03	2.23115e+00	3.20000e+02
1989	3.23401e+02	1.98900e+03	2.21299e+00	3.20000e+02
2020	3.23394e+02	2.02000e+03	2.19402e+00	3.20000e+02
2051	3.23403e+02	2.05100e+03	2.17596e+00	3.20000e+02
2082	3.23386e+02	2.08200e+03	2.15852e+00	3.20000e+02
2113	3.23385e+02	2.11300e+03	2.14132e+00	3.20000e+02
2144	3.23384e+02	2.14400e+03	2.12426e+00	3.20000e+02
2175	3.23393e+02	2.17500e+03	2.10745e+00	3.20000e+02
2206	3.23369e+02	2.20600e+03	2.09094e+00	3.20000e+02
2237	3.23386e+02	2.23700e+03	2.07464e+00	3.20000e+02
2268	3.23392e+02	2.26800e+03	2.05864e+00	3.20000e+02
2299	3.23374e+02	2.29900e+03	2.04275e+00	3.20000e+02
2330	3.23374e+02	2.33000e+03	2.02715e+00	3.20000e+02
2361	3.23385e+02	2.36100e+03	2.01170e+00	3.20000e+02
2392	3.23383e+02	2.39200e+03	1.99653e+00	3.20000e+02
2423	3.23376e+02	2.42300e+03	1.98147e+00	3.20000e+02
2454	3.23371e+02	2.45400e+03	1.96684e+00	3.20000e+02
2485	3.23372e+02	2.48500e+03	1.95243e+00	3.20000e+02
2516	3.23371e+02	2.51600e+03	1.93819e+00	3.20000e+02
2547	3.23376e+02	2.54700e+03	1.92408e+00	3.20000e+02
2578	3.23366e+02	2.57800e+03	1.91036e+00	3.20000e+02
2609	3.23365e+02	2.60900e+03	1.89669e+00	3.20000e+02
2640	3.23376e+02	2.64000e+03	1.88323e+00	3.20000e+02
2671	3.23367e+02	2.67100e+03	1.86964e+00	3.20000e+02
2702	3.23364e+02	2.70200e+03	1.85652e+00	3.20000e+02
2733	3.23369e+02	2.73300e+03	1.84384e+00	3.20000e+02
2764	3.23377e+02	2.76400e+03	1.83113e+00	3.20000e+02
2795	3.23370e+02	2.79500e+03	1.81854e+00	3.20000e+02
2826	3.23365e+02	2.82600e+03	1.80603e+00	3.20000e+02
2857	3.23372e+02	2.85700e+03	1.79393e+00	3.20000e+02
2888	3.23370e+02	2.88800e+03	1.78165e+00	3.20000e+02
2919	3.23366e+02	2.91900e+03	1.76986e+00	3.20000e+02
2950	3.23368e+02	2.95000e+03	1.75803e+00	3.20000e+02
2981	3.23370e+02	2.98100e+03	1.74653e+00	3.20000e+02
3012	3.23360e+02	3.01200e+03	1.73504e+00	3.20000e+02
3043	3.23366e+02	3.04300e+03	1.72384e+00	3.20000e+02
3074	3.23365e+02	3.07400e+03	1.71256e+00	3.20000e+02
3105	3.23365e+02	3.10500e+03	1.70163e+00	3.20000e+02
3136	3.23361e+02	3.13600e+03	1.69075e+00	3.20000e+02
3167	3.23366e+02	3.16700e+03	1.67999e+00	3.20000e+02
3198	3.23370e+02	3.19800e+03	1.66923e+00	3.20000e+02
3229	3.23362e+02	3.22900e+03	1.65871e+00	3.20000e+02
3260	3.23366e+02	3.26000e+03	1.64849e+00	3.20000e+02
3291	3.23359e+02	3.29100e+03	1.63815e+00	3.20000e+02
3322	3.23363e+02	3.32200e+03	1.62821e+00	3.20000e+02
3353	3.23371e+02	3.35300e+03	1.61836e+00	3.20000e+02
3384	3.23364e+02	3.38400e+03	1.60833e+00	3.20000e+02
3415	3.23354e+02	3.41500e+03	1.59870e+00	3.20000e+02
3446	3.23357e+02	3.44600e+03	1.58915e+00	3.20000e+02
3477	3.23354e+02	3.47700e+03	1.57962e+00	3.20000e+02
3508	3.23373e+02	3.50800e+03	1.57023e+00	3.20000e+02
3539	3.23363e+02	3.53900e+03	1.56083e+00	3.20000e+02
3570	3.23356e+02	3.57000e+03	1.55194e+00	3.20000e+02
3601	3.23366e+02	3.60100e+03	1.54269e+00	3.20000e+02
3632	3.23369e+02	3.63200e+03	1.53377e+00	3.20000e+02
3663	3.23371e+02	3.66300e+03	1.52464e+00	3.20000e+02
3694	3.23370e+02	3.69400e+03	1.51542e+00	3.20000e+02
3725	3.23361e+02	3.72500e+03	1.50665e+00	3.20000e+02
3756	3.23356e+02	3.75600e+03	1.49798e+00	3.20000e+02
3787	3.23355e+02	3.78700e+03	1.48959e+00	3.20000e+02
3818	3.23358e+02	3.81800e+03	1.48116e+00	3.20000e+02
3849	3.23344e+02	3.84900e+03	1.47272e+00	3.20000e+02
3880	3.23357e+02	3.88000e+03	1.46453e+00	3.20000e+02
3911	3.23346e+02	3.91100e+03	1.45661e+00	3.20000e+02
3942	3.23350e+02	3.94200e+03	1.44849e+00	3.20000e+02
3973	3.23354e+02	3.97300e+03	1.44052e+00	3.20000e+02
4004	3.23355e+02	4.00400e+03	1.43275e+00	3.20000e+02
4035	3.23354e+02	4.03500e+03	1.42489e+00	3.20000e+02
4066	3.23355e+02	4.06600e+03	1.41723e+00	3.20000e+02
4097	3.23361e+02	4.09700e+03	1.40949e+00	3.20000e+02
4128	3.23365e+02	4.12800e+03	1.40191e+00	3.20000e+02
4159	3.23353e+02	4.15900e+03	1.39424e+00	3.20000e+02
4190	3.23355e+02	4.19000e+03	1.38645e+00	3.20000e+02
4221	3.23363e+02	4.22100e+03	1.37902e+00	3.20000e+02
4252	3.23367e+02	4.25200e+03	1.37184e+00	3.20000e+02
4283	3.23364e+02	4.28300e+03	1.36479e+00	3.20000e+02
4314	3.23365e+02	4.31400e+03	1.35737e+00	3.20000e+02
4345	3.23362e+02	4.34500e+03	1.35033e+00	3.20000e+02
4376	3.23354e+02	4.37600e+03	1.34334e+00	3.20000e+02
4407	3.23345e+02	4.40700e+03	1.33613e+00	3.20000e+02
4438	3.23352e+02	4.43800e+03	1.32926e+00	3.20000e+02
4469	3.23350e+02	4.46900e+03	1.32229e+00	3.20000e+02
4500	3.23339e+02	4.50000e+03	1.31548e+00	3.20000e+02
4531	3.23335e+02	4.53100e+03	1.30858e+00	3.20000e+02
4562	3.23340e+02	4.56200e+03	1.30198e+00	3.20000e+02
4593	3.23343e+02	4.59300e+03	1.29518e+00	3.20000e+02
4624	3.23344e+02	4.62400e+03	1.28861e+00	3.20000e+02
4655	3.23339e+02	4.65500e+03	1.28223e+00	3.20000e+02
4686	3.23337e+02	4.68600e+03	1.27571e+00	3.20000e+02
4717	3.23337e+02	4.71700e+03	1.26947e+00	3.20000e+02
4748	3.23344e+02	4.74800e+03	1.26314e+00	3.20000e+02
4779	3.23343e+02	4.77900e+03	1.25687e+00	3.20000e+02
4810	3.23333e+02	4.81000e+03	1.25061e+00	3.20000e+02
4841	3.23340e+02	4.84100e+03	1.24431e+00	3.20000e+02
4872	3.23332e+02	4.87200e+03	1.23820e+00	3.20000e+02
4903	3.23352e+02	4.90300e+03	1.23234e+00	3.20000e+02
4934	3.23346e+02	4.93400e+03	1.22635e+00	3.20000e+02
4965	3.23336e+02	4.96500e+03	1.22026e+00	3.20000e+02
4996	3.23345e+02	4.99600e+03	1.21448e+00	3.20000e+02
5027	3.23346e+02	5.02700e+03	1.20851e+00	3.20000e+02
5058	3.23347e+02	5.05800e+03	1.20270e+00	3.20000e+02
5089	3.23340e+02	5.08900e+03	1.19677e+00	3.20000e+02
5120	3.23344e+02	5.12000e+03	1.19115e+00	3.20000e+02
5151	3.23345e+02	5.15100e+03	1.18554e+00	3.20000e+02
5182	3.23344e+02	5.18200e+03	1.17981e+00	3.20000e+02
5213	3.23351e+02	5.21300e+03	1.17401e+00	3.20000e+02
5244	3.23346e+02	5.24400e+03	1.16837e+00	3.20000e+02
5275	3.23335e+02	5.27500e+03	1.16279e+00	3.20000e+02
5306	3.23345e+02	5.30600e+03	1.15741e+00	3.20000e+02
5337	3.23344e+02	5.33700e+03	1.15183e+00	3.20000e+02
5368	3.23336e+02	5.36800e+03	1.14637e+00	3.20000e+02
5399	3.23343e+02	5.39900e+03	1.14103e+00	3.20000e+02
5430	3.23332e+02	5.43000e+03	1.13577e+00	3.20000e+02
5461	3.23341e+02	5.46100e+03	1.13040e+00	3.20000e+02
5492	3.23340e+02	5.49200e+03	1.12511e+00	3.20000e+02
5523	3.23325e+02	5.52300e+03	1.11990e+00	3.20000e+02
5554	3.23326e+02	5.55400e+03	1.11477e+00	3.20000e+02
5585	3.23324e+02	5.58500e+03	1.10956e+00	3.20000e+02
5616	3.23328e+02	5.61600e+03	1.10454e+00	3.20000e+02
5647	3.23328e+02	5.64700e+03	1.09950e+00	3.20000e+02
5678	3.23323e+02	5.67800e+03	1.09452e+00	3.20000e+02
5709	3.23324e+02	5.70900e+03	1.08955e+00	3.20000e+02
5740	3.23327e+02	5.74000e+03	1.08455e+00	3.20000e+02
5771	3.23331e+02	5.77100e+03	1.07961e+00	3.20000e+02
5802	3.23318e+02	5.80200e+03	1.07454e+00	3.20000e+02
5833	3.23330e+02	5.83300e+03	1.06985e+00	3.20000e+02
5864	3.23340e+02	5.86400e+03	1.06514e+00	3.20000e+02
5895	3.23319e+02	5.89500e+03	1.06050e+00	3.20000e+02
5926	3.23328e+02	5.92600e+03	1.05562e+00	3.20000e+02
5957	3.23329e+02	5.95700e+03	1.05108e+00	3.20000e+02
5988	3.23320e+02	5.98800e+03	1.04653e+00	3.20000e+02
6019	3.23309e+02	6.01900e+03	1.04179e+00	3.20000e+02
6050	3.23309e+02	6.05000e+03	1.03718e+00	3.20000e+02
6081	3.23317e+02	6.08100e+03	1.03263e+00	3.20000e+02
6112	3.23311e+02	6.11200e+03	1.02817e+00	3.20000e+02
6143	3.23313e+02	6.14300e+03	1.02374e+00	3.20000e+02
6174	3.23316e+02	6.17400e+03	1.01936e+00	3.20000e+02
6205	3.23317e+02	6.20500e+03	1.01478e+00	3.20000e+02
6236	3.23318e+02	6.23600e+03	1.01032e+00	3.20000e+02
6267	3.23320e+02	6.26700e+03	1.00599e+00	3.20000e+02
6298	3.23306e+02	6.29800e+03	1.00180e+00	3.20000e+02
6329	3.23317e+02	6.32900e+03	9.97405e-01	3.20000e+02
6360	3.23319e+02	6.36000e+03	9.93182e-01	3.20000e+02
6391	3.23320e+02	6.39100e+03	9.88881e-01	3.20000e+02
6422	3.23306e+02	6.42200e+03	9.84755e-01	3.20000e+02
6453	3.23323e+02	6.45300e+03	9.80644e-01	3.20000e+02
6484	3.23317e+02	6.48400e+03	9.76296e-01	3.20000e+02
6515	3.23315e+02	6.51500e+03	9.72118e-01	3.20000e+02
6546	3.23324e+02	6.54600e+03	9.68027e-01	3.20000e+02
6577	3.23316e+02	6.57700e+03	9.63816e-01	3.20000e+02
6608	3.23314e+02	6.60800e+03	9.59731e-01	3.20000e+02
6639	3.23300e+02	6.63900e+03	9.55548e-01	3.20000e+02
6670	3.23307e+02	6.67000e+03	9.51567e-01	3.20000e+02
6701	3.23324e+02	6.70100e+03	9.47568e-01	3.20000e+02
6732	3.23304e+02	6.73200e+03	9.43544e-01	3.20000e+02
6763	3.23306e+02	6.76300e+03	9.39417e-01	3.20000e+02
6794	3.23306e+02	6.79400e+03	9.35518e-01	3.20000e+02
6825	3.23315e+02	6.82500e+03	9.31654e-01	3.20000e+02
6856	3.23313e+02	6.85600e+03	9.27744e-01	3.20000e+02
6887	3.23304e+02	6.88700e+03	9.23686e-01	3.20000e+02
6918	3.23309e+02	6.91800e+03	9.19969e-01	3.20000e+02
6949	3.23308e+02	6.94900e+03	9.16186e-01	3.20000e+02
6980	3.23307e+02	6.98000e+03	9.12368e-01	3.20000e+02
7011	3.23325e+02	7.01100e+03	9.08592e-01	3.20000e+02
7042	3.23313e+02	7.04200e+03	9.05039e-01	3.20000e+02
7073	3.23310e+02	7.07300e+03	9.01416e-01	3.20000e+02
7104	3.23310e+02	7.10400e+03	8.97711e-01	3.20000e+02
7135	3.23307e+02	7.13500e+03	8.93975e-01	3.20000e+02
7166	3.23326e+02	7.16600e+03	8.90385e-01	3.20000e+02
7197	3.23322e+02	7.19700e+03	8.86754e-01	3.20000e+02
7228	3.23314e+02	7.22800e+03	8.83124e-01	3.20000e+02
7259	3.23323e+02	7.25900e+03	8.79587e-01	3.20000e+02
7290	3.23314e+02	7.29000e+03	8.76067e-01	3.20000e+02
7321	3.23319e+02	7.32100e+03	8.72636e-01	3.20000e+02
7352	3.23314e+02	7.35200e+03	8.69131e-01	3.20000e+02
7383	3.23318e+02	7.38300e+03	8.65638e-01	3.20000e+02
7414	3.23313e+02	7.41400e+03	8.62222e-01	3.20000e+02
7445	3.23313e+02	7.44500e+03	8.58597e-01	3.20000e+02
7476	3.23323e+02	7.47600e+03	8.55299e-01	3.20000e+02
7507	3.23308e+02	7.50700e+03	8.51929e-01	3.20000e+02
7538	3.23321e+02	7.53800e+03	8.48534e-01	3.20000e+02
7569	3.23316e+02	7.56900e+03	8.45279e-01	3.20000e+02
7600	3.23316e+02	7.60000e+03	8.42139e-01	3.20000e+02
7631	3.23323e+02	7.63100e+03	8.38850e-01	3.20000e+02
7662	3.23322e+02	7.66200e+03	8.35596e-01	3.20000e+02
7693	3.23302e+02	7.69300e+03	8.32366e-01	3.20000e+02
7724	3.23316e+02	7.72400e+03	8.29153e-01	3.20000e+02
7755	3.23302e+02	7.75500e+03	8.25903e-01	3.20000e+02
7786	3.23314e+02	7.78600e+03	8.22636e-01	3.20000e+02
7817	3.23308e+02	7.81700e+03	8.19619e-01	3.20000e+02
7848	3.23323e+02	7.84800e+03	8.16574e-01	3.20000e+02
7879	3.23324e+02	7.87900e+03	8.13283e-01	3.20000e+02
7910	3.23319e+02	7.91000e+03	8.10181e-01	3.20000e+02
7941	3.23310e+02	7.94100e+03	8.07094e-01	3.20000e+02
7972	3.23319e+02	7.97200e+03	8.03994e-01	3.20000e+02
8003	3.23326e+02	8.00300e+03	8.01118e-01	3.20000e+02
8034	3.23322e+02	8.03400e+03	7.98153e-01	3.20000e+02
8065	3.23318e+02	8.06500e+03	7.95102e-01	3.20000e+02
8096	3.23317e+02	8.09600e+03	7.92052e-01	3.20000e+02
8127	3.23299e+02	8.12700e+03	7.89113e-01	3.20000e+02
8158	3.23306e+02	8.15800e+03	7.86296e-01	3.20000e+02
8189	3.23311e+02	8.18900e+03	7.83302e-01	3.20000e+02
8220	3.23316e+02	8.22000e+03	7.80445e-01	3.20000e+02
8251	3.23312e+02	8.25100e+03	7.77474e-01	3.20000e+02
8282	3.23320e+02	8.28200e+03	7.74767e-01	3.20000e+02
8313	3.23303e+02	8.31300e+03	7.71945e-01	3.20000e+02
8344	3.23307e+02	8.34400e+03	7.68944e-01	3.20000e+02
8375	3.23319e+02	8.37500e+03	7.66254e-01	3.20000e+02
8406	3.23319e+02	8.40600e+03	7.63364e-01	3.20000e+02
8437	3.23318e+02	8.43700e+03	7.60558e-01	3.20000e+02
8468	3.23310e+02	8.46800e+03	7.57813e-01	3.20000e+02
8499	3.23321e+02	8.49900e+03	7.55170e-01	3.20000e+02
8530	3.23301e+02	8.53000e+03	7.52358e-01	3.20000e+02
8561	3.23309e+02	8.56100e+03	7.49850e-01	3.20000e+02
8592	3.23331e+02	8.59200e+03	7.47017e-01	3.20000e+02
8623	3.23316e+02	8.62300e+03	7.44311e-01	3.20000e+02
8654	3.23316e+02	8.65400e+03	7.41700e-01	3.20000e+02
8685	3.23306e+02	8.68500e+03	7.38993e-01	3.20000e+02
8716	3.23316e+02	8.71600e+03	7.36410e-01	3.20000e+02
8747	3.23311e+02	8.74700e+03	7.33831e-01	3.20000e+02
8778	3.23312e+02	8.77800e+03	7.31333e-01	3.20000e+02
8809	3.23322e+02	8.80900e+03	7.28621e-01	3.20000e+02
8840	3.23315e+02	8.84000e+03	7.26059e-01	3.20000e+02
8871	3.23312e+02	8.87100e+03	7.23634e-01	3.20000e+02
8902	3.23313e+02	8.90200e+03	7.21211e-01	3.20000e+02
8933	3.23311e+02	8.93300e+03	7.18605e-01	3.20000e+02
8964	3.23316e+02	8.96400e+03	7.16056e-01	3.20000e+02
8995	3.23305e+02	8.99500e+03	7.13729e-01	3.20000e+02
9026	3.23313e+02	9.02600e+03	7.11111e-01	3.20000e+02
9057	3.23332e+02	9.05700e+03	7.08713e-01	3.20000e+02
9088	3.23318e+02	9.08800e+03	7.06359e-01	3.20000e+02
9119	3.23316e+02	9.11900e+03	7.03924e-01	3.20000e+02
9150	3.23325e+02	9.15000e+03	7.01353e-01	3.20000e+02
9181	3.23315e+02	9.18100e+03	6.98928e-01	3.20000e+02
9212	3.23319e+02	9.21200e+03	6.96833e-01	3.20000e+02
9243	3.23321e+02	9.24300e+03	6.94409e-01	3.20000e+02
9274	3.23304e+02	9.27400e+03	6.91998e-01	3.20000e+02
9305	3.23313e+02	9.30500e+03	6.89596e-01	3.20000e+02
9336	3.23309e+02	9.33600e+03	6.87410e-01	3.20000e+02
9367	3.23311e+02	9.36700e+03	6.85038e-01	3.20000e+02
9398	3.23310e+02	9.39800e+03	6.82718e-01	3.20000e+02
9429	3.23320e+02	9.42900e+03	6.80307e-01	3.20000e+02
9460	3.23314e+02	9.46000e+03	6.77903e-01	3.20000e+02
9491	3.23316e+02	9.49100e+03	6.75784e-01	3.20000e+02
9522	3.23310e+02	9.52200e+03	6.73542e-01	3.20000e+02
9553	3.23309e+02	9.55300e+03	6.71263e-01	3.20000e+02
9584	3.23315e+02	9.58400e+03	6.68977e-01	3.20000e+02
9615	3.23325e+02	9.61500e+03	6.66780e-01	3.20000e+02
9646	3.23322e+02	9.64600e+03	6.64699e-01	3.20000e+02
9677	3.23322e+02	9.67700e+03	6.62490e-01	3.20000e+02
9708	3.23308e+02	9.70800e+03	6.60285e-01	3.20000e+02
9739	3.23319e+02	9.73900e+03	6.57877e-01	3.20000e+02
9770	3.23314e+02	9.77000e+03	6.55650e-01	3.20000e+02
9801	3.23316e+02	9.80100e+03	6.53654e-01	3.20000e+02
9832	3.23312e+02	9.83200e+03	6.51483e-01	3.20000e+02
9863	3.23320e+02	9.86300e+03	6.49293e-01	3.20000e+02
9894	3.23318e+02	9.89400e+03	6.47123e-01	3.20000e+02
9925	3.23312e+02	9.92500e+03	6.45015e-01	3.20000e+02
9956	3.23310e+02	9.95600e+03	6.43069e-01	3.20000e+02
9987	3.23318e+02	9.98700e+03	6.41082e-01	3.20000e+02
10018	3.23327e+02	1.00180e+04	6.38884e-01	3.20000e+02
10049	3.23319e+02	1.00490e+04	6.36936e-01	3.20000e+02
10080	3.23318e+02	1.00800e+04	6.34886e-01	3.20000e+02
10111	3.23324e+02	1.01110e+04	6.32755e-01	3.20000e+02
10142	3.23321e+02	1.01420e+04	6.30684e-01	3.20000e+02
10173	3.23321e+02	1.01730e+04	6.28682e-01	3.20000e+02
10204	3.23316e+02	1.02040e+04	6.26643e-01	3.20000e+02
10235	3.23318e+02	1.02350e+04	6.24534e-01	3.20000e+02
10266	3.23320e+02	1.02660e+04	6.22638e-01	3.20000e+02
10297	3.23313e+02	1.02970e+04	6.20382e-01	3.20000e+02
10328	3.23319e+02	1.03280e+04	6.18594e-01	3.20000e+02
10359	3.23321e+02	1.03590e+04	6.16605e-01	3.20000e+02
10390	3.23317e+02	1.03900e+04	6.14681e-01	3.20000e+02
10421	3.23309e+02	1.04210e+04	6.12758e-01	3.20000e+02
10452	3.23308e+02	1.04520e+04	6.10849e-01	3.20000e+02
10483	3.23310e+02	1.04830e+04	6.08963e-01	3.20000e+02
10514	3.23319e+02	1.05140e+04	6.07094e-01	3.20000e+02
10545	3.23312e+02	1.05450e+04	6.05275e-01	3.20000e+02
10576	3.23306e+02	1.05760e+04	6.03488e-01	3.20000e+02
10607	3.23308e+02	1.06070e+04	6.01473e-01	3.20000e+02
10638	3.23309e+02	1.06380e+04	5.99710e-01	3.20000e+02
10669	3.23312e+02	1.06690e+04	5.97911e-01	3.20000e+02
10700	3.23310e+02	1.07000e+04	5.96034e-01	3.20000e+02
10731	3.23313e+02	1.07310e+04	5.94156e-01	3.20000e+02
10762	3.23306e+02	1.07620e+04	5.92313e-01	3.20000e+02
10793	3.23321e+02	1.07930e+04	5.90649e-01	3.20000e+02
10824	3.23307e+02	1.08240e+04	5.88796e-01	3.20000e+02
10855	3.23314e+02	1.08550e+04	5.87162e-01	3.20000e+02
10886	3.23308e+02	1.08860e+04	5.85239e-01	3.20000e+02
10917	3.23307e+02	1.09170e+04	5.83472e-01	3.20000e+02
10948	3.23307e+02	1.09480e+04	5.81957e-01	3.20000e+02
10979	3.23306e+02	1.09790e+04	5.80268e-01	3.20000e+02
11010	3.23311e+02	1.10100e+04	5.78367e-01	3.20000e+02
11041	3.23315e+02	1.10410e+04	5.76693e-01	3.20000e+02
11072	3.23300e+02	1.10720e+04	5.74968e-01	3.20000e+02
11103	3.23295e+02	1.11030e+04	5.73365e-01	3.20000e+02
11134	3.23294e+02	1.11340e+04	5.71508e-01	3.20000e+02
11165	3.23304e+02	1.11650e+04	5.69865e-01	3.20000e+02
11196	3.23297e+02	1.11960e+04	5.68255e-01	3.20000e+02
11227	3.23300e+02	1.12270e+04	5.66472e-01	3.20000e+02
11258	3.23302e+02	1.12580e+04	5.64740e-01	3.20000e+02
11289	3.23296e+02	1.12890e+04	5.63086e-01	3.20000e+02
11320	3.23296e+02	1.13200e+04	5.61437e-01	3.20000e+02
11351	3.23299e+02	1.13510e+04	5.59948e-01	3.20000e+02
11382	3.23307e+02	1.13820e+04	5.58343e-01	3.20000e+02
11413	3.23308e+02	1.14130e+04	5.56477e-01	3.20000e+02
11444	3.23295e+02	1.14440e+04	5.54939e-01	3.20000e+02
11475	3.23297e+02	1.14750e+04	5.53382e-01	3.20000e+02
11506	3.23313e+02	1.15060e+04	5.51772e-01	3.20000e+02
11537	3.23305e+02	1.15370e+04	5.50205e-01	3.20000e+02
11568	3.23312e+02	1.15680e+04	5.48550e-01	3.20000e+02
11599	3.23310e+02	1.15990e+04	5.47036e-01	3.20000e+02
11630	3.23308e+02	1.16300e+04	5.45459e-01	3.20000e+02
11661	3.23307e+02	1.16610e+04	5.43861e-01	3.20000e+02
11692	3.23316e+02	1.16920e+04	5.42222e-01	3.20000e+02
11723	3.23317e+02	1.17230e+04	5.40817e-01	3.20000e+02
11754	3.23317e+02	1.17540e+04	5.39227e-01	3.20000e+02
11785	3.23320e+02	1.17850e+04	5.37546e-01	3.20000e+02
11816	3.23305e+02	1.18160e+04	5.35963e-01	3.20000e+02
11847	3.23314e+02	1.18470e+04	5.34446e-01	3.20000e+02
11878	3.23308e+02	1.18780e+04	5.32976e-01	3.20000e+02
11909	3.23317e+02	1.19090e+04	5.31442e-01	3.20000e+02
11940	3.23322e+02	1.19400e+04	5.29959e-01	3.20000e+02
11971	3.23313e+02	1.19710e+04	5.28376e-01	3.20000e+02
12002	3.23313e+02	1.20020e+04	5.26897e-01	3.20000e+02
12033	3.23316e+02	1.20330e+04	5.25365e-01	3.20000e+02
12064	3.23312e+02	1.20640e+04	5.23877e-01	3.20000e+02
12095	3.23302e+02	1.20950e+04	5.22596e-01	3.20000e+02
12126	3.23307e+02	1.21260e+04	5.21032e-01	3.20000e+02
12157	3.23304e+02	1.21570e+04	5.19617e-01	3.20000e+02
12188	3.23316e+02	1.21880e+04	5.18091e-01	3.20000e+02
12219	3.23312e+02	1.22190e+04	5.16756e-01	3.20000e+02
12250	3.23310e+02	1.22500e+04	5.15205e-01	3.20000e+02
12281	3.23313e+02	1.22810e+04	5.13685e-01	3.20000e+02
12312	3.23317e+02	1.23120e+04	5.12494e-01	3.20000e+02
12343	3.23319e+02	1.23430e+04	5.11098e-01	3.20000e+02
12374	3.23325e+02	1.23740e+04	5.09580e-01	3.20000e+02
12405	3.23316e+02	1.24050e+04	5.08233e-01	3.20000e+02
12436	3.23320e+02	1.24360e+04	5.06799e-01	3.20000e+02
12467	3.23308e+02	1.24670e+04	5.05346e-01	3.20000e+02
12498	3.23320e+02	1.24980e+04	5.04051e-01	3.20000e+02
12529	3.23330e+02	1.25290e+04	5.02724e-01	3.20000e+02
12560	3.23323e+02	1.25600e+04	5.01284e-01	3.20000e+02
12591	3.23322e+02	1.25910e+04	5.00031e-01	3.20000e+02
12622	3.23325e+02	1.26220e+04	4.98618e-01	3.20000e+02
12653	3.23328e+02	1.26530e+04	4.97202e-01	3.20000e+02
12684	3.23308e+02	1.26840e+04	4.95865e-01	3.20000e+02
12715	3.23315e+02	1.27150e+04	4.94626e-01	3.20000e+02
12746	3.23324e+02	1.27460e+04	4.93228e-01	3.20000e+02
12777	3.23324e+02	1.27770e+04	4.91993e-01	3.20000e+02
12808	3.23306e+02	1.28080e+04	4.90676e-01	3.20000e+02
12839	3.23313e+02	1.28390e+04	4.89263e-01	3.20000e+02
12870	3.23314e+02	1.28700e+04	4.88033e-01	3.20000e+02
12901	3.23297e+02	1.29010e+04	4.86849e-01	3.20000e+02
12932	3.23316e+02	1.29320e+04	4.85336e-01	3.20000e+02
12963	3.23312e+02	1.29630e+04	4.84043e-01	3.20000e+02
12994	3.23307e+02	1.29940e+04	4.82855e-01	3.20000e+02
13025	3.23313e+02	1.30250e+04	4.81665e-01	3.20000e+02
13056	3.23319e+02	1.30560e+04	4.80592e-01	3.20000e+02
13087	3.23314e+02	1.30870e+04	4.79337e-01	3.20000e+02
13118	3.23317e+02	1.31180e+04	4.78014e-01	3.20000e+02
13149	3.23328e+02	1.31490e+04	4.76663e-01	3.20000e+02
13180	3.23316e+02	1.31800e+04	4.75527e-01	3.20000e+02
13211	3.23316e+02	1.32110e+04	4.74272e-01	3.20000e+02
13242	3.23324e+02	1.32420e+04	4.72907e-01	3.20000e+02
13273	3.23320e+02	1.32730e+04	4.71529e-01	3.20000e+02
13304	3.23313e+02	1.33040e+04	4.70365e-01	3.20000e+02
13335	3.23328e+02	1.33350e+04	4.69167e-01	3.20000e+02
13366	3.23330e+02	1.33660e+04	4.67746e-01	3.20000e+02
13397	3.23314e+02	1.33970e+04	4.66694e-01	3.20000e+02
13428	3.23318e+02	1.34280e+04	4.65541e-01	3.20000e+02
13459	3.23331e+02	1.34590e+04	4.64271e-01	3.20000e+02
13490	3.23310e+02	1.34900e+04	4.63209e-01	3.20000e+02
13521	3.23301e+02	1.35210e+04	4.61819e-01	3.20000e+02
13552	3.23313e+02	1.35520e+04	4.60689e-01	3.20000e+02
13583	3.23316e+02	1.35830e+04	4.59681e-01	3.20000e+02
13614	3.23323e+02	1.36140e+04	4.58273e-01	3.20000e+02
13645	3.23319e+02	1.36450e+04	4.57112e-01	3.20000e+02
13676	3.23319e+02	1.36760e+04	4.55892e-01	3.20000e+02
13707	3.23310e+02	1.37070e+04	4.54827e-01	3.20000e+02
13738	3.23326e+02	1.37380e+04	4.53672e-01	3.20000e+02
13769	3.23314e+02	1.37690e+04	4.52570e-01	3.20000e+02
13800	3.23310e+02	1.38000e+04	4.51344e-01	3.20000e+02
13831	3.23316e+02	1.38310e+04	4.50177e-01	3.20000e+02
13862	3.23311e+02	1.38620e+04	4.48876e-01	3.20000e+02
13893	3.23306e+02	1.38930e+04	4.47816e-01	3.20000e+02
13924	3.23318e+02	1.39240e+04	4.46729e-01	3.20000e+02
13955	3.23317e+02	1.39550e+04	4.45580e-01	3.20000e+02
13986	3.23319e+02	1.39860e+04	4.44461e-01	3.20000e+02
14017	3.23315e+02	1.40170e+04	4.43291e-01	3.20000e+02
14048	3.23316e+02	1.40480e+04	4.42280e-01	3.20000e+02
14079	3.23319e+02	1.40790e+04	4.41250e-01	3.20000e+02
14110	3.23316e+02	1.41100e+04	4.40074e-01	3.20000e+02
14141	3.23309e+02	1.41410e+04	4.39010e-01	3.20000e+02
14172	3.23312e+02	1.41720e+04	4.37810e-01	3.20000e+02
14203	3.23307e+02	1.42030e+04	4.36668e-01	3.20000e+02
14234	3.23301e+02	1.42340e+04	4.35762e-01	3.20000e+02
14265	3.23308e+02	1.42650e+04	4.34615e-01	3.20000e+02
14296	3.23305e+02	1.42960e+04	4.33442e-01	3.20000e+02
14327	3.23308e+02	1.43270e+04	4.32497e-01	3.20000e+02
14358	3.23310e+02	1.43580e+04	4.31507e-01	3.20000e+02
14389	3.23309e+02	1.43890e+04	4.30482e-01	3.20000e+02
14420	3.23301e+02	1.44200e+04	4.29387e-01	3.20000e+02
14451	3.23306e+02	1.44510e+04	4.28219e-01	3.20000e+02
14482	3.23306e+02	1.44820e+04	4.27122e-01	3.20000e+02
14513	3.23299e+02	1.45130e+04	4.26272e-01	3.20000e+02
14544	3.23307e+02	1.45440e+04	4.25233e-01	3.20000e+02
14575	3.23299e+02	1.45750e+04	4.23904e-01	3.20000e+02
14606	3.23308e+02	1.46060e+04	4.23214e-01	3.20000e+02
14637	3.23294e+02	1.46370e+04	4.22084e-01	3.20000e+02
14668	3.23291e+02	1.46680e+04	4.20897e-01	3.20000e+02
14699	3.23294e+02	1.46990e+04	4.19881e-01	3.20000e+02
14730	3.23289e+02	1.47300e+04	4.19012e-01	3.20000e+02
14761	3.23292e+02	1.47610e+04	4.17933e-01	3.20000e+02
14792	3.23289e+02	1.47920e+04	4.16872e-01	3.20000e+02
14823	3.23281e+02	1.48230e+04	4.15930e-01	3.20000e+02
14854	3.23293e+02	1.48540e+04	4.14967e-01	3.20000e+02
14885	3.23285e+02	1.48850e+04	4.13893e-01	3.20000e+02
14916	3.23277e+02	1.49160e+04	4.12853e-01	3.20000e+02
14947	3.23277e+02	1.49470e+04	4.11956e-01	3.20000e+02
14978	3.23284e+02	1.49780e+04	4.10973e-01	3.20000e+02
15009	3.23282e+02	1.50090e+04	4.10178e-01	3.20000e+02
15040	3.23284e+02	1.50400e+04	4.09072e-01	3.20000e+02
15071	3.23280e+02	1.50710e+04	4.08146e-01	3.20000e+02
15102	3.23293e+02	1.51020e+04	4.07167e-01	3.20000e+02
15133	3.23277e+02	1.51330e+04	4.06176e-01	3.20000e+02
15164	3.23266e+02	1.51640e+04	4.05183e-01	3.20000e+02
15195	3.23280e+02	1.51950e+04	4.04219e-01	3.20000e+02
15226	3.23277e+02	1.52260e+04	4.03263e-01	3.20000e+02
15257	3.23270e+02	1.52570e+04	4.02318e-01	3.20000e+02
15288	3.23274e+02	1.52880e+04	4.01274e-01	3.20000e+02
15319	3.23269e+02	1.53190e+04	4.00421e-01	3.20000e+02
15350	3.23266e+02	1.53500e+04	3.99439e-01	3.20000e+02
15381	3.23264e+02	1.53810e+04	3.98426e-01	3.20000e+02
15412	3.23265e+02	1.54120e+04	3.97568e-01	3.20000e+02
15443	3.23264e+02	1.54430e+04	3.96492e-01	3.20000e+02
15474	3.23264e+02	1.54740e+04	3.95688e-01	3.20000e+02
15505	3.23267e+02	1.55050e+04	3.94798e-01	3.20000e+02
15536	3.23270e+02	1.55360e+04	3.93890e-01	3.20000e+02
15567	3.23267e+02	1.55670e+04	3.92857e-01	3.20000e+02
15598	3.23264e+02	1.55980e+04	3.92000e-01	3.20000e+02
15629	3.23267e+02	1.56290e+04	3.91243e-01	3.20000e+02
15660	3.23268e+02	1.56600e+04	3.90167e-01	3.20000e+02
15691	3.23273e+02	1.56910e+04	3.89255e-01	3.20000e+02
15722	3.23260e+02	1.57220e+04	3.88348e-01	3.20000e+02
15753	3.23268e+02	1.57530e+04	3.87495e-01	3.20000e+02
15784	3.23273e+02	1.57840e+04	3.86588e-01	3.20000e+02
15815	3.23264e+02	1.58150e+04	3.85796e-01	3.20000e+02
15846	3.23261e+02	1.58460e+04	3.84890e-01	3.20000e+02
15877	3.23264e+02	1.58770e+04	3.84077e-01	3.20000e+02
15908	3.23254e+02	1.59080e+04	3.83223e-01	3.20000e+02
15939	3.23265e+02	1.59390e+04	3.82341e-01	3.20000e+02
15970	3.23268e+02	1.59700e+04	3.81259e-01	3.20000e+02
16001	3.23264e+02	1.60010e+04	3.80526e-01	3.20000e+02
16032	3.23281e+02	1.60320e+04	3.79637e-01	3.20000e+02
16063	3.23257e+02	1.60630e+04	3.78619e-01	3.20000e+02
16094	3.23258e+02	1.60940e+04	3.77847e-01	3.20000e+02
16125	3.23260e+02	1.61250e+04	3.76984e-01	3.20000e+02
16156	3.23260e+02	1.61560e+04	3.76117e-01	3.20000e+02
16187	3.23268e+02	1.61870e+04	3.75266e-01	3.20000e+02
16218	3.23270e+02	1.62180e+04	3.74377e-01	3.20000e+02
16249	3.23260e+02	1.62490e+04	3.73537e-01	3.20000e+02
16280	3.23253e+02	1.62800e+04	3.72730e-01	3.20000e+02
16311	3.23264e+02	1.63110e+04	3.71856e-01	3.20000e+02
16342	3.23257e+02	1.63420e+04	3.70999e-01	3.20000e+02
16373	3.23257e+02	1.63730e+04	3.70119e-01	3.20000e+02
16404	3.23255e+02	1.64040e+04	3.69401e-01	3.20000e+02
16435	3.23265e+02	1.64350e+04	3.68563e-01	3.20000e+02
16466	3.23246e+02	1.64660e+04	3.67764e-01	3.20000e+02
16497	3.23262e+02	1.64970e+04	3.67027e-01	3.20000e+02
16528	3.23255e+02	1.65280e+04	3.66234e-01	3.20000e+02
16559	3.23263e+02	1.65590e+04	3.65325e-01	3.20000e+02
16590	3.23249e+02	1.65900e+04	3.64544e-01	3.20000e+02
16621	3.23247e+02	1.66210e+04	3.63851e-01	3.20000e+02
16652	3.23261e+02	1.66520e+04	3.63002e-01	3.20000e+02
16683	3.23259e+02	1.66830e+04	3.62028e-01	3.20000e+02
16714	3.23252e+02	1.67140e+04	3.61576e-01	3.20000e+02
16745	3.23260e+02	1.67450e+04	3.60669e-01	3.20000e+02
16776	3.23242e+02	1.67760e+04	3.59809e-01	3.20000e+02
16807	3.23256e+02	1.68070e+04	3.59134e-01	3.20000e+02
16838	3.23255e+02	1.68380e+04	3.58408e-01	3.20000e+02
16869	3.23253e+02	1.68690e+04	3.57577e-01	3.20000e+02
16900	3.23248e+02	1.69000e+04	3.56824e-01	3.20000e+02
16931	3.23249e+02	1.69310e+04	3.55930e-01	3.20000e+02
16962	3.23244e+02	1.69620e+04	3.55310e-01	3.20000e+02
16993	3.23251e+02	1.69930e+04	3.54554e-01	3.20000e+02
17024	3.23250e+02	1.70240e+04	3.53676e-01	3.20000e+02
17055	3.23254e+02	1.70550e+04	3.52954e-01	3.20000e+02
17086	3.23235e+02	1.70860e+04	3.52158e-01	3.20000e+02
17117	3.23251e+02	1.71170e+04	3.51431e-01	3.20000e+02
17148	3.23243e+02	1.71480e+04	3.50789e-01	3.20000e+02
17179	3.23233e+02	1.71790e+04	3.50189e-01	3.20000e+02
17210	3.23251e+02	1.72100e+04	3.49511e-01	3.20000e+02
17241	3.23252e+02	1.72410e+04	3.48532e-01	3.20000e+02
17272	3.23257e+02	1.72720e+04	3.47666e-01	3.20000e+02
17303	3.23258e+02	1.73030e+04	3.47068e-01	3.20000e+02
17334	3.23254e+02	1.73340e+04	3.46347e-01	3.20000e+02
17365	3.23243e+02	1.73650e+04	3.45571e-01	3.20000e+02
17396	3.23235e+02	1.73960e+04	3.44849e-01	3.20000e+02
17427	3.23249e+02	1.74270e+04	3.44078e-01	3.20000e+02
17458	3.23255e+02	1.74580e+04	3.43165e-01	3.20000e+02
17489	3.23241e+02	1.74890e+04	3.42575e-01	3.20000e+02
17520	3.23237e+02	1.75200e+04	3.41913e-01	3.20000e+02
17551	3.23235e+02	1.75510e+04	3.41057e-01	3.20000e+02
17582	3.23235e+02	1.75820e+04	3.40497e-01	3.20000e+02
17613	3.23237e+02	1.76130e+04	3.39625e-01	3.20000e+02
17644	3.23245e+02	1.76440e+04	3.38894e-01	3.20000e+02
17675	3.23237e+02	1.76750e+04	3.38274e-01	3.20000e+02
17706	3.23244e+02	1.77060e+04	3.37434e-01	3.20000e+02
17737	3.23248e+02	1.77370e+04	3.36714e-01	3.20000e+02
17768	3.23235e+02	1.77680e+04	3.36069e-01	3.20000e+02
17799	3.23240e+02	1.77990e+04	3.35438e-01	3.20000e+02
17830	3.23252e+02	1.78300e+04	3.34719e-01	3.20000e+02
17861	3.23243e+02	1.78610e+04	3.33989e-01	3.20000e+02
17892	3.23241e+02	1.78920e+04	3.33338e-01	3.20000e+02
17923	3.23259e+02	1.79230e+04	3.32532e-01	3.20000e+02
17954	3.23251e+02	1.79540e+04	3.31967e-01	3.20000e+02
17985	3.23257e+02	1.79850e+04	3.31257e-01	3.20000e+02
18016	3.23247e+02	1.80160e+04	3.30605e-01	3.20000e+02
18047	3.23254e+02	1.80470e+04	3.30088e-01	3.20000e+02
18078	3.23246e+02	1.80780e+04	3.29353e-01	3.20000e+02
18109	3.23245e+02	1.81090e+04	3.28681e-01	3.20000e+02
18140	3.23250e+02	1.81400e+04	3.28205e-01	3.20000e+02
18171	3.23237e+02	1.81710e+04	3.27326e-01	3.20000e+02
18202	3.23241e+02	1.82020e+04	3.26810e-01	3.20000e+02
18233	3.23248e+02	1.82330e+04	3.26075e-01	3.20000e+02
18264	3.23234e+02	1.82640e+04	3.25338e-01	3.20000e+02
18295	3.23249e+02	1.82950e+04	3.24601e-01	3.20000e+02
18326	3.23241e+02	1.83260e+04	3.23953e-01	3.20000e+02
18357	3.23236e+02	1.83570e+04	3.23246e-01	3.20000e+02
18388	3.23234e+02	1.83880e+04	3.22737e-01	3.20000e+02
18419	3.23242e+02	1.84190e+04	3.21824e-01	3.20000e+02
18450	3.23229e+02	1.84500e+04	3.21548e-01	3.20000e+02
18481	3.23232e+02	1.84810e+04	3.20767e-01	3.20000e+02
18512	3.23233e+02	1.85120e+04	3.20112e-01	3.20000e+02
18543	3.23231e+02	1.85430e+04	3.19476e-01	3.20000e+02
18574	3.23228e+02	1.85740e+04	3.18840e-01	3.20000e+02
18605	3.23223e+02	1.86050e+04	3.18235e-01	3.20000e+02
18636	3.23241e+02	1.86360e+04	3.17528e-01	3.20000e+02
18667	3.23236e+02	1.86670e+04	3.16974e-01	3.20000e+02
18698	3.23228e+02	1.86980e+04	3.16305e-01	3.20000e+02
18729	3.23233e+02	1.87290e+04	3.15827e-01	3.20000e+02
18760	3.23229e+02	1.87600e+04	3.15023e-01	3.20000e+02
18791	3.23238e+02	1.87910e+04	3.14659e-01	3.20000e+02
18822	3.23231e+02	1.88220e+04	3.13940e-01	3.20000e+02
18853	3.23240e+02	1.88530e+04	3.13170e-01	3.20000e+02
18884	3.23227e+02	1.88840e+04	3.12441e-01	3.20000e+02
18915	3.23234e+02	1.89150e+04	3.12044e-01	3.20000e+02
18946	3.23239e+02	1.89460e+04	3.11445e-01	3.20000e+02
18977	3.23236e+02	1.89770e+04	3.10885e-01	3.20000e+02
19008	3.23237e+02	1.90080e+04	3.10350e-01	3.20000e+02
19039	3.23243e+02	1.90390e+04	3.09608e-01	3.20000e+02
19070	3.23242e+02	1.90700e+04	3.09297e-01	3.20000e+02
19101	3.23244e+02	1.91010e+04	3.08492e-01	3.20000e+02
19132	3.23245e+02	1.91320e+04	3.07821e-01	3.20000e+02
19163	3.23240e+02	1.91630e+04	3.07173e-01	3.20000e+02
19194	3.23234e+02	1.91940e+04	3.06549e-01	3.20000e+02
19225	3.23236e+02	1.92250e+04	3.05965e-01	3.20000e+02
19256	3.23244e+02	1.92560e+04	3.05471e-01	3.20000e+02
19287	3.23239e+02	1.92870e+04	3.04872e-01	3.20000e+02
19318	3.23237e+02	1.93180e+04	3.04174e-01	3.20000e+02
19349	3.23242e+02	1.93490e+04	3.03554e-01	3.20000e+02
19380	3.23235e+02	1.93800e+04	3.03014e-01	3.20000e+02
19411	3.23241e+02	1.94110e+04	3.02454e-01	3.20000e+02
19442	3.23240e+02	1.94420e+04	3.01908e-01	3.20000e+02
19473	3.23229e+02	1.94730e+04	3.01131e-01	3.20000e+02
19504	3.23246e+02	1.95040e+04	3.00807e-01	3.20000e+02
19535	3.23247e+02	1.95350e+04	3.00204e-01	3.20000e+02
19566	3.23252e+02	1.95660e+04	2.99447e-01	3.20000e+02
19597	3.23244e+02	1.95970e+04	2.98993e-01	3.20000e+02
19628	3.23246e+02	1.96280e+04	2.98430e-01	3.20000e+02
19659	3.23240e+02	1.96590e+04	2.97909e-01	3.20000e+02
19690	3.23249e+02	1.96900e+04	2.97154e-01	3.20000e+02
19721	3.23245e+02	1.97210e+04	2.96693e-01	3.20000e+02
19752	3.23248e+02	1.97520e+04	2.96099e-01	3.20000e+02
19783	3.23245e+02	1.97830e+04	2.95552e-01	3.20000e+02
19814	3.23233e+02	1.98140e+04	2.94996e-01	3.20000e+02
19845	3.23236e+02	1.98450e+04	2.94448e-01	3.20000e+02
19876	3.23238e+02	1.98760e+04	2.94022e-01	3.20000e+02
19907	3.23227e+02	1.99070e+04	2.93450e-01	3.20000e+02
19938	3.23234e+02	1.99380e+04	2.92917e-01	3.20000e+02
19969	3.23230e+02	1.99690e+04	2.92190e-01	3.20000e+02
20000	3.23240e+02	2.00000e+04	2.91583e-01	3.20000e+02
20031	3.23252e+02	2.00310e+04	2.91098e-01	3.20000e+02
20062	3.23232e+02	2.00620e+04	2.90641e-01	3.20000e+02
20093	3.23250e+02	2.00930e+04	2.90077e-01	3.20000e+02
20124	3.23229e+02	2.01240e+04	2.89647e-01	3.20000e+02
20155	3.23245e+02	2.01550e+04	2.88905e-01	3.20000e+02
20186	3.23240e+02	2.01860e+04	2.88500e-01	3.20000e+02
20217	3.23240e+02	2.02170e+04	2.88080e-01	3.20000e+02
20248	3.23243e+02	2.02480e+04	2.87719e-01	3.20000e+02
20279	3.23236e+02	2.02790e+04	2.86944e-01	3.20000e+02
20310	3.23233e+02	2.03100e+04	2.86417e-01	3.20000e+02
20341	3.23230e+02	2.03410e+04	2.85936e-01	3.20000e+02
20372	3.23230e+02	2.03720e+04	2.85369e-01	3.20000e+02
20403	3.23238e+02	2.04030e+04	2.84747e-01	3.20000e+02
20434	3.23230e+02	2.04340e+04	2.84349e-01	3.20000e+02
20465	3.23238e+02	2.04650e+04	2.83763e-01	3.20000e+02
20496	3.23235e+02	2.04960e+04	2.83163e-01	3.20000e+02
20527	3.23231e+02	2.05270e+04	2.82668e-01	3.20000e+02
20558	3.23228e+02	2.05580e+04	2.82138e-01	3.20000e+02
20589	3.23224e+02	2.05890e+04	2.81686e-01	3.20000e+02
20620	3.23241e+02	2.06200e+04	2.81188e-01	3.20000e+02
20651	3.23240e+02	2.06510e+04	2.80734e-01	3.20000e+02
20682	3.23228e+02	2.06820e+04	2.80089e-01	3.20000e+02
20713	3.23236e+02	2.07130e+04	2.79680e-01	3.20000e+02
20744	3.23227e+02	2.07440e+04	2.79299e-01	3.20000e+02
20775	3.23229e+02	2.07750e+04	2.78700e-01	3.20000e+02
20806	3.23234e+02	2.08060e+04	2.78202e-01	3.20000e+02
20837	3.23235e+02	2.08370e+04	2.77692e-01	3.20000e+02
20868	3.23228e+02	2.08680e+04	2.77091e-01	3.20000e+02
20899	3.23218e+02	2.08990e+04	2.76639e-01	3.20000e+02
20930	3.23225e+02	2.09300e+04	2.76016e-01	3.20000e+02
20961	3.23223e+02	2.09610e+04	2.75528e-01	3.20000e+02
20992	3.23224e+02	2.09920e+04	2.75084e-01	3.20000e+02
21023	3.23228e+02	2.10230e+04	2.74657e-01	3.20000e+02
21054	3.23234e+02	2.10540e+04	2.74087e-01	3.20000e+02
21085	3.23232e+02	2.10850e+04	2.73478e-01	3.20000e+02
21116	3.23226e+02	2.11160e+04	2.73041e-01	3.20000e+02
21147	3.23221e+02	2.11470e+04	2.72427e-01	3.20000e+02
21178	3.23213e+02	2.11780e+04	2.71828e-01	3.20000e+02
21209	3.23226e+02	2.12090e+04	2.71445e-01	3.20000e+02
21240	3.23220e+02	2.12400e+04	2.71051e-01	3.20000e+02
21271	3.23225e+02	2.12710e+04	2.70418e-01	3.20000e+02
21302	3.23230e+02	2.13020e+04	2.69834e-01	3.20000e+02
21333	3.23218e+02	2.13330e+04	2.69385e-01	3.20000e+02
21364	3.23215e+02	2.13640e+04	2.68912e-01	3.20000e+02
21395	3.23222e+02	2.13950e+04	2.68420e-01	3.20000e+02
21426	3.23222e+02	2.14260e+04	2.67948e-01	3.20000e+02
21457	3.23214e+02	2.14570e+04	2.67418e-01	3.20000e+02
21488	3.23214e+02	2.14880e+04	2.66955e-01	3.20000e+02
21519	3.23211e+02	2.15190e+04	2.66407e-01	3.20000e+02
21550	3.23206e+02	2.15500e+04	2.66046e-01	3.20000e+02
21581	3.23217e+02	2.15810e+04	2.65555e-01	3.20000e+02
21612	3.23205e+02	2.16120e+04	2.65138e-01	3.20000e+02
21643	3.23219e+02	2.16430e+04	2.64629e-01	3.20000e+02
21674	3.23208e+02	2.16740e+04	2.64104e-01	3.20000e+02
21705	3.23210e+02	2.17050e+04	2.63807e-01	3.20000e+02
21736	3.23212e+02	2.17360e+04	2.63202e-01	3.20000e+02
21767	3.23228e+02	2.17670e+04	2.62637e-01	3.20000e+02
21798	3.23229e+02	2.17980e+04	2.62202e-01	3.20000e+02
21829	3.23225e+02	2.18290e+04	2.61794e-01	3.20000e+02
21860	3.23211e+02	2.18600e+04	2.61546e-01	3.20000e+02
21891	3.23223e+02	2.18910e+04	2.60902e-01	3.20000e+02
21922	3.23228e+02	2.19220e+04	2.60466e-01	3.20000e+02
21953	3.23217e+02	2.19530e+04	2.60148e-01	3.20000e+02
21984	3.23226e+02	2.19840e+04	2.59882e-01	3.20000e+02
22015	3.23215e+02	2.20150e+04	2.59361e-01	3.20000e+02
22046	3.23220e+02	2.20460e+04	2.58840e-01	3.20000e+02
22077	3.23217e+02	2.20770e+04	2.58438e-01	3.20000e+02
22108	3.23218e+02	2.21080e+04	2.57989e-01	3.20000e+02
22139	3.23220e+02	2.21390e+04	2.57364e-01	3.20000e+02
22170	3.23219e+02	2.21700e+04	2.56919e-01	3.20000e+02
22201	3.23218e+02	2.22010e+04	2.56573e-01	3.20000e+02
22232	3.23236e+02	2.22320e+04	2.56203e-01	3.20000e+02
22263	3.23221e+02	2.22630e+04	2.55743e-01	3.20000e+02
22294	3.23228e+02	2.22940e+04	2.55292e-01	3.20000e+02
22325	3.23220e+02	2.23250e+04	2.54872e-01	3.20000e+02
22356	3.23223e+02	2.23560e+04	2.54356e-01	3.20000e+02
22387	3.23222e+02	2.23870e+04	2.54094e-01	3.20000e+02
22418	3.23214e+02	2.24180e+04	2.53754e-01	3.20000e+02
22449	3.23216e+02	2.24490e+04	2.53226e-01	3.20000e+02
22480	3.23212e+02	2.24800e+04	2.52814e-01	3.20000e+02
22511	3.23211e+02	2.25110e+04	2.52406e-01	3.20000e+02
22542	3.23206e+02	2.25420e+04	2.51887e-01	3.20000e+02
22573	3.23221e+02	2.25730e+04	2.51573e-01	3.20000e+02
22604	3.23221e+02	2.26040e+04	2.51027e-01	3.20000e+02
22635	3.23222e+02	2.26350e+04	2.50688e-01	3.20000e+02
22666	3.23225e+02	2.26660e+04	2.50113e-01	3.20000e+02
22697	3.23210e+02	2.26970e+04	2.49730e-01	3.20000e+02
22728	3.23211e+02	2.27280e+04	2.49231e-01	3.20000e+02
22759	3.23205e+02	2.27590e+04	2.48889e-01	3.20000e+02
22790	3.23217e+02	2.27900e+04	2.48582e-01	3.20000e+02
22821	3.23212e+02	2.28210e+04	2.48170e-01	3.20000e+02
22852	3.23207e+02	2.28520e+04	2.47773e-01	3.20000e+02
22883	3.23210e+02	2.28830e+04	2.47226e-01	3.20000e+02
22914	3.23219e+02	2.29140e+04	2.46824e-01	3.20000e+02
22945	3.23219e+02	2.29450e+04	2.46452e-01	3.20000e+02
22976	3.23218e+02	2.29760e+04	2.46084e-01	3.20000e+02
23007	3.23207e+02	2.30070e+04	2.45532e-01	3.20000e+02
23038	3.23211e+02	2.30380e+04	2.45146e-01	3.20000e+02
23069	3.23219e+02	2.30690e+04	2.44779e-01	3.20000e+02
23100	3.23220e+02	2.31000e+04	2.44152e-01	3.20000e+02
23131	3.23225e+02	2.31310e+04	2.43882e-01	3.20000e+02
23162	3.23223e+02	2.31620e+04	2.43552e-01	3.20000e+02
23193	3.23224e+02	2.31930e+04	2.43277e-01	3.20000e+02
23224	3.23219e+02	2.32240e+04	2.42889e-01	3.20000e+02
23255	3.23227e+02	2.32550e+04	2.42458e-01	3.20000e+02
23286	3.23223e+02	2.32860e+04	2.41842e-01	3.20000e+02
23317	3.23226e+02	2.33170e+04	2.41515e-01	3.20000e+02
23348	3.23208e+02	2.33480e+04	2.41276e-01	3.20000e+02
23379	3.23220e+02	2.33790e+04	2.40895e-01	3.20000e+02
23410	3.23219e+02	2.34100e+04	2.40507e-01	3.20000e+02
23441	3.23217e+02	2.34410e+04	2.39971e-01	3.20000e+02
23472	3.23224e+02	2.34720e+04	2.39690e-01	3.20000e+02
23503	3.23218e+02	2.35030e+04	2.39193e-01	3.20000e+02
23534	3.23217e+02	2.35340e+04	2.38845e-01	3.20000e+02
23565	3.23220e+02	2.35650e+04	2.38427e-01	3.20000e+02
23596	3.23212e+02	2.35960e+04	2.38161e-01	3.20000e+02
23627	3.23226e+02	2.36270e+04	2.37790e-01	3.20000e+02
23658	3.23213e+02	2.36580e+04	2.37392e-01	3.20000e+02
23689	3.23221e+02	2.36890e+04	2.37070e-01	3.20000e+02
23720	3.23215e+02	2.37200e+04	2.36539e-01	3.20000e+02
23751	3.23212e+02	2.37510e+04	2.36251e-01	3.20000e+02
23782	3.23223e+02	2.37820e+04	2.35888e-01	3.20000e+02
23813	3.23219e+02	2.38130e+04	2.35549e-01	3.20000e+02
23844	3.23219e+02	2.38440e+04	2.35003e-01	3.20000e+02
23875	3.23222e+02	2.38750e+04	2.34671e-01	3.20000e+02
23906	3.23214e+02	2.39060e+04	2.34214e-01	3.20000e+02
23937	3.23230e+02	2.39370e+04	2.33921e-01	3.20000e+02
23968	3.23210e+02	2.39680e+04	2.33350e-01	3.20000e+02
23999	3.23220e+02	2.39990e+04	2.33094e-01	3.20000e+02
24030	3.23211e+02	2.40300e+04	2.32814e-01	3.20000e+02
24061	3.23216e+02	2.40610e+04	2.32400e-01	3.20000e+02
24092	3.23218e+02	2.40920e+04	2.32148e-01	3.20000e+02
24123	3.23221e+02	2.41230e+04	2.31598e-01	3.20000e+02
24154	3.23224e+02	2.41540e+04	2.31400e-01	3.20000e+02
24185	3.23225e+02	2.41850e+04	2.31099e-01	3.20000e+02
24216	3.23215e+02	2.42160e+04	2.30570e-01	3.20000e+02
24247	3.23224e+02	2.42470e+04	2.30234e-01	3.20000e+02
24278	3.23219e+02	2.42780e+04	2.30003e-01	3.20000e+02
24309	3.23220e+02	2.43090e+04	2.29620e-01	3.20000e+02
24340	3.23219e+02	2.43400e+04	2.29229e-01	3.20000e+02
24371	3.23216e+02	2.43710e+04	2.28983e-01	3.20000e+02
24402	3.23210e+02	2.44020e+04	2.28469e-01	3.20000e+02
24433	3.23211e+02	2.44330e+04	2.28121e-01	3.20000e+02
24464	3.23213e+02	2.44640e+04	2.27774e-01	3.20000e+02
24495	3.23216e+02	2.44950e+04	2.27440e-01	3.20000e+02
24526	3.23207e+02	2.45260e+04	2.27087e-01	3.20000e+02
24557	3.23215e+02	2.45570e+04	2.26711e-01	3.20000e+02
24588	3.23221e+02	2.45880e+04	2.26462e-01	3.20000e+02
24619	3.23211e+02	2.46190e+04	2.25996e-01	3.20000e+02
24650	3.23197e+02	2.46500e+04	2.25872e-01	3.20000e+02
24681	3.23202e+02	2.46810e+04	2.25473e-01	3.20000e+02
24712	3.23211e+02	2.47120e+04	2.25189e-01	3.20000e+02
24743	3.23225e+02	2.47430e+04	2.24862e-01	3.20000e+02
24774	3.23216e+02	2.47740e+04	2.24406e-01	3.20000e+02
24805	3.23214e+02	2.48050e+04	2.23981e-01	3.20000e+02
24836	3.23213e+02	2.48360e+04	2.23592e-01	3.20000e+02
24867	3.23224e+02	2.48670e+04	2.23243e-01	3.20000e+02
24898	3.23213e+02	2.48980e+04	2.22880e-01	3.20000e+02
24929	3.23223e+02	2.49290e+04	2.22604e-01	3.20000e+02
24960	3.23221e+02	2.49600e+04	2.22210e-01	3.20000e+02
24991	3.23211e+02	2.49910e+04	2.21805e-01	3.20000e+02
25022	3.23210e+02	2.50220e+04	2.21705e-01	3.20000e+02
25053	3.23217e+02	2.50530e+04	2.21190e-01	3.20000e+02
25084	3.23203e+02	2.50840e+04	2.20804e-01	3.20000e+02
25115	3.23212e+02	2.51150e+04	2.20436e-01	3.20000e+02
25146	3.23212e+02	2.51460e+04	2.20257e-01	3.20000e+02
25177	3.23210e+02	2.51770e+04	2.19985e-01	3.20000e+02
25208	3.23221e+02	2.52080e+04	2.19524e-01	3.20000e+02
25239	3.23213e+02	2.52390e+04	2.19300e-01	3.20000e+02
25270	3.23214e+02	2.52700e+04	2.19081e-01	3.20000e+02
25301	3.23217e+02	2.53010e+04	2.18567e-01	3.20000e+02
25332	3.23209e+02	2.53320e+04	2.18192e-01	3.20000e+02
25363	3.23215e+02	2.53630e+04	2.17933e-01	3.20000e+02
25394	3.23222e+02	2.53940e+04	2.17604e-01	3.20000e+02
25425	3.23214e+02	2.54250e+04	2.17367e-01	3.20000e+02
25456	3.23208e+02	2.54560e+04	2.17166e-01	3.20000e+02
25487	3.23218e+02	2.54870e+04	2.16713e-01	3.20000e+02
25518	3.23210e+02	2.55180e+04	2.16391e-01	3.20000e+02
25549	3.23218e+02	2.55490e+04	2.16168e-01	3.20000e+02
25580	3.23217e+02	2.55800e+04	2.15784e-01	3.20000e+02
25611	3.23222e+02	2.56110e+04	2.15618e-01	3.20000e+02
25642	3.23213e+02	2.56420e+04	2.15136e-01	3.20000e+02
25673	3.23208e+02	2.56730e+04	2.14915e-01	3.20000e+02
25704	3.23213e+02	2.57040e+04	2.14540e-01	3.20000e+02
25735	3.23220e+02	2.57350e+04	2.14391e-01	3.20000e+02
25766	3.23220e+02	2.57660e+04	2.13992e-01	3.20000e+02
25797	3.23211e+02	2.57970e+04	2.13588e-01	3.20000e+02
25828	3.23209e+02	2.58280e+04	2.13344e-01	3.20000e+02
25859	3.23215e+02	2.58590e+04	2.12906e-01	3.20000e+02
25890	3.23220e+02	2.58900e+04	2.12690e-01	3.20000e+02
25921	3.23226e+02	2.59210e+04	2.12231e-01	3.20000e+02
25952	3.23217e+02	2.59520e+04	2.11900e-01	3.20000e+02
25983	3.23231e+02	2.59830e+04	2.11689e-01	3.20000e+02
26014	3.23224e+02	2.60140e+04	2.11321e-01	3.20000e+02
26045	3.23215e+02	2.60450e+04	2.11174e-01	3.20000e+02
26076	3.23209e+02	2.60760e+04	2.10835e-01	3.20000e+02
26107	3.23213e+02	2.61070e+04	2.10546e-01	3.20000e+02
26138	3.23203e+02	2.61380e+04	2.10209e-01	3.20000e+02
26169	3.23213e+02	2.61690e+04	2.09836e-01	3.20000e+02
26200	3.23208e+02	2.62000e+04	2.09562e-01	3.20000e+02
26231	3.23211e+02	2.62310e+04	2.09129e-01	3.20000e+02
26262	3.23217e+02	2.62620e+04	2.08869e-01	3.20000e+02
26293	3.23212e+02	2.62930e+04	2.08463e-01	3.20000e+02
26324	3.23221e+02	2.63240e+04	2.08130e-01	3.20000e+02
26355	3.23214e+02	2.63550e+04	2.07992e-01	3.20000e+02
26386	3.23214e+02	2.63860e+04	2.07514e-01	3.20000e+02
26417	3.23216e+02	2.64170e+04	2.07314e-01	3.20000e+02
26448	3.23208e+02	2.64480e+04	2.07010e-01	3.20000e+02
26479	3.23214e+02	2.64790e+04	2.06627e-01	3.20000e+02
26510	3.23205e+02	2.65100e+04	2.06220e-01	3.20000e+02
26541	3.23210e+02	2.65410e+04	2.06143e-01	3.20000e+02
26572	3.23214e+02	2.65720e+04	2.05822e-01	3.20000e+02
26603	3.23225e+02	2.66030e+04	2.05569e-01	3.20000e+02
26634	3.23230e+02	2.66340e+04	2.05177e-01	3.20000e+02
26665	3.23223e+02	2.66650e+04	2.04968e-01	3.20000e+02
26696	3.23222e+02	2.66960e+04	2.04671e-01	3.20000e+02
26727	3.23213e+02	2.67270e+04	2.04290e-01	3.20000e+02
26758	3.23221e+02	2.67580e+04	2.04067e-01	3.20000e+02
26789	3.23208e+02	2.67890e+04	2.03757e-01	3.20000e+02
26820	3.23214e+02	2.68200e+04	2.03461e-01	3.20000e+02
26851	3.23209e+02	2.68510e+04	2.03254e-01	3.20000e+02
26882	3.23213e+02	2.68820e+04	2.02990e-01	3.20000e+02
26913	3.23211e+02	2.69130e+04	2.02695e-01	3.20000e+02
26944	3.23221e+02	2.69440e+04	2.02409e-01	3.20000e+02
26975	3.23206e+02	2.69750e+04	2.02154e-01	3.20000e+02
27006	3.23206e+02	2.70060e+04	2.01916e-01	3.20000e+02
27037	3.23222e+02	2.70370e+04	2.01534e-01	3.20000e+02
27068	3.23224e+02	2.70680e+04	2.01221e-01	3.20000e+02
27099	3.23210e+02	2.70990e+04	2.01146e-01	3.20000e+02
27130	3.23219e+02	2.71300e+04	2.00660e-01	3.20000e+02
27161	3.23228e+02	2.71610e+04	2.00378e-01	3.20000e+02
27192	3.23219e+02	2.71920e+04	2.00181e-01	3.20000e+02
27223	3.23209e+02	2.72230e+04	1.99815e-01	3.20000e+02
27254	3.23205e+02	2.72540e+04	1.99601e-01	3.20000e+02
27285	3.23212e+02	2.72850e+04	1.99388e-01	3.20000e+02
27316	3.23202e+02	2.73160e+04	1.98954e-01	3.20000e+02
27347	3.23213e+02	2.73470e+04	1.98745e-01	3.20000e+02
27378	3.23216e+02	2.73780e+04	1.98462e-01	3.20000e+02
27409	3.23200e+02	2.74090e+04	1.98242e-01	3.20000e+02
27440	3.23197e+02	2.74400e+04	1.98052e-01	3.20000e+02
27471	3.23204e+02	2.74710e+04	1.97657e-01	3.20000e+02
27502	3.23210e+02	2.75020e+04	1.97475e-01	3.20000e+02
27533	3.23197e+02	2.75330e+04	1.97208e-01	3.20000e+02
27564	3.23206e+02	2.75640e+04	1.96891e-01	3.20000e+02
27595	3.23210e+02	2.75950e+04	1.96684e-01	3.20000e+02
27626	3.23210e+02	2.76260e+04	1.96315e-01	3.20000e+02
27657	3.23213e+02	2.76570e+04	1.95993e-01	3.20000e+02
27688	3.23217e+02	2.76880e+04	1.95783e-01	3.20000e+02
27719	3.23215e+02	2.77190e+04	1.95452e-01	3.20000e+02
27750	3.23204e+02	2.77500e+04	1.95193e-01	3.20000e+02
27781	3.23211e+02	2.77810e+04	1.94900e-01	3.20000e+02
27812	3.23209e+02	2.78120e+04	1.94757e-01	3.20000e+02
27843	3.23219e+02	2.78430e+04	1.94323e-01	3.20000e+02
27874	3.23215e+02	2.78740e+04	1.94193e-01	3.20000e+02
27905	3.23211e+02	2.79050e+04	1.93909e-01	3.20000e+02
27936	3.23207e+02	2.79360e+04	1.93558e-01	3.20000e+02
27967	3.23208e+02	2.79670e+04	1.93207e-01	3.20000e+02
27998	3.23217e+02	2.79980e+04	1.93154e-01	3.20000e+02
28029	3.23222e+02	2.80290e+04	1.92739e-01	3.20000e+02
28060	3.23217e+02	2.80600e+04	1.92510e-01	3.20000e+02
28091	3.23217e+02	2.80910e+04	1.92237e-01	3.20000e+02
28122	3.23207e+02	2.81220e+04	1.91895e-01	3.20000e+02
28153	3.23216e+02	2.81530e+04	1.91690e-01	3.20000e+02
28184	3.23205e+02	2.81840e+04	1.91392e-01	3.20000e+02
28215	3.23216e+02	2.82150e+04	1.91277e-01	3.20000e+02
28246	3.23196e+02	2.82460e+04	1.91077e-01	3.20000e+02
28277	3.23194e+02	2.82770e+04	1.90857e-01	3.20000e+02
28308	3.23219e+02	2.83080e+04	1.90278e-01	3.20000e+02
28339	3.23215e+02	2.83390e+04	1.90203e-01	3.20000e+02
28370	3.23209e+02	2.83700e+04	1.90030e-01	3.20000e+02
28401	3.23208e+02	2.84010e+04	1.89868e-01	3.20000e+02
28432	3.23201e+02	2.84320e+04	1.89492e-01	3.20000e+02
28463	3.23218e+02	2.84630e+04	1.89276e-01	3.20000e+02
28494	3.23216e+02	2.84940e+04	1.89010e-01	3.20000e+02
28525	3.23210e+02	2.85250e+04	1.88612e-01	3.20000e+02
28556	3.23212e+02	2.85560e+04	1.88391e-01	3.20000e+02
28587	3.23224e+02	2.85870e+04	1.88145e-01	3.20000e+02
28618	3.23217e+02	2.86180e+04	1.87762e-01	3.20000e+02
28649	3.23214e+02	2.86490e+04	1.87655e-01	3.20000e+02
28680	3.23215e+02	2.86800e+04	1.87222e-01	3.20000e+02
28711	3.23216e+02	2.87110e+04	1.86890e-01	3.20000e+02
28742	3.23217e+02	2.87420e+04	1.86497e-01	3.20000e+02
28773	3.23209e+02	2.87730e+04	1.86299e-01	3.20000e+02
28804	3.23210e+02	2.88040e+04	1.85995e-01	3.20000e+02
28835	3.23208e+02	2.88350e+04	1.85797e-01	3.20000e+02
28866	3.23207e+02	2.88660e+04	1.85504e-01	3.20000e+02
28897	3.23202e+02	2.88970e+04	1.85232e-01	3.20000e+02
28928	3.23206e+02	2.89280e+04	1.85048e-01	3.20000e+02
28959	3.23202e+02	2.89590e+04	1.84765e-01	3.20000e+02
28990	3.23207e+02	2.89900e+04	1.84591e-01	3.20000e+02
29021	3.23213e+02	2.90210e+04	1.84383e-01	3.20000e+02
29052	3.23207e+02	2.90520e+04	1.84136e-01	3.20000e+02
29083	3.23190e+02	2.90830e+04	1.83935e-01	3.20000e+02
29114	3.23196e+02	2.91140e+04	1.83603e-01	3.20000e+02
29145	3.23198e+02	2.91450e+04	1.83390e-01	3.20000e+02
29176	3.23197e+02	2.91760e+04	1.83038e-01	3.20000e+02
29207	3.23205e+02	2.92070e+04	1.82990e-01	3.20000e+02
29238	3.23210e+02	2.92380e+04	1.82631e-01	3.20000e+02
29269	3.23203e+02	2.92690e+04	1.82474e-01	3.20000e+02
29300	3.23216e+02	2.93000e+04	1.82290e-01	3.20000e+02
29331	3.23202e+02	2.93310e+04	1.81990e-01	3.20000e+02
29362	3.23205e+02	2.93620e+04	1.81809e-01	3.20000e+02
29393	3.23213e+02	2.93930e+04	1.81499e-01	3.20000e+02
29424	3.23209e+02	2.94240e+04	1.81619e-01	3.20000e+02
29455	3.23215e+02	2.94550e+04	1.81133e-01	3.20000e+02
29486	3.23208e+02	2.94860e+04	1.80848e-01	3.20000e+02
29517	3.23211e+02	2.95170e+04	1.80666e-01	3.20000e+02
29548	3.23217e+02	2.95480e+04	1.80292e-01	3.20000e+02
29579	3.23219e+02	2.95790e+04	1.80090e-01	3.20000e+02
29610	3.23213e+02	2.96100e+04	1.79878e-01	3.20000e+02
29641	3.23202e+02	2.96410e+04	1.79612e-01	3.20000e+02
29672	3.23210e+02	2.96720e+04	1.79544e-01	3.20000e+02
29703	3.23212e+02	2.97030e+04	1.79290e-01	3.20000e+02
29731	3.23227e+02	2.97310e+04	1.78766e-01	3.20000e+02