File: Experiments/TGA/TUBS/tga_isotherm/tga_isotherm_n2_iso320_powder_3mg_r2.txt
index	ts	t	weight	tr
[#]	[°C]	[s]	[mg]	[°C]
900	1.23161e+02	9.00000e+02	2.97560e+00	9.00000e+01
935	1.76929e+02	9.35000e+02	2.96136e+00	3.20000e+02
966	2.28981e+02	9.66000e+02	2.87022e+00	3.20000e+02
997	2.61059e+02	9.97000e+02	2.84462e+00	3.20000e+02
1028	2.82879e+02	1.02800e+03	2.82902e+00	3.20000e+02
1059	2.97177e+02	1.05900e+03	2.80378e+00	3.20000e+02
1090	3.06190e+02	1.09000e+03	2.76268e+00	3.20000e+02
1121	3.12134e+02	1.12100e+03	2.71940e+00	3.20000e+02
1152	3.16025e+02	1.15200e+03	2.67757e+00	3.20000e+02
1183	3.18529e+02	1.18300e+03	2.64347e+00	3.20000e+02
1214	3.20188e+02	1.21400e+03	2.61261e+00	3.20000e+02
1245	3.21246e+02	1.24500e+03	2.58167e+00	3.20000e+02
1276	3.21923e+02	1.27600e+03	2.55057e+00	3.20000e+02
1307	3.22355e+02	1.30700e+03	2.51957e+00	3.20000e+02
1338	3.22654e+02	1.33800e+03	2.48894e+00	3.20000e+02
1369	3.22817e+02	1.36900e+03	2.45916e+00	3.20000e+02
1400	3.22947e+02	1.40000e+03	2.42983e+00	3.20000e+02
1431	3.23012e+02	1.43100e+03	2.40140e+00	3.20000e+02
1462	3.23061e+02	1.46200e+03	2.37360e+00	3.20000e+02
1493	3.23069e+02	1.49300e+03	2.34685e+00	3.20000e+02
1524	3.23087e+02	1.52400e+03	2.32067e+00	3.20000e+02
1555	3.23101e+02	1.55500e+03	2.29537e+00	3.20000e+02
1586	3.23112e+02	1.58600e+03	2.27062e+00	3.20000e+02
1617	3.23120e+02	1.61700e+03	2.24678e+00	3.20000e+02
1648	3.23108e+02	1.64800e+03	2.22341e+00	3.20000e+02
1679	3.23100e+02	1.67900e+03	2.20061e+00	3.20000e+02
1710	3.23098e+02	1.71000e+03	2.17868e+00	3.20000e+02
1741	3.23083e+02	1.74100e+03	2.15711e+00	3.20000e+02
1772	3.23091e+02	1.77200e+03	2.13621e+00	3.20000e+02
1803	3.23083e+02	1.80300e+03	2.11559e+00	3.20000e+02
1834	3.23078e+02	1.83400e+03	2.09577e+00	3.20000e+02
1865	3.23073e+02	1.86500e+03	2.07618e+00	3.20000e+02
1896	3.23079e+02	1.89600e+03	2.05738e+00	3.20000e+02
1927	3.23074e+02	1.92700e+03	2.03869e+00	3.20000e+02
1958	3.23070e+02	1.95800e+03	2.02057e+00	3.20000e+02
1989	3.23071e+02	1.98900e+03	2.00281e+00	3.20000e+02
2020	3.23061e+02	2.02000e+03	1.98559e+00	3.20000e+02
2051	3.23072e+02	2.05100e+03	1.96865e+00	3.20000e+02
2082	3.23064e+02	2.08200e+03	1.95209e+00	3.20000e+02
2113	3.23056e+02	2.11300e+03	1.93571e+00	3.20000e+02
2144	3.23042e+02	2.14400e+03	1.91977e+00	3.20000e+02
2175	3.23053e+02	2.17500e+03	1.90421e+00	3.20000e+02
2206	3.23048e+02	2.20600e+03	1.88901e+00	3.20000e+02
2237	3.23047e+02	2.23700e+03	1.87394e+00	3.20000e+02
2268	3.23035e+02	2.26800e+03	1.85912e+00	3.20000e+02
2299	3.23052e+02	2.29900e+03	1.84468e+00	3.20000e+02
2330	3.23052e+02	2.33000e+03	1.83052e+00	3.20000e+02
2361	3.23046e+02	2.36100e+03	1.81645e+00	3.20000e+02
2392	3.23044e+02	2.39200e+03	1.80265e+00	3.20000e+02
2423	3.23048e+02	2.42300e+03	1.78910e+00	3.20000e+02
2454	3.23045e+02	2.45400e+03	1.77607e+00	3.20000e+02
2485	3.23048e+02	2.48500e+03	1.76314e+00	3.20000e+02
2516	3.23045e+02	2.51600e+03	1.75031e+00	3.20000e+02
2547	3.23047e+02	2.54700e+03	1.73782e+00	3.20000e+02
2578	3.23034e+02	2.57800e+03	1.72549e+00	3.20000e+02
2609	3.23039e+02	2.60900e+03	1.71333e+00	3.20000e+02
2640	3.23042e+02	2.64000e+03	1.70145e+00	3.20000e+02
2671	3.23036e+02	2.67100e+03	1.68955e+00	3.20000e+02
2702	3.23031e+02	2.70200e+03	1.67788e+00	3.20000e+02
2733	3.23037e+02	2.73300e+03	1.66652e+00	3.20000e+02
2764	3.23023e+02	2.76400e+03	1.65535e+00	3.20000e+02
2795	3.23028e+02	2.79500e+03	1.64418e+00	3.20000e+02
2826	3.23030e+02	2.82600e+03	1.63330e+00	3.20000e+02
2857	3.23026e+02	2.85700e+03	1.62263e+00	3.20000e+02
2888	3.23026e+02	2.88800e+03	1.61199e+00	3.20000e+02
2919	3.23043e+02	2.91900e+03	1.60169e+00	3.20000e+02
2950	3.23029e+02	2.95000e+03	1.59126e+00	3.20000e+02
2981	3.23026e+02	2.98100e+03	1.58130e+00	3.20000e+02
3012	3.23031e+02	3.01200e+03	1.57120e+00	3.20000e+02
3043	3.23034e+02	3.04300e+03	1.56137e+00	3.20000e+02
3074	3.23035e+02	3.07400e+03	1.55158e+00	3.20000e+02
3105	3.23027e+02	3.10500e+03	1.54203e+00	3.20000e+02
3136	3.23039e+02	3.13600e+03	1.53264e+00	3.20000e+02
3167	3.23035e+02	3.16700e+03	1.52327e+00	3.20000e+02
3198	3.23026e+02	3.19800e+03	1.51405e+00	3.20000e+02
3229	3.23030e+02	3.22900e+03	1.50472e+00	3.20000e+02
3260	3.23017e+02	3.26000e+03	1.49573e+00	3.20000e+02
3291	3.23024e+02	3.29100e+03	1.48692e+00	3.20000e+02
3322	3.23015e+02	3.32200e+03	1.47811e+00	3.20000e+02
3353	3.23022e+02	3.35300e+03	1.46979e+00	3.20000e+02
3384	3.23022e+02	3.38400e+03	1.46113e+00	3.20000e+02
3415	3.23012e+02	3.41500e+03	1.45274e+00	3.20000e+02
3446	3.23013e+02	3.44600e+03	1.44460e+00	3.20000e+02
3477	3.23019e+02	3.47700e+03	1.43649e+00	3.20000e+02
3508	3.22999e+02	3.50800e+03	1.42865e+00	3.20000e+02
3539	3.23011e+02	3.53900e+03	1.42040e+00	3.20000e+02
3570	3.23003e+02	3.57000e+03	1.41278e+00	3.20000e+02
3601	3.23011e+02	3.60100e+03	1.40484e+00	3.20000e+02
3632	3.23011e+02	3.63200e+03	1.39707e+00	3.20000e+02
3663	3.23008e+02	3.66300e+03	1.38933e+00	3.20000e+02
3694	3.23022e+02	3.69400e+03	1.38170e+00	3.20000e+02
3725	3.23030e+02	3.72500e+03	1.37413e+00	3.20000e+02
3756	3.23017e+02	3.75600e+03	1.36691e+00	3.20000e+02
3787	3.23026e+02	3.78700e+03	1.35957e+00	3.20000e+02
3818	3.23025e+02	3.81800e+03	1.35243e+00	3.20000e+02
3849	3.23012e+02	3.84900e+03	1.34537e+00	3.20000e+02
3880	3.23017e+02	3.88000e+03	1.33818e+00	3.20000e+02
3911	3.23006e+02	3.91100e+03	1.33112e+00	3.20000e+02
3942	3.23000e+02	3.94200e+03	1.32410e+00	3.20000e+02
3973	3.23011e+02	3.97300e+03	1.31715e+00	3.20000e+02
4004	3.23007e+02	4.00400e+03	1.31046e+00	3.20000e+02
4035	3.23010e+02	4.03500e+03	1.30362e+00	3.20000e+02
4066	3.23003e+02	4.06600e+03	1.29699e+00	3.20000e+02
4097	3.22991e+02	4.09700e+03	1.29042e+00	3.20000e+02
4128	3.23007e+02	4.12800e+03	1.28394e+00	3.20000e+02
4159	3.23005e+02	4.15900e+03	1.27737e+00	3.20000e+02
4190	3.22995e+02	4.19000e+03	1.27103e+00	3.20000e+02
4221	3.22988e+02	4.22100e+03	1.26459e+00	3.20000e+02
4252	3.23006e+02	4.25200e+03	1.25835e+00	3.20000e+02
4283	3.22987e+02	4.28300e+03	1.25231e+00	3.20000e+02
4314	3.22993e+02	4.31400e+03	1.24585e+00	3.20000e+02
4345	3.22997e+02	4.34500e+03	1.23981e+00	3.20000e+02
4376	3.23004e+02	4.37600e+03	1.23376e+00	3.20000e+02
4407	3.22999e+02	4.40700e+03	1.22763e+00	3.20000e+02
4438	3.23007e+02	4.43800e+03	1.22170e+00	3.20000e+02
4469	3.23000e+02	4.46900e+03	1.21566e+00	3.20000e+02
4500	3.23004e+02	4.50000e+03	1.20967e+00	3.20000e+02
4531	3.23002e+02	4.53100e+03	1.20374e+00	3.20000e+02
4562	3.23011e+02	4.56200e+03	1.19806e+00	3.20000e+02
4593	3.23002e+02	4.59300e+03	1.19240e+00	3.20000e+02
4624	3.23004e+02	4.62400e+03	1.18658e+00	3.20000e+02
4655	3.23003e+02	4.65500e+03	1.18113e+00	3.20000e+02
4686	3.23004e+02	4.68600e+03	1.17544e+00	3.20000e+02
4717	3.23008e+02	4.71700e+03	1.16997e+00	3.20000e+02
4748	3.23008e+02	4.74800e+03	1.16458e+00	3.20000e+02
4779	3.23005e+02	4.77900e+03	1.15900e+00	3.20000e+02
4810	3.23003e+02	4.81000e+03	1.15363e+00	3.20000e+02
4841	3.23012e+02	4.84100e+03	1.14831e+00	3.20000e+02
4872	3.23018e+02	4.87200e+03	1.14308e+00	3.20000e+02
4903	3.23005e+02	4.90300e+03	1.13794e+00	3.20000e+02
4934	3.22998e+02	4.93400e+03	1.13279e+00	3.20000e+02
4965	3.23013e+02	4.96500e+03	1.12771e+00	3.20000e+02
4996	3.23009e+02	4.99600e+03	1.12269e+00	3.20000e+02
5027	3.23003e+02	5.02700e+03	1.11761e+00	3.20000e+02
5058	3.23007e+02	5.05800e+03	1.11262e+00	3.20000e+02
5089	3.23006e+02	5.08900e+03	1.10769e+00	3.20000e+02
5120	3.22997e+02	5.12000e+03	1.10281e+00	3.20000e+02
5151	3.22997e+02	5.15100e+03	1.09786e+00	3.20000e+02
5182	3.23006e+02	5.18200e+03	1.09294e+00	3.20000e+02
5213	3.23011e+02	5.21300e+03	1.08828e+00	3.20000e+02
5244	3.23006e+02	5.24400e+03	1.08353e+00	3.20000e+02
5275	3.22997e+02	5.27500e+03	1.07904e+00	3.20000e+02
5306	3.23008e+02	5.30600e+03	1.07443e+00	3.20000e+02
5337	3.22993e+02	5.33700e+03	1.06966e+00	3.20000e+02
5368	3.23006e+02	5.36800e+03	1.06514e+00	3.20000e+02
5399	3.23002e+02	5.39900e+03	1.06052e+00	3.20000e+02
5430	3.22995e+02	5.43000e+03	1.05614e+00	3.20000e+02
5461	3.22994e+02	5.46100e+03	1.05162e+00	3.20000e+02
5492	3.23005e+02	5.49200e+03	1.04728e+00	3.20000e+02
5523	3.22997e+02	5.52300e+03	1.04289e+00	3.20000e+02
5554	3.22999e+02	5.55400e+03	1.03839e+00	3.20000e+02
5585	3.22986e+02	5.58500e+03	1.03419e+00	3.20000e+02
5616	3.22998e+02	5.61600e+03	1.02978e+00	3.20000e+02
5647	3.23006e+02	5.64700e+03	1.02550e+00	3.20000e+02
5678	3.22995e+02	5.67800e+03	1.02130e+00	3.20000e+02
5709	3.22992e+02	5.70900e+03	1.01696e+00	3.20000e+02
5740	3.22993e+02	5.74000e+03	1.01287e+00	3.20000e+02
5771	3.22996e+02	5.77100e+03	1.00893e+00	3.20000e+02
5802	3.22996e+02	5.80200e+03	1.00454e+00	3.20000e+02
5833	3.23002e+02	5.83300e+03	1.00054e+00	3.20000e+02
5864	3.22998e+02	5.86400e+03	9.96581e-01	3.20000e+02
5895	3.23000e+02	5.89500e+03	9.92613e-01	3.20000e+02
5926	3.23000e+02	5.92600e+03	9.88394e-01	3.20000e+02
5957	3.23000e+02	5.95700e+03	9.84442e-01	3.20000e+02
5988	3.23010e+02	5.98800e+03	9.80594e-01	3.20000e+02
6019	3.23011e+02	6.01900e+03	9.76316e-01	3.20000e+02
6050	3.23001e+02	6.05000e+03	9.72622e-01	3.20000e+02
6081	3.23006e+02	6.08100e+03	9.68728e-01	3.20000e+02
6112	3.22998e+02	6.11200e+03	9.64881e-01	3.20000e+02
6143	3.22993e+02	6.14300e+03	9.60937e-01	3.20000e+02
6174	3.22996e+02	6.17400e+03	9.57414e-01	3.20000e+02
6205	3.23007e+02	6.20500e+03	9.53809e-01	3.20000e+02
6236	3.23003e+02	6.23600e+03	9.50016e-01	3.20000e+02
6267	3.22999e+02	6.26700e+03	9.46319e-01	3.20000e+02
6298	3.22993e+02	6.29800e+03	9.42670e-01	3.20000e+02
6329	3.22999e+02	6.32900e+03	9.39012e-01	3.20000e+02
6360	3.22998e+02	6.36000e+03	9.35406e-01	3.20000e+02
6391	3.23007e+02	6.39100e+03	9.31826e-01	3.20000e+02
6422	3.23002e+02	6.42200e+03	9.28383e-01	3.20000e+02
6453	3.23001e+02	6.45300e+03	9.24970e-01	3.20000e+02
6484	3.23006e+02	6.48400e+03	9.21317e-01	3.20000e+02
6515	3.22994e+02	6.51500e+03	9.17891e-01	3.20000e+02
6546	3.23015e+02	6.54600e+03	9.14467e-01	3.20000e+02
6577	3.23003e+02	6.57700e+03	9.10911e-01	3.20000e+02
6608	3.23001e+02	6.60800e+03	9.07509e-01	3.20000e+02
6639	3.22998e+02	6.63900e+03	9.04253e-01	3.20000e+02
6670	3.22990e+02	6.67000e+03	9.00879e-01	3.20000e+02
6701	3.22988e+02	6.70100e+03	8.97558e-01	3.20000e+02
6732	3.22997e+02	6.73200e+03	8.94296e-01	3.20000e+02
6763	3.22999e+02	6.76300e+03	8.91029e-01	3.20000e+02
6794	3.23001e+02	6.79400e+03	8.87932e-01	3.20000e+02
6825	3.22993e+02	6.82500e+03	8.84548e-01	3.20000e+02
6856	3.22997e+02	6.85600e+03	8.81332e-01	3.20000e+02
6887	3.23012e+02	6.88700e+03	8.77989e-01	3.20000e+02
6918	3.22999e+02	6.91800e+03	8.74848e-01	3.20000e+02
6949	3.23005e+02	6.94900e+03	8.71749e-01	3.20000e+02
6980	3.23008e+02	6.98000e+03	8.68480e-01	3.20000e+02
7011	3.23001e+02	7.01100e+03	8.65484e-01	3.20000e+02
7042	3.23013e+02	7.04200e+03	8.62426e-01	3.20000e+02
7073	3.23011e+02	7.07300e+03	8.59484e-01	3.20000e+02
7104	3.23013e+02	7.10400e+03	8.56265e-01	3.20000e+02
7135	3.23007e+02	7.13500e+03	8.53201e-01	3.20000e+02
7166	3.23012e+02	7.16600e+03	8.50276e-01	3.20000e+02
7197	3.22997e+02	7.19700e+03	8.47215e-01	3.20000e+02
7228	3.23008e+02	7.22800e+03	8.44109e-01	3.20000e+02
7259	3.23010e+02	7.25900e+03	8.41169e-01	3.20000e+02
7290	3.23007e+02	7.29000e+03	8.38172e-01	3.20000e+02
7321	3.23006e+02	7.32100e+03	8.35337e-01	3.20000e+02
7352	3.23000e+02	7.35200e+03	8.32293e-01	3.20000e+02
7383	3.23001e+02	7.38300e+03	8.29364e-01	3.20000e+02
7414	3.23013e+02	7.41400e+03	8.26570e-01	3.20000e+02
7445	3.23001e+02	7.44500e+03	8.23539e-01	3.20000e+02
7476	3.23008e+02	7.47600e+03	8.20907e-01	3.20000e+02
7507	3.22994e+02	7.50700e+03	8.17984e-01	3.20000e+02
7538	3.23003e+02	7.53800e+03	8.15150e-01	3.20000e+02
7569	3.22994e+02	7.56900e+03	8.12318e-01	3.20000e+02
7600	3.22997e+02	7.60000e+03	8.09624e-01	3.20000e+02
7631	3.23001e+02	7.63100e+03	8.06734e-01	3.20000e+02
7662	3.23014e+02	7.66200e+03	8.04090e-01	3.20000e+02
7693	3.22991e+02	7.69300e+03	8.01420e-01	3.20000e+02
7724	3.23024e+02	7.72400e+03	7.98697e-01	3.20000e+02
7755	3.23004e+02	7.75500e+03	7.96103e-01	3.20000e+02
7786	3.22998e+02	7.78600e+03	7.93310e-01	3.20000e+02
7817	3.22997e+02	7.81700e+03	7.90826e-01	3.20000e+02
7848	3.23000e+02	7.84800e+03	7.88206e-01	3.20000e+02
7879	3.23005e+02	7.87900e+03	7.85473e-01	3.20000e+02
7910	3.23000e+02	7.91000e+03	7.82926e-01	3.20000e+02
7941	3.22999e+02	7.94100e+03	7.80365e-01	3.20000e+02
7972	3.22993e+02	7.97200e+03	7.77630e-01	3.20000e+02
8003	3.22989e+02	8.00300e+03	7.75278e-01	3.20000e+02
8034	3.22985e+02	8.03400e+03	7.72781e-01	3.20000e+02
8065	3.22998e+02	8.06500e+03	7.70217e-01	3.20000e+02
8096	3.23003e+02	8.09600e+03	7.67648e-01	3.20000e+02
8127	3.23009e+02	8.12700e+03	7.65154e-01	3.20000e+02
8158	3.23008e+02	8.15800e+03	7.62752e-01	3.20000e+02
8189	3.23007e+02	8.18900e+03	7.60192e-01	3.20000e+02
8220	3.23009e+02	8.22000e+03	7.57750e-01	3.20000e+02
8251	3.23000e+02	8.25100e+03	7.55277e-01	3.20000e+02
8282	3.23001e+02	8.28200e+03	7.52908e-01	3.20000e+02
8313	3.23011e+02	8.31300e+03	7.50445e-01	3.20000e+02
8344	3.23006e+02	8.34400e+03	7.47923e-01	3.20000e+02
8375	3.22994e+02	8.37500e+03	7.45664e-01	3.20000e+02
8406	3.22990e+02	8.40600e+03	7.43201e-01	3.20000e+02
8437	3.22994e+02	8.43700e+03	7.40731e-01	3.20000e+02
8468	3.22991e+02	8.46800e+03	7.38365e-01	3.20000e+02
8499	3.22989e+02	8.49900e+03	7.36122e-01	3.20000e+02
8530	3.23004e+02	8.53000e+03	7.33785e-01	3.20000e+02
8561	3.22991e+02	8.56100e+03	7.31561e-01	3.20000e+02
8592	3.22982e+02	8.59200e+03	7.29124e-01	3.20000e+02
8623	3.22978e+02	8.62300e+03	7.26878e-01	3.20000e+02
8654	3.22987e+02	8.65400e+03	7.24774e-01	3.20000e+02
8685	3.22981e+02	8.68500e+03	7.22338e-01	3.20000e+02
8716	3.22983e+02	8.71600e+03	7.20104e-01	3.20000e+02
8747	3.22986e+02	8.74700e+03	7.18062e-01	3.20000e+02
8778	3.22989e+02	8.77800e+03	7.15841e-01	3.20000e+02
8809	3.22979e+02	8.80900e+03	7.13513e-01	3.20000e+02
8840	3.22991e+02	8.84000e+03	7.11392e-01	3.20000e+02
8871	3.22973e+02	8.87100e+03	7.09279e-01	3.20000e+02
8902	3.22981e+02	8.90200e+03	7.07039e-01	3.20000e+02
8933	3.22988e+02	8.93300e+03	7.04900e-01	3.20000e+02
8964	3.22995e+02	8.96400e+03	7.02801e-01	3.20000e+02
8995	3.22989e+02	8.99500e+03	7.00759e-01	3.20000e+02
9026	3.23000e+02	9.02600e+03	6.98581e-01	3.20000e+02
9057	3.22987e+02	9.05700e+03	6.96473e-01	3.20000e+02
9088	3.22981e+02	9.08800e+03	6.94266e-01	3.20000e+02
9119	3.22980e+02	9.11900e+03	6.92277e-01	3.20000e+02
9150	3.22989e+02	9.15000e+03	6.90229e-01	3.20000e+02
9181	3.22976e+02	9.18100e+03	6.88230e-01	3.20000e+02
9212	3.22976e+02	9.21200e+03	6.86267e-01	3.20000e+02
9243	3.22996e+02	9.24300e+03	6.84140e-01	3.20000e+02
9274	3.22996e+02	9.27400e+03	6.82088e-01	3.20000e+02
9305	3.22991e+02	9.30500e+03	6.80208e-01	3.20000e+02
9336	3.22983e+02	9.33600e+03	6.78277e-01	3.20000e+02
9367	3.22970e+02	9.36700e+03	6.76192e-01	3.20000e+02
9398	3.22983e+02	9.39800e+03	6.74116e-01	3.20000e+02
9429	3.22991e+02	9.42900e+03	6.72140e-01	3.20000e+02
9460	3.22987e+02	9.46000e+03	6.70237e-01	3.20000e+02
9491	3.22992e+02	9.49100e+03	6.68218e-01	3.20000e+02
9522	3.22996e+02	9.52200e+03	6.66301e-01	3.20000e+02
9553	3.22991e+02	9.55300e+03	6.64333e-01	3.20000e+02
9584	3.22988e+02	9.58400e+03	6.62358e-01	3.20000e+02
9615	3.23002e+02	9.61500e+03	6.60403e-01	3.20000e+02
9646	3.22995e+02	9.64600e+03	6.58497e-01	3.20000e+02
9677	3.22993e+02	9.67700e+03	6.56739e-01	3.20000e+02
9708	3.22987e+02	9.70800e+03	6.54768e-01	3.20000e+02
9739	3.22999e+02	9.73900e+03	6.52825e-01	3.20000e+02
9770	3.22981e+02	9.77000e+03	6.50795e-01	3.20000e+02
9801	3.22993e+02	9.80100e+03	6.48999e-01	3.20000e+02
9832	3.22990e+02	9.83200e+03	6.47026e-01	3.20000e+02
9863	3.22987e+02	9.86300e+03	6.45105e-01	3.20000e+02
9894	3.22993e+02	9.89400e+03	6.43359e-01	3.20000e+02
9925	3.22994e+02	9.92500e+03	6.41501e-01	3.20000e+02
9956	3.22992e+02	9.95600e+03	6.39862e-01	3.20000e+02
9987	3.22988e+02	9.98700e+03	6.38052e-01	3.20000e+02
10018	3.22980e+02	1.00180e+04	6.36128e-01	3.20000e+02
10049	3.22985e+02	1.00490e+04	6.34543e-01	3.20000e+02
10080	3.22993e+02	1.00800e+04	6.32757e-01	3.20000e+02
10111	3.22991e+02	1.01110e+04	6.30776e-01	3.20000e+02
10142	3.22977e+02	1.01420e+04	6.28991e-01	3.20000e+02
10173	3.22993e+02	1.01730e+04	6.27263e-01	3.20000e+02
10204	3.22986e+02	1.02040e+04	6.25578e-01	3.20000e+02
10235	3.22992e+02	1.02350e+04	6.23893e-01	3.20000e+02
10266	3.22996e+02	1.02660e+04	6.22042e-01	3.20000e+02
10297	3.22982e+02	1.02970e+04	6.20335e-01	3.20000e+02
10328	3.22982e+02	1.03280e+04	6.18862e-01	3.20000e+02
10359	3.22976e+02	1.03590e+04	6.17053e-01	3.20000e+02
10390	3.22984e+02	1.03900e+04	6.15359e-01	3.20000e+02
10421	3.22983e+02	1.04210e+04	6.13742e-01	3.20000e+02
10452	3.22983e+02	1.04520e+04	6.12060e-01	3.20000e+02
10483	3.22981e+02	1.04830e+04	6.10345e-01	3.20000e+02
10514	3.22993e+02	1.05140e+04	6.08809e-01	3.20000e+02
10545	3.22984e+02	1.05450e+04	6.07229e-01	3.20000e+02
10576	3.22981e+02	1.05760e+04	6.05571e-01	3.20000e+02
10607	3.22994e+02	1.06070e+04	6.03928e-01	3.20000e+02
10638	3.22984e+02	1.06380e+04	6.02392e-01	3.20000e+02
10669	3.22977e+02	1.06690e+04	6.00694e-01	3.20000e+02
10700	3.22978e+02	1.07000e+04	5.99182e-01	3.20000e+02
10731	3.22986e+02	1.07310e+04	5.97589e-01	3.20000e+02
10762	3.22983e+02	1.07620e+04	5.95995e-01	3.20000e+02
10793	3.22983e+02	1.07930e+04	5.94570e-01	3.20000e+02
10824	3.22988e+02	1.08240e+04	5.93006e-01	3.20000e+02
10855	3.22980e+02	1.08550e+04	5.91336e-01	3.20000e+02
10886	3.22986e+02	1.08860e+04	5.89702e-01	3.20000e+02
10917	3.22982e+02	1.09170e+04	5.88086e-01	3.20000e+02
10948	3.22976e+02	1.09480e+04	5.86791e-01	3.20000e+02
10979	3.22980e+02	1.09790e+04	5.85020e-01	3.20000e+02
11010	3.22978e+02	1.10100e+04	5.83402e-01	3.20000e+02
11041	3.22967e+02	1.10410e+04	5.81862e-01	3.20000e+02
11072	3.22962e+02	1.10720e+04	5.80409e-01	3.20000e+02
11103	3.22971e+02	1.11030e+04	5.78950e-01	3.20000e+02
11134	3.22981e+02	1.11340e+04	5.77352e-01	3.20000e+02
11165	3.22976e+02	1.11650e+04	5.75892e-01	3.20000e+02
11196	3.22974e+02	1.11960e+04	5.74473e-01	3.20000e+02
11227	3.22980e+02	1.12270e+04	5.72964e-01	3.20000e+02
11258	3.22980e+02	1.12580e+04	5.71473e-01	3.20000e+02
11289	3.22977e+02	1.12890e+04	5.70176e-01	3.20000e+02
11320	3.22992e+02	1.13200e+04	5.68626e-01	3.20000e+02
11351	3.22974e+02	1.13510e+04	5.67174e-01	3.20000e+02
11382	3.22985e+02	1.13820e+04	5.65718e-01	3.20000e+02
11413	3.22986e+02	1.14130e+04	5.64176e-01	3.20000e+02
11444	3.22968e+02	1.14440e+04	5.62713e-01	3.20000e+02
11475	3.22983e+02	1.14750e+04	5.61331e-01	3.20000e+02
11506	3.22980e+02	1.15060e+04	5.59994e-01	3.20000e+02
11537	3.22982e+02	1.15370e+04	5.58626e-01	3.20000e+02
11568	3.22975e+02	1.15680e+04	5.57225e-01	3.20000e+02
11599	3.22973e+02	1.15990e+04	5.55972e-01	3.20000e+02
11630	3.22979e+02	1.16300e+04	5.54682e-01	3.20000e+02
11661	3.22977e+02	1.16610e+04	5.53141e-01	3.20000e+02
11692	3.22971e+02	1.16920e+04	5.51723e-01	3.20000e+02
11723	3.22977e+02	1.17230e+04	5.50315e-01	3.20000e+02
11754	3.22984e+02	1.17540e+04	5.48925e-01	3.20000e+02
11785	3.22979e+02	1.17850e+04	5.47616e-01	3.20000e+02
11816	3.22984e+02	1.18160e+04	5.46270e-01	3.20000e+02
11847	3.22981e+02	1.18470e+04	5.44914e-01	3.20000e+02
11878	3.22984e+02	1.18780e+04	5.43573e-01	3.20000e+02
11909	3.22980e+02	1.19090e+04	5.42293e-01	3.20000e+02
11940	3.22976e+02	1.19400e+04	5.41061e-01	3.20000e+02
11971	3.22966e+02	1.19710e+04	5.39439e-01	3.20000e+02
12002	3.22984e+02	1.20020e+04	5.38070e-01	3.20000e+02
12033	3.22973e+02	1.20330e+04	5.36917e-01	3.20000e+02
12064	3.22973e+02	1.20640e+04	5.35650e-01	3.20000e+02
12095	3.22966e+02	1.20950e+04	5.34511e-01	3.20000e+02
12126	3.22978e+02	1.21260e+04	5.33023e-01	3.20000e+02
12157	3.22975e+02	1.21570e+04	5.31987e-01	3.20000e+02
12188	3.22976e+02	1.21880e+04	5.30547e-01	3.20000e+02
12219	3.22979e+02	1.22190e+04	5.29371e-01	3.20000e+02
12250	3.22980e+02	1.22500e+04	5.27954e-01	3.20000e+02
12281	3.22969e+02	1.22810e+04	5.26718e-01	3.20000e+02
12312	3.22964e+02	1.23120e+04	5.25541e-01	3.20000e+02
12343	3.22968e+02	1.23430e+04	5.24301e-01	3.20000e+02
12374	3.22985e+02	1.23740e+04	5.22992e-01	3.20000e+02
12405	3.22973e+02	1.24050e+04	5.21826e-01	3.20000e+02
12436	3.22974e+02	1.24360e+04	5.20514e-01	3.20000e+02
12467	3.22966e+02	1.24670e+04	5.19166e-01	3.20000e+02
12498	3.22967e+02	1.24980e+04	5.18128e-01	3.20000e+02
12529	3.22980e+02	1.25290e+04	5.16982e-01	3.20000e+02
12560	3.22976e+02	1.25600e+04	5.15633e-01	3.20000e+02
12591	3.22963e+02	1.25910e+04	5.14523e-01	3.20000e+02
12622	3.22966e+02	1.26220e+04	5.13321e-01	3.20000e+02
12653	3.22968e+02	1.26530e+04	5.12033e-01	3.20000e+02
12684	3.22966e+02	1.26840e+04	5.10899e-01	3.20000e+02
12715	3.22972e+02	1.27150e+04	5.09764e-01	3.20000e+02
12746	3.22971e+02	1.27460e+04	5.08485e-01	3.20000e+02
12777	3.22965e+02	1.27770e+04	5.07469e-01	3.20000e+02
12808	3.22984e+02	1.28080e+04	5.06275e-01	3.20000e+02
12839	3.22985e+02	1.28390e+04	5.05085e-01	3.20000e+02
12870	3.22969e+02	1.28700e+04	5.04068e-01	3.20000e+02
12901	3.22973e+02	1.29010e+04	5.02999e-01	3.20000e+02
12932	3.22959e+02	1.29320e+04	5.01763e-01	3.20000e+02
12963	3.22962e+02	1.29630e+04	5.00688e-01	3.20000e+02
12994	3.22968e+02	1.29940e+04	4.99513e-01	3.20000e+02
13025	3.22959e+02	1.30250e+04	4.98474e-01	3.20000e+02
13056	3.22964e+02	1.30560e+04	4.97424e-01	3.20000e+02
13087	3.22964e+02	1.30870e+04	4.96473e-01	3.20000e+02
13118	3.22955e+02	1.31180e+04	4.95144e-01	3.20000e+02
13149	3.22957e+02	1.31490e+04	4.94138e-01	3.20000e+02
13180	3.22960e+02	1.31800e+04	4.93138e-01	3.20000e+02
13211	3.22957e+02	1.32110e+04	4.91916e-01	3.20000e+02
13242	3.22958e+02	1.32420e+04	4.90577e-01	3.20000e+02
13273	3.22961e+02	1.32730e+04	4.89391e-01	3.20000e+02
13304	3.22965e+02	1.33040e+04	4.88404e-01	3.20000e+02
13335	3.22951e+02	1.33350e+04	4.87393e-01	3.20000e+02
13366	3.22945e+02	1.33660e+04	4.86256e-01	3.20000e+02
13397	3.22957e+02	1.33970e+04	4.85201e-01	3.20000e+02
13428	3.22959e+02	1.34280e+04	4.84096e-01	3.20000e+02
13459	3.22953e+02	1.34590e+04	4.83064e-01	3.20000e+02
13490	3.22953e+02	1.34900e+04	4.82042e-01	3.20000e+02
13521	3.22958e+02	1.35210e+04	4.80805e-01	3.20000e+02
13552	3.22949e+02	1.35520e+04	4.79895e-01	3.20000e+02
13583	3.22942e+02	1.35830e+04	4.78881e-01	3.20000e+02
13614	3.22941e+02	1.36140e+04	4.77696e-01	3.20000e+02
13645	3.22937e+02	1.36450e+04	4.76662e-01	3.20000e+02
13676	3.22953e+02	1.36760e+04	4.75606e-01	3.20000e+02
13707	3.22953e+02	1.37070e+04	4.74590e-01	3.20000e+02
13738	3.22939e+02	1.37380e+04	4.73631e-01	3.20000e+02
13769	3.22949e+02	1.37690e+04	4.72800e-01	3.20000e+02
13800	3.22946e+02	1.38000e+04	4.71541e-01	3.20000e+02
13831	3.22940e+02	1.38310e+04	4.70576e-01	3.20000e+02
13862	3.22942e+02	1.38620e+04	4.69409e-01	3.20000e+02
13893	3.22950e+02	1.38930e+04	4.68580e-01	3.20000e+02
13924	3.22928e+02	1.39240e+04	4.67541e-01	3.20000e+02
13955	3.22944e+02	1.39550e+04	4.66418e-01	3.20000e+02
13986	3.22947e+02	1.39860e+04	4.65519e-01	3.20000e+02
14017	3.22952e+02	1.40170e+04	4.64615e-01	3.20000e+02
14048	3.22951e+02	1.40480e+04	4.63651e-01	3.20000e+02
14079	3.22935e+02	1.40790e+04	4.62699e-01	3.20000e+02
14110	3.22937e+02	1.41100e+04	4.61712e-01	3.20000e+02
14141	3.22941e+02	1.41410e+04	4.60832e-01	3.20000e+02
14172	3.22936e+02	1.41720e+04	4.59666e-01	3.20000e+02
14203	3.22938e+02	1.42030e+04	4.58703e-01	3.20000e+02
14234	3.22927e+02	1.42340e+04	4.57916e-01	3.20000e+02
14265	3.22930e+02	1.42650e+04	4.56887e-01	3.20000e+02
14296	3.22917e+02	1.42960e+04	4.55728e-01	3.20000e+02
14327	3.22940e+02	1.43270e+04	4.54912e-01	3.20000e+02
14358	3.22937e+02	1.43580e+04	4.53755e-01	3.20000e+02
14389	3.22933e+02	1.43890e+04	4.52893e-01	3.20000e+02
14420	3.22934e+02	1.44200e+04	4.51994e-01	3.20000e+02
14451	3.22930e+02	1.44510e+04	4.50885e-01	3.20000e+02
14482	3.22928e+02	1.44820e+04	4.49915e-01	3.20000e+02
14513	3.22923e+02	1.45130e+04	4.49084e-01	3.20000e+02
14544	3.22921e+02	1.45440e+04	4.48258e-01	3.20000e+02
14575	3.22915e+02	1.45750e+04	4.47188e-01	3.20000e+02
14606	3.22915e+02	1.46060e+04	4.46469e-01	3.20000e+02
14637	3.22920e+02	1.46370e+04	4.45505e-01	3.20000e+02
14668	3.22915e+02	1.46680e+04	4.44528e-01	3.20000e+02
14699	3.22917e+02	1.46990e+04	4.43549e-01	3.20000e+02
14730	3.22909e+02	1.47300e+04	4.42664e-01	3.20000e+02
14761	3.22913e+02	1.47610e+04	4.41986e-01	3.20000e+02
14792	3.22905e+02	1.47920e+04	4.41244e-01	3.20000e+02
14823	3.22910e+02	1.48230e+04	4.40328e-01	3.20000e+02
14854	3.22911e+02	1.48540e+04	4.39463e-01	3.20000e+02
14885	3.22910e+02	1.48850e+04	4.38477e-01	3.20000e+02
14916	3.22929e+02	1.49160e+04	4.37519e-01	3.20000e+02
14947	3.22914e+02	1.49470e+04	4.36862e-01	3.20000e+02
14978	3.22908e+02	1.49780e+04	4.35767e-01	3.20000e+02
15009	3.22909e+02	1.50090e+04	4.35139e-01	3.20000e+02
15040	3.22915e+02	1.50400e+04	4.34074e-01	3.20000e+02
15071	3.22900e+02	1.50710e+04	4.33217e-01	3.20000e+02
15102	3.22903e+02	1.51020e+04	4.32424e-01	3.20000e+02
15133	3.22897e+02	1.51330e+04	4.31528e-01	3.20000e+02
15164	3.22890e+02	1.51640e+04	4.30662e-01	3.20000e+02
15195	3.22887e+02	1.51950e+04	4.29796e-01	3.20000e+02
15226	3.22891e+02	1.52260e+04	4.28912e-01	3.20000e+02
15257	3.22893e+02	1.52570e+04	4.28068e-01	3.20000e+02
15288	3.22894e+02	1.52880e+04	4.27135e-01	3.20000e+02
15319	3.22895e+02	1.53190e+04	4.26374e-01	3.20000e+02
15350	3.22890e+02	1.53500e+04	4.25555e-01	3.20000e+02
15381	3.22874e+02	1.53810e+04	4.24907e-01	3.20000e+02
15412	3.22887e+02	1.54120e+04	4.23909e-01	3.20000e+02
15443	3.22875e+02	1.54430e+04	4.22967e-01	3.20000e+02
15474	3.22873e+02	1.54740e+04	4.22181e-01	3.20000e+02
15505	3.22880e+02	1.55050e+04	4.21370e-01	3.20000e+02
15536	3.22871e+02	1.55360e+04	4.20635e-01	3.20000e+02
15567	3.22861e+02	1.55670e+04	4.19731e-01	3.20000e+02
15598	3.22869e+02	1.55980e+04	4.18953e-01	3.20000e+02
15629	3.22865e+02	1.56290e+04	4.18284e-01	3.20000e+02
15660	3.22866e+02	1.56600e+04	4.17260e-01	3.20000e+02
15691	3.22854e+02	1.56910e+04	4.16517e-01	3.20000e+02
15722	3.22859e+02	1.57220e+04	4.15706e-01	3.20000e+02
15753	3.22849e+02	1.57530e+04	4.15053e-01	3.20000e+02
15784	3.22847e+02	1.57840e+04	4.13731e-01	3.20000e+02
15815	3.22846e+02	1.58150e+04	4.13290e-01	3.20000e+02
15846	3.22832e+02	1.58460e+04	4.12559e-01	3.20000e+02
15877	3.22826e+02	1.58770e+04	4.11728e-01	3.20000e+02
15908	3.22837e+02	1.59080e+04	4.11081e-01	3.20000e+02
15939	3.22828e+02	1.59390e+04	4.10128e-01	3.20000e+02
15970	3.22825e+02	1.59700e+04	4.09346e-01	3.20000e+02
16001	3.22825e+02	1.60010e+04	4.08498e-01	3.20000e+02
16032	3.22813e+02	1.60320e+04	4.07613e-01	3.20000e+02
16063	3.22789e+02	1.60630e+04	4.06843e-01	3.20000e+02
16094	3.22799e+02	1.60940e+04	4.06104e-01	3.20000e+02
16125	3.22797e+02	1.61250e+04	4.05631e-01	3.20000e+02
16156	3.22803e+02	1.61560e+04	4.04740e-01	3.20000e+02
16187	3.22784e+02	1.61870e+04	4.03997e-01	3.20000e+02
16218	3.22796e+02	1.62180e+04	4.03227e-01	3.20000e+02
16249	3.22791e+02	1.62490e+04	4.02414e-01	3.20000e+02
16280	3.22784e+02	1.62800e+04	4.01512e-01	3.20000e+02
16311	3.22780e+02	1.63110e+04	4.00866e-01	3.20000e+02
16342	3.22781e+02	1.63420e+04	4.00035e-01	3.20000e+02
16373	3.22787e+02	1.63730e+04	3.99422e-01	3.20000e+02
16404	3.22772e+02	1.64040e+04	3.98631e-01	3.20000e+02
16435	3.22780e+02	1.64350e+04	3.97862e-01	3.20000e+02
16466	3.22765e+02	1.64660e+04	3.97084e-01	3.20000e+02
16497	3.22772e+02	1.64970e+04	3.96553e-01	3.20000e+02
16528	3.22761e+02	1.65280e+04	3.95810e-01	3.20000e+02
16559	3.22759e+02	1.65590e+04	3.94953e-01	3.20000e+02
16590	3.22762e+02	1.65900e+04	3.94153e-01	3.20000e+02
16621	3.22773e+02	1.66210e+04	3.93740e-01	3.20000e+02
16652	3.22758e+02	1.66520e+04	3.92914e-01	3.20000e+02
16683	3.22758e+02	1.66830e+04	3.92086e-01	3.20000e+02
16714	3.22762e+02	1.67140e+04	3.91524e-01	3.20000e+02
16745	3.22757e+02	1.67450e+04	3.90764e-01	3.20000e+02
16776	3.22749e+02	1.67760e+04	3.90075e-01	3.20000e+02
16807	3.22756e+02	1.68070e+04	3.89382e-01	3.20000e+02
16838	3.22753e+02	1.68380e+04	3.88763e-01	3.20000e+02
16869	3.22746e+02	1.68690e+04	3.88153e-01	3.20000e+02
16900	3.22762e+02	1.69000e+04	3.87309e-01	3.20000e+02
16931	3.22756e+02	1.69310e+04	3.86615e-01	3.20000e+02
16962	3.22749e+02	1.69620e+04	3.86019e-01	3.20000e+02
16993	3.22751e+02	1.69930e+04	3.85271e-01	3.20000e+02
17024	3.22750e+02	1.70240e+04	3.84480e-01	3.20000e+02
17055	3.22742e+02	1.70550e+04	3.83778e-01	3.20000e+02
17086	3.22762e+02	1.70860e+04	3.83111e-01	3.20000e+02
17117	3.22751e+02	1.71170e+04	3.82405e-01	3.20000e+02
17148	3.22746e+02	1.71480e+04	3.81804e-01	3.20000e+02
17179	3.22743e+02	1.71790e+04	3.81204e-01	3.20000e+02
17210	3.22760e+02	1.72100e+04	3.80519e-01	3.20000e+02
17241	3.22748e+02	1.72410e+04	3.79693e-01	3.20000e+02
17272	3.22750e+02	1.72720e+04	3.79080e-01	3.20000e+02
17303	3.22748e+02	1.73030e+04	3.78499e-01	3.20000e+02
17334	3.22744e+02	1.73340e+04	3.77781e-01	3.20000e+02
17365	3.22744e+02	1.73650e+04	3.77254e-01	3.20000e+02
17396	3.22737e+02	1.73960e+04	3.76522e-01	3.20000e+02
17427	3.22729e+02	1.74270e+04	3.75787e-01	3.20000e+02
17458	3.22745e+02	1.74580e+04	3.75013e-01	3.20000e+02
17489	3.22757e+02	1.74890e+04	3.74293e-01	3.20000e+02
17520	3.22757e+02	1.75200e+04	3.73799e-01	3.20000e+02
17551	3.22739e+02	1.75510e+04	3.73274e-01	3.20000e+02
17582	3.22745e+02	1.75820e+04	3.72666e-01	3.20000e+02
17613	3.22734e+02	1.76130e+04	3.71951e-01	3.20000e+02
17644	3.22751e+02	1.76440e+04	3.71305e-01	3.20000e+02
17675	3.22737e+02	1.76750e+04	3.70514e-01	3.20000e+02
17706	3.22735e+02	1.77060e+04	3.69998e-01	3.20000e+02
17737	3.22744e+02	1.77370e+04	3.69421e-01	3.20000e+02
17768	3.22753e+02	1.77680e+04	3.68739e-01	3.20000e+02
17799	3.22737e+02	1.77990e+04	3.68058e-01	3.20000e+02
17830	3.22745e+02	1.78300e+04	3.67383e-01	3.20000e+02
17861	3.22739e+02	1.78610e+04	3.66913e-01	3.20000e+02
17892	3.22735e+02	1.78920e+04	3.66218e-01	3.20000e+02
17923	3.22723e+02	1.79230e+04	3.65578e-01	3.20000e+02
17954	3.22727e+02	1.79540e+04	3.64932e-01	3.20000e+02
17985	3.22719e+02	1.79850e+04	3.64150e-01	3.20000e+02
18016	3.22732e+02	1.80160e+04	3.63746e-01	3.20000e+02
18047	3.22729e+02	1.80470e+04	3.63245e-01	3.20000e+02
18078	3.22729e+02	1.80780e+04	3.62442e-01	3.20000e+02
18109	3.22736e+02	1.81090e+04	3.61905e-01	3.20000e+02
18140	3.22731e+02	1.81400e+04	3.61370e-01	3.20000e+02
18171	3.22733e+02	1.81710e+04	3.60746e-01	3.20000e+02
18202	3.22731e+02	1.82020e+04	3.60174e-01	3.20000e+02
18233	3.22729e+02	1.82330e+04	3.59566e-01	3.20000e+02
18264	3.22733e+02	1.82640e+04	3.58996e-01	3.20000e+02
18295	3.22720e+02	1.82950e+04	3.58171e-01	3.20000e+02
18326	3.22712e+02	1.83260e+04	3.57754e-01	3.20000e+02
18357	3.22727e+02	1.83570e+04	3.57015e-01	3.20000e+02
18388	3.22724e+02	1.83880e+04	3.56667e-01	3.20000e+02
18419	3.22717e+02	1.84190e+04	3.55902e-01	3.20000e+02
18450	3.22724e+02	1.84500e+04	3.55294e-01	3.20000e+02
18481	3.22715e+02	1.84810e+04	3.54704e-01	3.20000e+02
18512	3.22722e+02	1.85120e+04	3.54182e-01	3.20000e+02
18543	3.22722e+02	1.85430e+04	3.53625e-01	3.20000e+02
18574	3.22722e+02	1.85740e+04	3.52946e-01	3.20000e+02
18605	3.22726e+02	1.86050e+04	3.52623e-01	3.20000e+02
18636	3.22733e+02	1.86360e+04	3.51993e-01	3.20000e+02
18667	3.22722e+02	1.86670e+04	3.51282e-01	3.20000e+02
18698	3.22727e+02	1.86980e+04	3.50840e-01	3.20000e+02
18729	3.22726e+02	1.87290e+04	3.50359e-01	3.20000e+02
18760	3.22735e+02	1.87600e+04	3.49707e-01	3.20000e+02
18791	3.22741e+02	1.87910e+04	3.49297e-01	3.20000e+02
18822	3.22722e+02	1.88220e+04	3.48498e-01	3.20000e+02
18853	3.22727e+02	1.88530e+04	3.47902e-01	3.20000e+02
18884	3.22725e+02	1.88840e+04	3.47305e-01	3.20000e+02
18915	3.22730e+02	1.89150e+04	3.46952e-01	3.20000e+02
18946	3.22726e+02	1.89460e+04	3.46251e-01	3.20000e+02
18977	3.22720e+02	1.89770e+04	3.45736e-01	3.20000e+02
19008	3.22722e+02	1.90080e+04	3.45331e-01	3.20000e+02
19039	3.22728e+02	1.90390e+04	3.44752e-01	3.20000e+02
19070	3.22724e+02	1.90700e+04	3.44322e-01	3.20000e+02
19101	3.22715e+02	1.91010e+04	3.43677e-01	3.20000e+02
19132	3.22730e+02	1.91320e+04	3.43133e-01	3.20000e+02
19163	3.22717e+02	1.91630e+04	3.42600e-01	3.20000e+02
19194	3.22729e+02	1.91940e+04	3.42094e-01	3.20000e+02
19225	3.22729e+02	1.92250e+04	3.41569e-01	3.20000e+02
19256	3.22723e+02	1.92560e+04	3.41068e-01	3.20000e+02
19287	3.22724e+02	1.92870e+04	3.40434e-01	3.20000e+02
19318	3.22724e+02	1.93180e+04	3.39801e-01	3.20000e+02
19349	3.22726e+02	1.93490e+04	3.39027e-01	3.20000e+02
19380	3.22725e+02	1.93800e+04	3.38620e-01	3.20000e+02
19411	3.22727e+02	1.94110e+04	3.38385e-01	3.20000e+02
19442	3.22723e+02	1.94420e+04	3.37765e-01	3.20000e+02
19473	3.22717e+02	1.94730e+04	3.37139e-01	3.20000e+02
19504	3.22733e+02	1.95040e+04	3.36569e-01	3.20000e+02
19535	3.22717e+02	1.95350e+04	3.36240e-01	3.20000e+02
19566	3.22722e+02	1.95660e+04	3.35434e-01	3.20000e+02
19597	3.22719e+02	1.95970e+04	3.35202e-01	3.20000e+02
19628	3.22726e+02	1.96280e+04	3.34576e-01	3.20000e+02
19659	3.22731e+02	1.96590e+04	3.34046e-01	3.20000e+02
19690	3.22720e+02	1.96900e+04	3.33567e-01	3.20000e+02
19721	3.22731e+02	1.97210e+04	3.33068e-01	3.20000e+02
19752	3.22724e+02	1.97520e+04	3.32510e-01	3.20000e+02
19783	3.22726e+02	1.97830e+04	3.31921e-01	3.20000e+02
19814	3.22717e+02	1.98140e+04	3.31511e-01	3.20000e+02
19845	3.22721e+02	1.98450e+04	3.31101e-01	3.20000e+02
19876	3.22732e+02	1.98760e+04	3.30718e-01	3.20000e+02
19907	3.22736e+02	1.99070e+04	3.30123e-01	3.20000e+02
19938	3.22738e+02	1.99380e+04	3.29613e-01	3.20000e+02
19969	3.22730e+02	1.99690e+04	3.29026e-01	3.20000e+02
20000	3.22726e+02	2.00000e+04	3.28570e-01	3.20000e+02
20031	3.22730e+02	2.00310e+04	3.28083e-01	3.20000e+02
20062	3.22736e+02	2.00620e+04	3.27440e-01	3.20000e+02
20093	3.22725e+02	2.00930e+04	3.26962e-01	3.20000e+02
20124	3.22724e+02	2.01240e+04	3.26535e-01	3.20000e+02
20155	3.22721e+02	2.01550e+04	3.25870e-01	3.20000e+02
20186	3.22727e+02	2.01860e+04	3.25462e-01	3.20000e+02
20217	3.22746e+02	2.02170e+04	3.24921e-01	3.20000e+02
20248	3.22734e+02	2.02480e+04	3.24434e-01	3.20000e+02
20279	3.22728e+02	2.02790e+04	3.24001e-01	3.20000e+02
20310	3.22724e+02	2.03100e+04	3.23504e-01	3.20000e+02
20341	3.22731e+02	2.03410e+04	3.23127e-01	3.20000e+02
20372	3.22731e+02	2.03720e+04	3.22527e-01	3.20000e+02
20403	3.22729e+02	2.04030e+04	3.22107e-01	3.20000e+02
20434	3.22723e+02	2.04340e+04	3.21652e-01	3.20000e+02
20465	3.22725e+02	2.04650e+04	3.21084e-01	3.20000e+02
20496	3.22717e+02	2.04960e+04	3.20556e-01	3.20000e+02
20527	3.22725e+02	2.05270e+04	3.19971e-01	3.20000e+02
20558	3.22724e+02	2.05580e+04	3.19522e-01	3.20000e+02
20589	3.22731e+02	2.05890e+04	3.19111e-01	3.20000e+02
20620	3.22720e+02	2.06200e+04	3.18663e-01	3.20000e+02
20651	3.22725e+02	2.06510e+04	3.18146e-01	3.20000e+02
20682	3.22723e+02	2.06820e+04	3.17604e-01	3.20000e+02
20713	3.22713e+02	2.07130e+04	3.17158e-01	3.20000e+02
20744	3.22722e+02	2.07440e+04	3.16807e-01	3.20000e+02
20775	3.22706e+02	2.07750e+04	3.16188e-01	3.20000e+02
20806	3.22729e+02	2.08060e+04	3.15712e-01	3.20000e+02
20837	3.22722e+02	2.08370e+04	3.15384e-01	3.20000e+02
20868	3.22726e+02	2.08680e+04	3.14873e-01	3.20000e+02
20899	3.22716e+02	2.08990e+04	3.14443e-01	3.20000e+02
20930	3.22727e+02	2.09300e+04	3.13889e-01	3.20000e+02
20961	3.22723e+02	2.09610e+04	3.13428e-01	3.20000e+02
20992	3.22723e+02	2.09920e+04	3.13129e-01	3.20000e+02
21023	3.22711e+02	2.10230e+04	3.12768e-01	3.20000e+02
21054	3.22719e+02	2.10540e+04	3.12122e-01	3.20000e+02
21085	3.22728e+02	2.10850e+04	3.11725e-01	3.20000e+02
21116	3.22728e+02	2.11160e+04	3.11236e-01	3.20000e+02
21147	3.22722e+02	2.11470e+04	3.10752e-01	3.20000e+02
21178	3.22722e+02	2.11780e+04	3.10320e-01	3.20000e+02
21209	3.22728e+02	2.12090e+04	3.09852e-01	3.20000e+02
21240	3.22723e+02	2.12400e+04	3.09477e-01	3.20000e+02
21271	3.22721e+02	2.12710e+04	3.08804e-01	3.20000e+02
21302	3.22718e+02	2.13020e+04	3.08403e-01	3.20000e+02
21333	3.22709e+02	2.13330e+04	3.08007e-01	3.20000e+02
21364	3.22718e+02	2.13640e+04	3.07660e-01	3.20000e+02
21395	3.22711e+02	2.13950e+04	3.07180e-01	3.20000e+02
21426	3.22708e+02	2.14260e+04	3.06666e-01	3.20000e+02
21457	3.22711e+02	2.14570e+04	3.06224e-01	3.20000e+02
21488	3.22706e+02	2.14880e+04	3.05918e-01	3.20000e+02
21519	3.22706e+02	2.15190e+04	3.05317e-01	3.20000e+02
21550	3.22718e+02	2.15500e+04	3.04914e-01	3.20000e+02
21581	3.22715e+02	2.15810e+04	3.04440e-01	3.20000e+02
21612	3.22725e+02	2.16120e+04	3.04040e-01	3.20000e+02
21643	3.22730e+02	2.16430e+04	3.03766e-01	3.20000e+02
21674	3.22731e+02	2.16740e+04	3.03262e-01	3.20000e+02
21705	3.22730e+02	2.17050e+04	3.02840e-01	3.20000e+02
21736	3.22713e+02	2.17360e+04	3.02221e-01	3.20000e+02
21767	3.22724e+02	2.17670e+04	3.01783e-01	3.20000e+02
21798	3.22721e+02	2.17980e+04	3.01409e-01	3.20000e+02
21829	3.22725e+02	2.18290e+04	3.00954e-01	3.20000e+02
21860	3.22712e+02	2.18600e+04	3.00678e-01	3.20000e+02
21891	3.22707e+02	2.18910e+04	2.99993e-01	3.20000e+02
21922	3.22715e+02	2.19220e+04	2.99645e-01	3.20000e+02
21953	3.22711e+02	2.19530e+04	2.99306e-01	3.20000e+02
21984	3.22715e+02	2.19840e+04	2.99144e-01	3.20000e+02
22015	3.22707e+02	2.20150e+04	2.98626e-01	3.20000e+02
22046	3.22714e+02	2.20460e+04	2.98184e-01	3.20000e+02
22077	3.22721e+02	2.20770e+04	2.97824e-01	3.20000e+02
22108	3.22708e+02	2.21080e+04	2.97245e-01	3.20000e+02
22139	3.22717e+02	2.21390e+04	2.96639e-01	3.20000e+02
22170	3.22717e+02	2.21700e+04	2.96348e-01	3.20000e+02
22201	3.22726e+02	2.22010e+04	2.95963e-01	3.20000e+02
22232	3.22710e+02	2.22320e+04	2.95635e-01	3.20000e+02
22263	3.22718e+02	2.22630e+04	2.95239e-01	3.20000e+02
22294	3.22714e+02	2.22940e+04	2.94785e-01	3.20000e+02
22325	3.22707e+02	2.23250e+04	2.94426e-01	3.20000e+02
22356	3.22717e+02	2.23560e+04	2.94077e-01	3.20000e+02
22387	3.22720e+02	2.23870e+04	2.93659e-01	3.20000e+02
22418	3.22720e+02	2.24180e+04	2.93408e-01	3.20000e+02
22449	3.22717e+02	2.24490e+04	2.92927e-01	3.20000e+02
22480	3.22718e+02	2.24800e+04	2.92645e-01	3.20000e+02
22511	3.22716e+02	2.25110e+04	2.92234e-01	3.20000e+02
22542	3.22719e+02	2.25420e+04	2.91705e-01	3.20000e+02
22573	3.22723e+02	2.25730e+04	2.91448e-01	3.20000e+02
22604	3.22726e+02	2.26040e+04	2.90878e-01	3.20000e+02
22635	3.22719e+02	2.26350e+04	2.90680e-01	3.20000e+02
22666	3.22720e+02	2.26660e+04	2.90231e-01	3.20000e+02
22697	3.22731e+02	2.26970e+04	2.89832e-01	3.20000e+02
22728	3.22715e+02	2.27280e+04	2.89391e-01	3.20000e+02
22759	3.22718e+02	2.27590e+04	2.88941e-01	3.20000e+02
22790	3.22718e+02	2.27900e+04	2.88772e-01	3.20000e+02
22821	3.22726e+02	2.28210e+04	2.88323e-01	3.20000e+02
22852	3.22718e+02	2.28520e+04	2.87834e-01	3.20000e+02
22883	3.22719e+02	2.28830e+04	2.87334e-01	3.20000e+02
22914	3.22728e+02	2.29140e+04	2.87155e-01	3.20000e+02
22945	3.22725e+02	2.29450e+04	2.86738e-01	3.20000e+02
22976	3.22715e+02	2.29760e+04	2.86281e-01	3.20000e+02
23007	3.22726e+02	2.30070e+04	2.85972e-01	3.20000e+02
23038	3.22724e+02	2.30380e+04	2.85459e-01	3.20000e+02
23069	3.22720e+02	2.30690e+04	2.85216e-01	3.20000e+02
23100	3.22722e+02	2.31000e+04	2.84851e-01	3.20000e+02
23131	3.22725e+02	2.31310e+04	2.84382e-01	3.20000e+02
23162	3.22736e+02	2.31620e+04	2.83966e-01	3.20000e+02
23193	3.22729e+02	2.31930e+04	2.84015e-01	3.20000e+02
23224	3.22720e+02	2.32240e+04	2.83460e-01	3.20000e+02
23255	3.22728e+02	2.32550e+04	2.83165e-01	3.20000e+02
23286	3.22719e+02	2.32860e+04	2.82291e-01	3.20000e+02
23317	3.22718e+02	2.33170e+04	2.81956e-01	3.20000e+02
23348	3.22717e+02	2.33480e+04	2.81945e-01	3.20000e+02
23379	3.22720e+02	2.33790e+04	2.81297e-01	3.20000e+02
23410	3.22719e+02	2.34100e+04	2.81188e-01	3.20000e+02
23441	3.22713e+02	2.34410e+04	2.80824e-01	3.20000e+02
23472	3.22711e+02	2.34720e+04	2.80441e-01	3.20000e+02
23503	3.22719e+02	2.35030e+04	2.79785e-01	3.20000e+02
23534	3.22725e+02	2.35340e+04	2.79669e-01	3.20000e+02
23565	3.22728e+02	2.35650e+04	2.79256e-01	3.20000e+02
23596	3.22728e+02	2.35960e+04	2.78916e-01	3.20000e+02
23627	3.22709e+02	2.36270e+04	2.78648e-01	3.20000e+02
23658	3.22729e+02	2.36580e+04	2.78173e-01	3.20000e+02
23689	3.22721e+02	2.36890e+04	2.77848e-01	3.20000e+02
23720	3.22721e+02	2.37200e+04	2.77578e-01	3.20000e+02
23751	3.22716e+02	2.37510e+04	2.77268e-01	3.20000e+02
23782	3.22715e+02	2.37820e+04	2.76929e-01	3.20000e+02
23813	3.22715e+02	2.38130e+04	2.76535e-01	3.20000e+02
23844	3.22719e+02	2.38440e+04	2.76074e-01	3.20000e+02
23875	3.22714e+02	2.38750e+04	2.75486e-01	3.20000e+02
23906	3.22721e+02	2.39060e+04	2.75325e-01	3.20000e+02
23937	3.22716e+02	2.39370e+04	2.74858e-01	3.20000e+02
23968	3.22721e+02	2.39680e+04	2.74479e-01	3.20000e+02
23999	3.22728e+02	2.39990e+04	2.74156e-01	3.20000e+02
24030	3.22724e+02	2.40300e+04	2.73965e-01	3.20000e+02
24061	3.22714e+02	2.40610e+04	2.73397e-01	3.20000e+02
24092	3.22714e+02	2.40920e+04	2.73008e-01	3.20000e+02
24123	3.22717e+02	2.41230e+04	2.72709e-01	3.20000e+02
24154	3.22716e+02	2.41540e+04	2.72493e-01	3.20000e+02
24185	3.22724e+02	2.41850e+04	2.72136e-01	3.20000e+02
24216	3.22724e+02	2.42160e+04	2.71704e-01	3.20000e+02
24247	3.22727e+02	2.42470e+04	2.71589e-01	3.20000e+02
24278	3.22728e+02	2.42780e+04	2.71340e-01	3.20000e+02
24309	3.22722e+02	2.43090e+04	2.70931e-01	3.20000e+02
24340	3.22735e+02	2.43400e+04	2.70583e-01	3.20000e+02
24371	3.22731e+02	2.43710e+04	2.70390e-01	3.20000e+02
24402	3.22736e+02	2.44020e+04	2.70255e-01	3.20000e+02
24433	3.22735e+02	2.44330e+04	2.69579e-01	3.20000e+02
24464	3.22725e+02	2.44640e+04	2.69292e-01	3.20000e+02
24495	3.22727e+02	2.44950e+04	2.69059e-01	3.20000e+02
24526	3.22734e+02	2.45260e+04	2.68713e-01	3.20000e+02
24557	3.22732e+02	2.45570e+04	2.68380e-01	3.20000e+02
24588	3.22728e+02	2.45880e+04	2.68273e-01	3.20000e+02
24619	3.22715e+02	2.46190e+04	2.67955e-01	3.20000e+02
24650	3.22731e+02	2.46500e+04	2.67664e-01	3.20000e+02
24681	3.22730e+02	2.46810e+04	2.67313e-01	3.20000e+02
24712	3.22729e+02	2.47120e+04	2.66990e-01	3.20000e+02
24743	3.22736e+02	2.47430e+04	2.66606e-01	3.20000e+02
24774	3.22739e+02	2.47740e+04	2.66227e-01	3.20000e+02
24805	3.22733e+02	2.48050e+04	2.65787e-01	3.20000e+02
24836	3.22745e+02	2.48360e+04	2.65482e-01	3.20000e+02
24867	3.22718e+02	2.48670e+04	2.65110e-01	3.20000e+02
24898	3.22731e+02	2.48980e+04	2.64643e-01	3.20000e+02
24929	3.22735e+02	2.49290e+04	2.64425e-01	3.20000e+02
24960	3.22742e+02	2.49600e+04	2.64131e-01	3.20000e+02
24991	3.22724e+02	2.49910e+04	2.63846e-01	3.20000e+02
25022	3.22728e+02	2.50220e+04	2.63564e-01	3.20000e+02
25053	3.22728e+02	2.50530e+04	2.63262e-01	3.20000e+02
25084	3.22723e+02	2.50840e+04	2.62978e-01	3.20000e+02
25115	3.22731e+02	2.51150e+04	2.62485e-01	3.20000e+02
25146	3.22730e+02	2.51460e+04	2.62352e-01	3.20000e+02
25177	3.22728e+02	2.51770e+04	2.62051e-01	3.20000e+02
25208	3.22728e+02	2.52080e+04	2.61654e-01	3.20000e+02
25239	3.22733e+02	2.52390e+04	2.61456e-01	3.20000e+02
25270	3.22731e+02	2.52700e+04	2.61019e-01	3.20000e+02
25301	3.22727e+02	2.53010e+04	2.60646e-01	3.20000e+02
25332	3.22723e+02	2.53320e+04	2.60283e-01	3.20000e+02
25363	3.22704e+02	2.53630e+04	2.60083e-01	3.20000e+02
25394	3.22716e+02	2.53940e+04	2.59781e-01	3.20000e+02
25425	3.22727e+02	2.54250e+04	2.59610e-01	3.20000e+02
25456	3.22719e+02	2.54560e+04	2.59217e-01	3.20000e+02
25487	3.22724e+02	2.54870e+04	2.58767e-01	3.20000e+02
25518	3.22724e+02	2.55180e+04	2.58620e-01	3.20000e+02
25549	3.22724e+02	2.55490e+04	2.58378e-01	3.20000e+02
25580	3.22733e+02	2.55800e+04	2.58036e-01	3.20000e+02
25611	3.22723e+02	2.56110e+04	2.57738e-01	3.20000e+02
25642	3.22702e+02	2.56420e+04	2.57455e-01	3.20000e+02
25673	3.22707e+02	2.56730e+04	2.57139e-01	3.20000e+02
25704	3.22710e+02	2.57040e+04	2.56787e-01	3.20000e+02
25735	3.22709e+02	2.57350e+04	2.56618e-01	3.20000e+02
25766	3.22715e+02	2.57660e+04	2.56453e-01	3.20000e+02
25797	3.22723e+02	2.57970e+04	2.55968e-01	3.20000e+02
25828	3.22712e+02	2.58280e+04	2.55508e-01	3.20000e+02
25859	3.22724e+02	2.58590e+04	2.55364e-01	3.20000e+02
25890	3.22728e+02	2.58900e+04	2.54934e-01	3.20000e+02
25921	3.22718e+02	2.59210e+04	2.54637e-01	3.20000e+02
25952	3.22723e+02	2.59520e+04	2.54261e-01	3.20000e+02
25983	3.22727e+02	2.59830e+04	2.54076e-01	3.20000e+02
26014	3.22726e+02	2.60140e+04	2.53746e-01	3.20000e+02
26045	3.22727e+02	2.60450e+04	2.53553e-01	3.20000e+02
26076	3.22726e+02	2.60760e+04	2.53087e-01	3.20000e+02
26107	3.22727e+02	2.61070e+04	2.52858e-01	3.20000e+02
26138	3.22728e+02	2.61380e+04	2.52487e-01	3.20000e+02
26169	3.22727e+02	2.61690e+04	2.52352e-01	3.20000e+02
26200	3.22733e+02	2.62000e+04	2.51950e-01	3.20000e+02
26231	3.22739e+02	2.62310e+04	2.51524e-01	3.20000e+02
26262	3.22730e+02	2.62620e+04	2.51303e-01	3.20000e+02
26293	3.22725e+02	2.62930e+04	2.51137e-01	3.20000e+02
26324	3.22731e+02	2.63240e+04	2.50878e-01	3.20000e+02
26355	3.22731e+02	2.63550e+04	2.50651e-01	3.20000e+02
26386	3.22733e+02	2.63860e+04	2.50197e-01	3.20000e+02
26417	3.22737e+02	2.64170e+04	2.49925e-01	3.20000e+02
26448	3.22729e+02	2.64480e+04	2.49612e-01	3.20000e+02
26479	3.22732e+02	2.64790e+04	2.49461e-01	3.20000e+02
26510	3.22727e+02	2.65100e+04	2.49003e-01	3.20000e+02
26541	3.22729e+02	2.65410e+04	2.48680e-01	3.20000e+02
26572	3.22733e+02	2.65720e+04	2.48489e-01	3.20000e+02
26603	3.22727e+02	2.66030e+04	2.48284e-01	3.20000e+02
26634	3.22723e+02	2.66340e+04	2.47891e-01	3.20000e+02
26665	3.22722e+02	2.66650e+04	2.47704e-01	3.20000e+02
26696	3.22732e+02	2.66960e+04	2.47451e-01	3.20000e+02
26727	3.22714e+02	2.67270e+04	2.47032e-01	3.20000e+02
26758	3.22724e+02	2.67580e+04	2.46795e-01	3.20000e+02
26789	3.22725e+02	2.67890e+04	2.46494e-01	3.20000e+02
26820	3.22722e+02	2.68200e+04	2.46171e-01	3.20000e+02
26851	3.22710e+02	2.68510e+04	2.46062e-01	3.20000e+02
26882	3.22722e+02	2.68820e+04	2.45729e-01	3.20000e+02
26913	3.22729e+02	2.69130e+04	2.45391e-01	3.20000e+02
26944	3.22729e+02	2.69440e+04	2.45256e-01	3.20000e+02
26975	3.22735e+02	2.69750e+04	2.44948e-01	3.20000e+02
27006	3.22728e+02	2.70060e+04	2.44681e-01	3.20000e+02
27037	3.22734e+02	2.70370e+04	2.44423e-01	3.20000e+02
27068	3.22721e+02	2.70680e+04	2.44208e-01	3.20000e+02
27099	3.22730e+02	2.70990e+04	2.44144e-01	3.20000e+02
27130	3.22735e+02	2.71300e+04	2.43312e-01	3.20000e+02
27161	3.22734e+02	2.71610e+04	2.43380e-01	3.20000e+02
27192	3.22725e+02	2.71920e+04	2.43607e-01	3.20000e+02
27223	3.22725e+02	2.72230e+04	2.42830e-01	3.20000e+02
27254	3.22733e+02	2.72540e+04	2.42654e-01	3.20000e+02
27285	3.22724e+02	2.72850e+04	2.42480e-01	3.20000e+02
27316	3.22726e+02	2.73160e+04	2.42153e-01	3.20000e+02
27347	3.22715e+02	2.73470e+04	2.41949e-01	3.20000e+02
27378	3.22728e+02	2.73780e+04	2.41999e-01	3.20000e+02
27409	3.22724e+02	2.74090e+04	2.41305e-01	3.20000e+02
27440	3.22730e+02	2.74400e+04	2.41014e-01	3.20000e+02
27471	3.22744e+02	2.74710e+04	2.40782e-01	3.20000e+02
27502	3.22745e+02	2.75020e+04	2.40590e-01	3.20000e+02
27533	3.22750e+02	2.75330e+04	2.40460e-01	3.20000e+02
27564	3.22750e+02	2.75640e+04	2.40120e-01	3.20000e+02
27595	3.22736e+02	2.75950e+04	2.39781e-01	3.20000e+02
27626	3.22724e+02	2.76260e+04	2.39581e-01	3.20000e+02
27657	3.22730e+02	2.76570e+04	2.39131e-01	3.20000e+02
27688	3.22731e+02	2.76880e+04	2.38863e-01	3.20000e+02
27719	3.22721e+02	2.77190e+04	2.38728e-01	3.20000e+02
27750	3.22722e+02	2.77500e+04	2.38440e-01	3.20000e+02
27781	3.22729e+02	2.77810e+04	2.38142e-01	3.20000e+02
27812	3.22723e+02	2.78120e+04	2.37985e-01	3.20000e+02
27843	3.22727e+02	2.78430e+04	2.37763e-01	3.20000e+02
27874	3.22726e+02	2.78740e+04	2.37623e-01	3.20000e+02
27905	3.22724e+02	2.79050e+04	2.37277e-01	3.20000e+02
27936	3.22725e+02	2.79360e+04	2.36997e-01	3.20000e+02
27967	3.22716e+02	2.79670e+04	2.36701e-01	3.20000e+02
27998	3.22730e+02	2.79980e+04	2.36514e-01	3.20000e+02
28029	3.22727e+02	2.80290e+04	2.36002e-01	3.20000e+02
28060	3.22730e+02	2.80600e+04	2.35943e-01	3.20000e+02
28091	3.22722e+02	2.80910e+04	2.35477e-01	3.20000e+02
28122	3.22718e+02	2.81220e+04	2.35392e-01	3.20000e+02
28153	3.22721e+02	2.81530e+04	2.35018e-01	3.20000e+02
28184	3.22716e+02	2.81840e+04	2.34690e-01	3.20000e+02
28215	3.22712e+02	2.82150e+04	2.34469e-01	3.20000e+02
28246	3.22717e+02	2.82460e+04	2.34452e-01	3.20000e+02
28277	3.22719e+02	2.82770e+04	2.34361e-01	3.20000e+02
28308	3.22714e+02	2.83080e+04	2.33894e-01	3.20000e+02
28339	3.22724e+02	2.83390e+04	2.33629e-01	3.20000e+02
28370	3.22724e+02	2.83700e+04	2.33585e-01	3.20000e+02
28401	3.22723e+02	2.84010e+04	2.33275e-01	3.20000e+02
28432	3.22725e+02	2.84320e+04	2.32926e-01	3.20000e+02
28463	3.22737e+02	2.84630e+04	2.32816e-01	3.20000e+02
28494	3.22724e+02	2.84940e+04	2.32408e-01	3.20000e+02
28525	3.22739e+02	2.85250e+04	2.32198e-01	3.20000e+02
28556	3.22734e+02	2.85560e+04	2.32126e-01	3.20000e+02
28587	3.22723e+02	2.85870e+04	2.31749e-01	3.20000e+02
28618	3.22722e+02	2.86180e+04	2.31413e-01	3.20000e+02
28649	3.22723e+02	2.86490e+04	2.31391e-01	3.20000e+02
28680	3.22725e+02	2.86800e+04	2.30988e-01	3.20000e+02
28711	3.22728e+02	2.87110e+04	2.30775e-01	3.20000e+02
28742	3.22721e+02	2.87420e+04	2.30457e-01	3.20000e+02
28773	3.22721e+02	2.87730e+04	2.30297e-01	3.20000e+02
28804	3.22730e+02	2.88040e+04	2.29944e-01	3.20000e+02
28835	3.22731e+02	2.88350e+04	2.29702e-01	3.20000e+02
28866	3.22726e+02	2.88660e+04	2.29494e-01	3.20000e+02
28897	3.22725e+02	2.88970e+04	2.29293e-01	3.20000e+02
28928	3.22729e+02	2.89280e+04	2.29062e-01	3.20000e+02
28959	3.22736e+02	2.89590e+04	2.28690e-01	3.20000e+02
28990	3.22741e+02	2.89900e+04	2.28807e-01	3.20000e+02
29021	3.22736e+02	2.90210e+04	2.28587e-01	3.20000e+02
29052	3.22723e+02	2.90520e+04	2.27915e-01	3.20000e+02
29083	3.22732e+02	2.90830e+04	2.27899e-01	3.20000e+02
29114	3.22733e+02	2.91140e+04	2.27790e-01	3.20000e+02
29145	3.22736e+02	2.91450e+04	2.27686e-01	3.20000e+02
29176	3.22733e+02	2.91760e+04	2.27356e-01	3.20000e+02
29207	3.22730e+02	2.92070e+04	2.27123e-01	3.20000e+02
29238	3.22735e+02	2.92380e+04	2.26922e-01	3.20000e+02
29269	3.22732e+02	2.92690e+04	2.26765e-01	3.20000e+02
29300	3.22733e+02	2.93000e+04	2.26280e-01	3.20000e+02
29331	3.22728e+02	2.93310e+04	2.26080e-01	3.20000e+02
29362	3.22728e+02	2.93620e+04	2.25819e-01	3.20000e+02
29393	3.22727e+02	2.93930e+04	2.25658e-01	3.20000e+02
29424	3.22732e+02	2.94240e+04	2.25482e-01	3.20000e+02
29455	3.22726e+02	2.94550e+04	2.25223e-01	3.20000e+02
29486	3.22726e+02	2.94860e+04	2.24994e-01	3.20000e+02
29517	3.22734e+02	2.95170e+04	2.25016e-01	3.20000e+02
29548	3.22725e+02	2.95480e+04	2.24557e-01	3.20000e+02
29579	3.22728e+02	2.95790e+04	2.24360e-01	3.20000e+02
29610	3.22729e+02	2.96100e+04	2.24337e-01	3.20000e+02
29641	3.22730e+02	2.96410e+04	2.24043e-01	3.20000e+02
29672	3.22727e+02	2.96720e+04	2.23685e-01	3.20000e+02
29703	3.22729e+02	2.97030e+04	2.23613e-01	3.20000e+02
29731	3.22727e+02	2.97310e+04	2.23093e-01	3.20000e+02